timestamp,accX,accY,accZ,class
0.0,1915,2337,1906,1
1.0,1912,2341,1886,1
2.0,1825,2281,1845,1
3.0,1900,2440,1922,1
4.0,1945,2299,1869,1
5.0,1805,2317,1713,1
6.0,1891,2302,1822,1
7.0,1874,2334,1825,1
8.0,1883,2323,1820,1
9.0,1870,2326,1850,1
10.0,1883,2303,1854,1
11.0,1897,2272,1885,1
12.0,1866,2301,1814,1
13.0,1877,2301,1829,1
14.0,1881,2309,1902,1
15.0,1859,2320,1808,1
16.0,1894,2296,1787,1
17.0,1885,2330,1892,1
18.0,1911,2318,1867,1
19.0,1887,2327,1821,1
20.0,1881,2306,1845,1
21.0,1862,2306,1850,1
22.0,1874,2308,1855,1
23.0,1886,2317,1853,1
24.0,1882,2323,1862,1
25.0,1884,2323,1851,1
26.0,1885,2323,1860,1
27.0,1881,2315,1859,1
28.0,1879,2329,1875,1
29.0,1892,2327,1860,1
30.0,1948,2281,1769,1
31.0,1865,2285,1797,1
32.0,1809,2311,1653,1
33.0,1804,2211,1690,1
34.0,1866,2325,1743,1
35.0,1895,2373,1891,1
36.0,1906,2313,2009,1
37.0,1898,2324,1924,1
38.0,1862,2318,1822,1
39.0,1866,2313,1847,1
40.0,1880,2329,1873,1
41.0,1896,2328,1893,1
42.0,1893,2281,1827,1
43.0,1910,2312,1932,1
44.0,1839,2357,1862,1
45.0,1854,2317,1832,1
46.0,1854,2336,1865,1
47.0,1865,2324,1868,1
48.0,1871,2327,1880,1
49.0,1873,2311,1874,1
50.0,1868,2324,1874,1
51.0,1872,2324,1866,1
52.0,1875,2325,1865,1
53.0,1870,2327,1853,1
54.0,1872,2334,1865,1
55.0,1879,2323,1864,1
56.0,1886,2346,1894,1
57.0,1866,2323,1876,1
58.0,1871,2336,1871,1
59.0,1887,2311,1876,1
60.0,1861,2331,1875,1
61.0,1852,2327,1864,1
62.0,2084,2473,3256,1
63.0,1848,2346,1741,1
64.0,1842,2314,1759,1
65.0,1782,2334,1744,1
66.0,1869,2380,1834,1
67.0,1954,2323,2015,1
68.0,1918,2347,1946,1
69.0,1852,2312,1871,1
70.0,1886,2328,1882,1
71.0,1881,2321,1871,1
72.0,1873,2330,1865,1
73.0,1878,2332,1879,1
74.0,1884,2332,1878,1
75.0,1883,2330,1867,1
76.0,1874,2332,1864,1
77.0,1867,2321,1874,1
78.0,1927,2297,1876,1
79.0,1848,2318,1842,1
80.0,1881,2283,1792,1
81.0,1927,2357,1862,1
82.0,1874,2324,1900,1
83.0,1877,2326,1883,1
84.0,1879,2327,1880,1
85.0,1869,2338,1874,1
86.0,1868,2335,1881,1
87.0,1883,2338,1881,1
88.0,1878,2335,1883,1
89.0,1876,2333,1884,1
90.0,1882,2331,1875,1
91.0,1877,2330,1876,1
92.0,1880,2333,1880,1
93.0,1878,2335,1882,1
94.0,1870,2331,1884,1
95.0,1873,2331,1880,1
96.0,1879,2334,1885,1
97.0,1883,2334,1884,1
98.0,1873,2332,1884,1
99.0,1875,2333,1886,1
100.0,1874,2327,1883,1
101.0,1877,2330,1885,1
102.0,1876,2331,1882,1
103.0,1876,2332,1880,1
104.0,1871,2331,1885,1
105.0,1874,2329,1881,1
106.0,1875,2332,1887,1
107.0,1874,2334,1887,1
108.0,1878,2333,1882,1
109.0,1875,2323,1888,1
110.0,1874,2334,1890,1
111.0,1871,2331,1889,1
112.0,1870,2328,1893,1
113.0,1877,2331,1884,1
114.0,1887,2331,1889,1
115.0,1875,2335,1884,1
116.0,1870,2333,1885,1
117.0,1872,2333,1888,1
118.0,1871,2333,1883,1
119.0,1871,2335,1891,1
120.0,1875,2334,1883,1
121.0,1871,2328,1891,1
122.0,1865,2337,1894,1
123.0,1866,2343,1898,1
124.0,1871,2338,1895,1
125.0,1869,2332,1904,1
126.0,1868,2334,1901,1
127.0,1882,2339,1903,1
128.0,1884,2340,1891,1
129.0,1888,2332,1892,1
130.0,1884,2342,1893,1
131.0,1884,2334,1893,1
132.0,1875,2330,1892,1
133.0,1871,2331,1895,1
134.0,1868,2337,1901,1
135.0,1866,2343,1899,1
136.0,1869,2341,1899,1
137.0,1871,2332,1896,1
138.0,1873,2338,1897,1
139.0,1866,2334,1899,1
140.0,1878,2328,1903,1
141.0,1873,2335,1892,1
142.0,1875,2335,1897,1
143.0,1868,2335,1897,1
144.0,1870,2326,1900,1
145.0,1866,2334,1900,1
146.0,1862,2335,1907,1
147.0,1848,2333,1919,1
148.0,1847,2341,1922,1
149.0,1859,2333,1919,1
150.0,1875,2336,1927,1
151.0,1887,2343,1934,1
152.0,1889,2343,1934,1
153.0,1895,2343,1936,1
154.0,1887,2349,1931,1
155.0,1894,2358,1942,1
156.0,1901,2350,1938,1
157.0,1888,2347,1935,1
158.0,1887,2355,1935,1
159.0,1885,2354,1935,1
160.0,1885,2355,1932,1
161.0,1881,2351,1931,1
162.0,1881,2342,1930,1
163.0,1879,2342,1938,1
164.0,1882,2343,1931,1
165.0,1882,2342,1935,1
166.0,1881,2352,1935,1
167.0,1883,2352,1940,1
168.0,1880,2352,1939,1
169.0,1875,2357,1930,1
170.0,1887,2349,1932,1
171.0,1887,2350,1930,1
172.0,1887,2350,1928,1
173.0,1885,2349,1927,1
174.0,1886,2346,1929,1
175.0,1889,2348,1932,1
176.0,1885,2353,1933,1
177.0,1885,2348,1936,1
178.0,1890,2349,1940,1
179.0,1886,2345,1939,1
180.0,1889,2346,1939,1
181.0,1891,2348,1938,1
182.0,1886,2351,1934,1
183.0,1882,2356,1935,1
184.0,1873,2346,1936,1
185.0,1869,2344,1938,1
186.0,1869,2338,1942,1
187.0,1869,2337,1932,1
188.0,1875,2340,1936,1
189.0,1867,2345,1941,1
190.0,1871,2343,1937,1
191.0,1875,2351,1942,1
192.0,1879,2353,1940,1
193.0,1884,2352,1942,1
194.0,1881,2346,1938,1
195.0,1886,2350,1939,1
196.0,1887,2350,1945,1
197.0,1885,2350,1939,1
198.0,1876,2349,1938,1
199.0,1880,2348,1939,1
200.0,1875,2348,1937,1
201.0,1873,2344,1935,1
202.0,1876,2347,1942,1
203.0,1873,2346,1932,1
204.0,1878,2342,1934,1
205.0,1871,2346,1933,1
206.0,1868,2340,1938,1
207.0,1865,2347,1937,1
208.0,1874,2345,1935,1
209.0,1871,2351,1933,1
210.0,1870,2342,1924,1
211.0,1867,2342,1934,1
212.0,1857,2340,1946,1
213.0,1844,2334,1953,1
214.0,1840,2339,1954,1
215.0,1854,2341,1942,1
216.0,1867,2344,1939,1
217.0,1871,2340,1947,1
218.0,1866,2347,1944,1
219.0,1879,2350,1948,1
220.0,1882,2354,1947,1
221.0,1884,2357,1947,1
222.0,1884,2355,1949,1
223.0,1877,2356,1945,1
224.0,1880,2356,1950,1
225.0,1872,2349,1949,1
226.0,1870,2350,1953,1
227.0,1869,2345,1950,1
228.0,1867,2351,1946,1
229.0,1870,2348,1945,1
230.0,1868,2347,1953,1
231.0,1868,2348,1947,1
232.0,1870,2343,1948,1
233.0,1864,2343,1943,1
234.0,1860,2346,1947,1
235.0,1865,2347,1944,1
236.0,1864,2343,1946,1
237.0,1866,2350,1945,1
238.0,1864,2347,1950,1
239.0,1869,2347,1947,1
240.0,1867,2346,1945,1
241.0,1869,2347,1941,1
242.0,1868,2346,1949,1
243.0,1864,2342,1944,1
244.0,1866,2349,1944,1
245.0,1869,2350,1940,1
246.0,1871,2342,1939,1
247.0,1867,2349,1943,1
248.0,1871,2348,1946,1
249.0,1867,2341,1948,1
250.0,1868,2342,1945,1
251.0,1867,2345,1938,1
252.0,1866,2346,1949,1
253.0,1870,2348,1946,1
254.0,1864,2348,1944,1
255.0,1866,2346,1948,1
256.0,1869,2348,1947,1
257.0,1867,2347,1944,1
258.0,1872,2349,1947,1
259.0,1877,2348,1948,1
260.0,1870,2348,1952,1
261.0,1875,2345,1949,1
262.0,1868,2346,1949,1
263.0,1875,2346,1951,1
264.0,1872,2347,1952,1
265.0,1869,2351,1948,1
266.0,1876,2344,1947,1
267.0,1876,2342,1948,1
268.0,1867,2348,1950,1
269.0,1875,2347,1951,1
270.0,1867,2343,1958,1
271.0,1867,2335,1955,1
272.0,1860,2338,1960,1
273.0,1875,2340,1956,1
274.0,1873,2336,1957,1
275.0,1871,2341,1955,1
276.0,1877,2351,1950,1
277.0,1892,2362,1949,1
278.0,1884,2353,1940,1
279.0,1889,2340,1926,1
280.0,1866,2330,1928,1
281.0,1877,2334,1924,1
282.0,1883,2333,1936,1
283.0,1898,2331,1937,1
284.0,1881,2324,1940,1
285.0,1894,2321,1951,1
286.0,1897,2325,1961,1
287.0,1898,2340,1963,1
288.0,1890,2353,1965,1
289.0,1880,2369,1970,1
290.0,1870,2391,1979,1
291.0,1865,2406,1983,1
292.0,1882,2395,1985,1
293.0,1895,2369,1990,1
294.0,1909,2364,1999,1
295.0,1909,2358,2009,1
296.0,1907,2366,2018,1
297.0,1908,2367,2018,1
298.0,1913,2368,2017,1
299.0,1924,2365,2024,1
300.0,1928,2365,2023,1
301.0,1929,2363,2022,1
302.0,1926,2360,2024,1
303.0,1921,2367,2023,1
304.0,1905,2368,2015,1
305.0,1913,2363,2020,1
306.0,1913,2353,2014,1
307.0,1911,2351,2016,1
308.0,1900,2352,2009,1
309.0,1894,2346,1995,1
310.0,1902,2355,2004,1
311.0,1898,2351,2002,1
312.0,1891,2352,2004,1
313.0,1872,2344,1999,1
314.0,1872,2357,2001,1
315.0,1873,2353,1983,1
316.0,1874,2352,1985,1
317.0,1871,2351,1981,1
318.0,1868,2349,1984,1
319.0,1869,2350,1971,1
320.0,1874,2350,1972,1
321.0,1872,2353,1974,1
322.0,1875,2347,1976,1
323.0,1874,2349,1977,1
324.0,1879,2347,1978,1
325.0,1875,2351,1975,1
326.0,1873,2352,1979,1
327.0,1880,2358,1979,1
328.0,1871,2359,1979,1
329.0,1885,2351,1987,1
330.0,1877,2350,1986,1
331.0,1872,2358,1986,1
332.0,1875,2354,1982,1
333.0,1883,2351,1982,1
334.0,1883,2352,1976,1
335.0,1878,2352,1976,1
336.0,1882,2350,1979,1
337.0,1882,2353,1976,1
338.0,1882,2351,1970,1
339.0,1883,2350,1970,1
340.0,1883,2349,1976,1
341.0,1883,2350,1975,1
342.0,1871,2348,1974,1
343.0,1879,2357,1976,1
344.0,1883,2363,1971,1
345.0,1888,2358,1973,1
346.0,1880,2353,1968,1
347.0,1882,2355,1979,1
348.0,1885,2353,1968,1
349.0,1890,2352,1974,1
350.0,1889,2351,1972,1
351.0,1885,2350,1964,1
352.0,1886,2355,1968,1
353.0,1882,2351,1962,1
354.0,1885,2355,1967,1
355.0,1878,2354,1967,1
356.0,1878,2353,1969,1
357.0,1880,2352,1971,1
358.0,1882,2355,1976,1
359.0,1887,2352,1970,1
360.0,1888,2351,1969,1
361.0,1885,2357,1972,1
362.0,1880,2352,1972,1
363.0,1883,2352,1973,1
364.0,1882,2355,1968,1
365.0,1879,2350,1976,1
366.0,1883,2355,1971,1
367.0,1885,2357,1968,1
368.0,1879,2353,1970,1
369.0,1882,2350,1972,1
370.0,1878,2353,1974,1
371.0,1883,2348,1968,1
372.0,1885,2351,1972,1
373.0,1885,2350,1975,1
374.0,1886,2353,1972,1
375.0,1880,2351,1969,1
376.0,1886,2354,1977,1
377.0,1879,2349,1966,1
378.0,1880,2357,1976,1
379.0,1880,2352,1979,1
380.0,1880,2354,1974,1
381.0,1883,2356,1971,1
382.0,1886,2348,1971,1
383.0,1887,2357,1972,1
384.0,1890,2349,1972,1
385.0,1881,2349,1976,1
386.0,1880,2349,1969,1
387.0,1883,2354,1971,1
388.0,1886,2354,1977,1
389.0,1884,2347,1973,1
390.0,1882,2352,1975,1
391.0,1875,2351,1975,1
392.0,1880,2353,1977,1
393.0,1886,2350,1970,1
394.0,1879,2351,1972,1
395.0,1883,2351,1973,1
396.0,1884,2351,1970,1
397.0,1883,2353,1970,1
398.0,1887,2352,1973,1
399.0,1885,2349,1972,1
400.0,1888,2352,1975,1
401.0,1879,2359,1974,1
402.0,1883,2352,1971,1
403.0,1886,2359,1971,1
404.0,1878,2348,1975,1
405.0,1884,2347,1976,1
406.0,1881,2355,1975,1
407.0,1885,2351,1974,1
408.0,1889,2345,1973,1
409.0,1885,2347,1975,1
410.0,1880,2350,1966,1
411.0,1886,2351,1971,1
412.0,1884,2351,1972,1
413.0,1882,2352,1973,1
414.0,1889,2352,1974,1
415.0,1882,2352,1980,1
416.0,1880,2350,1976,1
417.0,1882,2345,1981,1
418.0,1885,2351,1976,1
419.0,1883,2358,1974,1
420.0,1892,2351,1974,1
421.0,1884,2349,1974,1
422.0,1886,2357,1967,1
423.0,1886,2352,1971,1
424.0,1881,2353,1974,1
425.0,1884,2358,1977,1
426.0,1884,2353,1973,1
427.0,1882,2353,1971,1
428.0,1882,2347,1972,1
429.0,1884,2349,1972,1
430.0,1887,2350,1971,1
431.0,1885,2348,1973,1
432.0,1898,2351,1971,1
433.0,1889,2352,1969,1
434.0,1885,2351,1972,1
435.0,1884,2353,1970,1
436.0,1878,2347,1974,1
437.0,1890,2351,1971,1
438.0,1885,2356,1971,1
439.0,1883,2357,1970,1
440.0,1884,2355,1969,1
441.0,1885,2348,1973,1
442.0,1883,2349,1978,1
443.0,1884,2355,1983,1
444.0,1879,2359,1983,1
445.0,1886,2350,1973,1
446.0,1890,2351,1971,1
447.0,1895,2352,1974,1
448.0,1883,2351,1978,1
449.0,1885,2357,1979,1
450.0,1885,2359,1979,1
451.0,1884,2361,1977,1
452.0,1888,2355,1974,1
453.0,1879,2350,1986,1
454.0,1876,2346,1982,1
455.0,1886,2355,1982,1
456.0,1884,2353,1978,1
457.0,1880,2357,1979,1
458.0,1881,2355,1980,1
459.0,1887,2359,1981,1
460.0,1887,2355,1973,1
461.0,1884,2344,1972,1
462.0,1875,2346,1979,1
463.0,1885,2349,1979,1
464.0,1893,2354,1977,1
465.0,1891,2359,1980,1
466.0,1884,2351,1979,1
467.0,1881,2352,1984,1
468.0,1888,2359,1989,1
469.0,1888,2356,1992,1
470.0,1883,2349,1978,1
471.0,1886,2349,1976,1
472.0,1884,2344,1971,1
473.0,1881,2349,1974,1
474.0,1882,2349,1972,1
475.0,1881,2351,1976,1
476.0,1883,2347,1978,1
477.0,1879,2355,1976,1
478.0,1878,2355,1978,1
479.0,1873,2359,1985,1
480.0,1865,2357,1983,1
481.0,1872,2352,1975,1
482.0,1881,2352,1974,1
483.0,1881,2350,1970,1
484.0,1886,2343,1970,1
485.0,1881,2336,1977,1
486.0,1884,2335,1975,1
487.0,1879,2343,1979,1
488.0,1877,2351,1983,1
489.0,1876,2361,1982,1
490.0,1881,2365,1976,1
491.0,1880,2362,1978,1
492.0,1878,2360,1972,1
493.0,1879,2349,1971,1
494.0,1877,2343,1968,1
495.0,1878,2343,1974,1
496.0,1885,2339,1977,1
497.0,1886,2339,1972,1
498.0,1885,2342,1975,1
499.0,1885,2353,1972,1
500.0,1884,2358,1982,1
501.0,1876,2356,1982,1
502.0,1871,2358,1981,1
503.0,1874,2353,1971,1
504.0,1877,2353,1969,1
505.0,1874,2351,1970,1
506.0,1876,2351,1973,1
507.0,1880,2355,1975,1
508.0,1880,2354,1977,1
509.0,1882,2347,1979,1
510.0,1887,2335,1981,1
511.0,1885,2337,1979,1
512.0,1884,2337,1979,1
513.0,1883,2338,1979,1
514.0,1885,2344,1983,1
515.0,1884,2334,1979,1
516.0,1880,2339,1977,1
517.0,1882,2342,1979,1
518.0,1878,2359,1982,1
519.0,1886,2361,1976,1
520.0,1887,2361,1974,1
521.0,1884,2356,1973,1
522.0,1887,2361,1968,1
523.0,1880,2353,1973,1
524.0,1881,2345,1975,1
525.0,1885,2347,1976,1
526.0,1881,2343,1978,1
527.0,1879,2347,1979,1
528.0,1883,2353,1973,1
529.0,1883,2359,1973,1
530.0,1878,2355,1976,1
531.0,1885,2355,1976,1
532.0,1887,2352,1984,1
533.0,1881,2348,1979,1
534.0,1879,2351,1972,1
535.0,1875,2352,1977,1
536.0,1874,2348,1975,1
537.0,1881,2351,1980,1
538.0,1882,2356,1977,1
539.0,1881,2358,1984,1
540.0,1872,2350,1979,1
541.0,1882,2351,1975,1
542.0,1882,2357,1977,1
543.0,1887,2354,1974,1
544.0,1891,2347,1978,1
545.0,1884,2350,1980,1
546.0,1881,2347,1973,1
547.0,1877,2353,1974,1
548.0,1880,2353,1967,1
549.0,1884,2347,1970,1
550.0,1871,2354,1975,1
551.0,1878,2353,1980,1
552.0,1883,2349,1979,1
553.0,1880,2346,1972,1
554.0,1877,2351,1970,1
555.0,1882,2350,1976,1
556.0,1884,2356,1976,1
557.0,1883,2357,1978,1
558.0,1885,2354,1974,1
559.0,1884,2348,1983,1
560.0,1884,2353,1975,1
561.0,1879,2351,1975,1
562.0,1884,2354,1973,1
563.0,1883,2349,1971,1
564.0,1878,2351,1978,1
565.0,1879,2349,1973,1
566.0,1882,2347,1969,1
567.0,1880,2345,1972,1
568.0,1882,2349,1970,1
569.0,1882,2354,1968,1
570.0,1884,2351,1973,1
571.0,1893,2347,1969,1
572.0,1894,2348,1967,1
573.0,1888,2349,1969,1
574.0,1885,2346,1974,1
575.0,1887,2350,1970,1
576.0,1889,2352,1970,1
577.0,1890,2355,1971,1
578.0,1883,2353,1969,1
579.0,1883,2350,1966,1
580.0,1877,2358,1968,1
581.0,1883,2353,1967,1
582.0,1887,2353,1963,1
583.0,1891,2352,1974,1
584.0,1888,2353,1973,1
585.0,1886,2352,1972,1
586.0,1882,2351,1972,1
587.0,1883,2343,1972,1
588.0,1879,2350,1977,1
589.0,1881,2353,1974,1
590.0,1887,2352,1974,1
591.0,1886,2352,1977,1
592.0,1881,2355,1976,1
593.0,1884,2351,1978,1
594.0,1879,2357,1976,1
595.0,1885,2357,1975,1
596.0,1886,2357,1970,1
597.0,1887,2352,1976,1
598.0,1887,2357,1980,1
599.0,1885,2352,1974,1
600.0,1889,2355,1972,1
601.0,1887,2354,1970,1
602.0,1880,2351,1970,1
603.0,1878,2349,1968,1
604.0,1880,2355,1978,1
605.0,1883,2354,1973,1
606.0,1886,2353,1970,1
607.0,1883,2349,1968,1
608.0,1885,2355,1965,1
609.0,1884,2354,1971,1
610.0,1890,2348,1976,1
611.0,1886,2352,1970,1
612.0,1889,2354,1975,1
613.0,1883,2349,1963,1
614.0,1883,2354,1968,1
615.0,1885,2347,1969,1
616.0,1882,2352,1974,1
617.0,1885,2351,1972,1
618.0,1880,2350,1973,1
619.0,1881,2349,1968,1
620.0,1887,2351,1969,1
621.0,1887,2345,1971,1
622.0,1885,2349,1972,1
623.0,1881,2358,1973,1
624.0,1888,2350,1975,1
625.0,1887,2352,1974,1
626.0,1886,2354,1968,1
627.0,1882,2351,1966,1
628.0,1885,2351,1973,1
629.0,1880,2354,1980,1
630.0,1879,2353,1977,1
631.0,1883,2358,1971,1
632.0,1885,2345,1973,1
633.0,1883,2355,1974,1
634.0,1881,2347,1973,1
635.0,1890,2350,1972,1
636.0,1885,2359,1971,1
637.0,1888,2364,1958,1
638.0,1904,2353,1953,1
639.0,1892,2337,1943,1
640.0,1890,2333,1943,1
641.0,1894,2337,1944,1
642.0,1889,2340,1948,1
643.0,1895,2355,1947,1
644.0,1894,2367,1947,1
645.0,1898,2369,1951,1
646.0,1892,2360,1956,1
647.0,1891,2371,1959,1
648.0,1883,2366,1969,1
649.0,1863,2337,1975,1
650.0,1835,2318,1969,1
651.0,1835,2340,1978,1
652.0,1911,2357,1982,1
653.0,1926,2367,1986,1
654.0,1909,2369,1979,1
655.0,1888,2368,1984,1
656.0,1891,2356,2003,1
657.0,1902,2351,2012,1
658.0,1896,2338,2028,1
659.0,1898,2363,2058,1
660.0,1882,2407,2073,1
661.0,1856,2396,2055,1
662.0,1829,2338,2023,1
663.0,1831,2331,2006,1
664.0,1859,2344,2015,1
665.0,1881,2350,2002,1
666.0,1879,2347,2002,1
667.0,1883,2348,2004,1
668.0,1879,2360,1998,1
669.0,1860,2369,1987,1
670.0,1873,2359,1973,1
671.0,1886,2354,1967,1
672.0,1898,2345,1962,1
673.0,1900,2337,1966,1
674.0,1895,2336,1967,1
675.0,1894,2331,1973,1
676.0,1895,2328,1975,1
677.0,1885,2326,1972,1
678.0,1887,2318,1971,1
679.0,1892,2319,1972,1
680.0,1916,2343,1957,1
681.0,1917,2342,1958,1
682.0,1913,2341,1958,1
683.0,1912,2343,1958,1
684.0,1910,2344,1959,1
685.0,1912,2344,1958,1
686.0,1911,2346,1958,1
687.0,1913,2344,1956,1
688.0,1907,2339,1968,1
689.0,1905,2347,1959,1
690.0,1910,2350,1945,1
691.0,1910,2333,1948,1
692.0,1917,2327,1961,1
693.0,1912,2327,1985,1
694.0,1909,2338,2003,1
695.0,1908,2343,1990,1
696.0,1895,2355,1984,1
697.0,1882,2363,1989,1
698.0,1870,2371,1985,1
699.0,1856,2383,1992,1
700.0,1841,2394,2011,1
701.0,1862,2390,2025,1
702.0,1866,2382,2044,1
703.0,1881,2370,2046,1
704.0,1883,2367,2050,1
705.0,1883,2357,2058,1
706.0,1911,2362,2075,1
707.0,1889,2371,2069,1
708.0,1890,2360,2049,1
709.0,1891,2362,2030,1
710.0,1913,2358,2031,1
711.0,1922,2363,2034,1
712.0,1926,2353,2027,1
713.0,1920,2353,2029,1
714.0,1910,2346,2023,1
715.0,1905,2346,2027,1
716.0,1898,2345,2034,1
717.0,1907,2340,2026,1
718.0,1890,2345,2027,1
719.0,1913,2339,2023,1
720.0,1914,2342,2024,1
721.0,1904,2353,2021,1
722.0,1888,2359,2009,1
723.0,1897,2365,1993,1
724.0,1890,2364,2002,1
725.0,1879,2354,1998,1
726.0,1887,2340,1998,1
727.0,1884,2349,1996,1
728.0,1900,2347,1987,1
729.0,1889,2346,1989,1
730.0,1879,2356,1978,1
731.0,1871,2362,1971,1
732.0,1869,2358,1958,1
733.0,1864,2340,1955,1
734.0,1860,2335,1957,1
735.0,1842,2338,1953,1
736.0,1858,2345,1962,1
737.0,1850,2346,1971,1
738.0,1868,2334,1972,1
739.0,1868,2351,1990,1
740.0,1870,2353,1992,1
741.0,1869,2362,1986,1
742.0,1867,2358,1983,1
743.0,1868,2354,1994,1
744.0,1882,2347,1999,1
745.0,1904,2341,2004,1
746.0,1891,2342,2008,1
747.0,1863,2352,1999,1
748.0,1854,2351,2012,1
749.0,1862,2343,2032,1
750.0,1887,2333,2051,1
751.0,1908,2339,2065,1
752.0,1921,2359,2055,1
753.0,1923,2364,2051,1
754.0,1925,2361,2039,1
755.0,1934,2384,2036,1
756.0,1927,2383,2040,1
757.0,1920,2375,2047,1
758.0,1921,2354,2035,1
759.0,1928,2345,2042,1
760.0,1922,2358,2045,1
761.0,1925,2374,2048,1
762.0,1925,2358,2049,1
763.0,1931,2319,2047,1
764.0,1929,2327,2042,1
765.0,1899,2357,2046,1
766.0,1902,2388,2044,1
767.0,1915,2379,2034,1
768.0,1911,2356,2028,1
769.0,1902,2350,2042,1
770.0,1907,2349,2039,1
771.0,1907,2347,2033,1
772.0,1926,2339,2029,1
773.0,1927,2339,2033,1
774.0,1918,2338,2025,1
775.0,1896,2365,2025,1
776.0,1898,2389,2011,1
777.0,1903,2389,2013,1
778.0,1896,2382,2022,1
779.0,1895,2350,2025,1
780.0,1895,2334,2023,1
781.0,1899,2335,2024,1
782.0,1891,2345,2025,1
783.0,1906,2335,2022,1
784.0,1900,2351,2015,1
785.0,1906,2358,2008,1
786.0,1904,2360,2002,1
787.0,1891,2351,1992,1
788.0,1879,2357,2002,1
789.0,1891,2352,2010,1
790.0,1890,2355,2011,1
791.0,1888,2355,1987,1
792.0,1884,2355,1992,1
793.0,1887,2354,1999,1
794.0,1885,2350,1996,1
795.0,1878,2352,2007,1
796.0,1881,2351,1999,1
797.0,1883,2353,2003,1
798.0,1885,2358,2001,1
799.0,1881,2363,2001,1
800.0,1870,2390,2004,1
801.0,1879,2363,2002,1
802.0,1874,2361,2001,1
803.0,1882,2358,2003,1
804.0,1892,2348,2011,1
805.0,1887,2326,2015,1
806.0,1892,2335,2010,1
807.0,1913,2343,2015,1
808.0,1896,2347,2008,1
809.0,1882,2364,2016,1
810.0,1869,2354,2011,1
811.0,1885,2359,2014,1
812.0,1896,2369,2015,1
813.0,1902,2365,2004,1
814.0,1891,2363,2009,1
815.0,1889,2362,2012,1
816.0,1891,2349,2011,1
817.0,1892,2346,2017,1
818.0,1889,2342,2017,1
819.0,1890,2352,2015,1
820.0,1906,2348,2020,1
821.0,1896,2355,2012,1
822.0,1894,2355,2019,1
823.0,1896,2354,2019,1
824.0,1908,2372,2015,1
825.0,1909,2367,2006,1
826.0,1898,2358,2006,1
827.0,1898,2345,2010,1
828.0,1891,2347,2014,1
829.0,1870,2347,2014,1
830.0,1872,2348,2015,1
831.0,1910,2365,2009,1
832.0,1919,2350,2011,1
833.0,1911,2359,2008,1
834.0,1905,2356,2015,1
835.0,1899,2355,2021,1
836.0,1892,2372,2015,1
837.0,1892,2375,2014,1
838.0,1891,2363,2017,1
839.0,1882,2360,2009,1
840.0,1889,2351,2018,1
841.0,1880,2350,2016,1
842.0,1867,2345,2018,1
843.0,1868,2353,2022,1
844.0,1884,2343,2029,1
845.0,1891,2343,2018,1
846.0,1877,2353,2021,1
847.0,1895,2354,2001,1
848.0,1883,2342,2002,1
849.0,1886,2336,1998,1
850.0,1855,2354,2027,1
851.0,1858,2355,2030,1
852.0,1861,2363,2030,1
853.0,1870,2370,2028,1
854.0,1891,2372,2024,1
855.0,1900,2371,2019,1
856.0,1897,2370,2027,1
857.0,1914,2369,2037,1
858.0,1935,2375,2039,1
859.0,1955,2373,2029,1
860.0,1955,2374,2025,1
861.0,1940,2361,2029,1
862.0,1932,2340,2032,1
863.0,1936,2342,2029,1
864.0,1932,2337,2023,1
865.0,1934,2339,2019,1
866.0,1939,2355,2021,1
867.0,1946,2360,2015,1
868.0,1947,2366,2013,1
869.0,1940,2359,2012,1
870.0,1935,2353,2016,1
871.0,1935,2356,2018,1
872.0,1939,2366,2013,1
873.0,1943,2362,2013,1
874.0,1933,2359,2022,1
875.0,1935,2356,2017,1
876.0,1927,2358,2018,1
877.0,1937,2354,2017,1
878.0,1931,2349,2019,1
879.0,1925,2356,2018,1
880.0,1924,2349,2019,1
881.0,1923,2352,2014,1
882.0,1928,2352,2011,1
883.0,1918,2361,2015,1
884.0,1917,2363,2013,1
885.0,1912,2361,2012,1
886.0,1913,2366,2018,1
887.0,1918,2377,2019,1
888.0,1918,2387,2020,1
889.0,1918,2381,2033,1
890.0,1914,2357,2025,1
891.0,1913,2348,2017,1
892.0,1908,2349,2027,1
893.0,1899,2354,2018,1
894.0,1908,2312,2034,1
895.0,1893,2283,2042,1
896.0,1899,2308,2007,1
897.0,1910,2349,2004,1
898.0,1918,2362,2005,1
899.0,1912,2373,2010,1
900.0,1895,2379,2017,1
901.0,1899,2377,2026,1
902.0,1892,2367,2026,1
903.0,1882,2349,2015,1
904.0,1881,2351,2021,1
905.0,1875,2353,2024,1
906.0,1877,2350,2015,1
907.0,1880,2336,2022,1
908.0,1875,2335,2022,1
909.0,1874,2353,2025,1
910.0,1871,2370,2021,1
911.0,1878,2367,2025,1
912.0,1889,2381,2035,1
913.0,1885,2361,2035,1
914.0,1882,2363,2036,1
915.0,1881,2363,2032,1
916.0,1873,2349,2019,1
917.0,1866,2338,2028,1
918.0,1883,2339,2024,1
919.0,1887,2335,2015,1
920.0,1892,2323,2009,1
921.0,1877,2345,2021,1
922.0,1865,2358,2019,1
923.0,1869,2363,2018,1
924.0,1887,2349,2021,1
925.0,1891,2355,2012,1
926.0,1889,2368,2012,1
927.0,1898,2377,2020,1
928.0,1895,2367,2019,1
929.0,1895,2344,2016,1
930.0,1887,2349,2013,1
931.0,1884,2344,2009,1
932.0,1892,2344,2011,1
933.0,1898,2349,2001,1
934.0,1899,2344,2005,1
935.0,1897,2349,2001,1
936.0,1889,2361,2004,1
937.0,1895,2355,2007,1
938.0,1900,2362,2006,1
939.0,1900,2361,2005,1
940.0,1900,2363,1999,1
941.0,1898,2363,1997,1
942.0,1897,2364,1988,1
943.0,1897,2367,1993,1
944.0,1898,2359,2007,1
945.0,1892,2361,2016,1
946.0,1901,2356,2019,1
947.0,1907,2351,2011,1
948.0,1916,2339,2012,1
949.0,1920,2351,2009,1
950.0,1912,2348,2004,1
951.0,1902,2347,2010,1
952.0,1895,2345,2015,1
953.0,1909,2352,2009,1
954.0,1905,2355,2008,1
955.0,1906,2361,2005,1
956.0,1911,2364,2011,1
957.0,1904,2362,2004,1
958.0,1893,2356,2002,1
959.0,1889,2358,1997,1
960.0,1894,2353,1999,1
961.0,1887,2356,1998,1
962.0,1885,2357,2002,1
963.0,1889,2351,2003,1
964.0,1891,2359,2001,1
965.0,1898,2371,1999,1
966.0,1924,2375,1995,1
967.0,1925,2368,2010,1
968.0,1914,2350,2020,1
969.0,1907,2341,2023,1
970.0,1902,2324,2022,1
971.0,1893,2326,2007,1
972.0,1893,2335,2005,1
973.0,1891,2344,2007,1
974.0,1904,2361,2011,1
975.0,1913,2355,2016,1
976.0,1910,2353,2015,1
977.0,1905,2357,2028,1
978.0,1908,2357,2027,1
979.0,1912,2355,2027,1
980.0,1902,2353,2038,1
981.0,1904,2358,2029,1
982.0,1904,2359,2026,1
983.0,1907,2361,2021,1
984.0,1905,2359,2022,1
985.0,1916,2362,2028,1
986.0,1915,2363,2026,1
987.0,1921,2356,2026,1
988.0,1931,2359,2024,1
989.0,1925,2355,2030,1
990.0,1925,2354,2026,1
991.0,1920,2353,2028,1
992.0,1920,2352,2025,1
993.0,1919,2353,2031,1
994.0,1916,2352,2026,1
995.0,1911,2353,2025,1
996.0,1912,2357,2029,1
997.0,1920,2353,2030,1
998.0,1920,2356,2036,1
999.0,1929,2356,2030,1
1000.0,1918,2363,2031,1
1001.0,1918,2359,2033,1
1002.0,1911,2353,2034,1
1003.0,1917,2359,2031,1
1004.0,1917,2356,2027,1
1005.0,1911,2353,2023,1
1006.0,1909,2355,2024,1
1007.0,1907,2360,2028,1
1008.0,1913,2360,2035,1
1009.0,1919,2353,2033,1
1010.0,1913,2362,2021,1
1011.0,1911,2357,2023,1
1012.0,1909,2358,2026,1
1013.0,1898,2358,2033,1
1014.0,1913,2353,2027,1
1015.0,1915,2350,2028,1
1016.0,1905,2354,2011,1
1017.0,1913,2350,2026,1
1018.0,1906,2348,2026,1
1019.0,1907,2354,2040,1
1020.0,1900,2359,2020,1
1021.0,1900,2360,2018,1
1022.0,1899,2361,2017,1
1023.0,1896,2361,2016,1
1024.0,1897,2360,2019,1
1025.0,1898,2360,2023,1
1026.0,1901,2358,2025,1
1027.0,1905,2356,2016,1
1028.0,1899,2357,2010,1
1029.0,1895,2353,2018,1
1030.0,1895,2353,2022,1
1031.0,1889,2350,2018,1
1032.0,1894,2350,2021,1
1033.0,1892,2360,2013,1
1034.0,1891,2358,2016,1
1035.0,1894,2353,2017,1
1036.0,1891,2354,2014,1
1037.0,1887,2351,2014,1
1038.0,1892,2353,2015,1
1039.0,1890,2346,2027,1
1040.0,1897,2351,2018,1
1041.0,1887,2351,2021,1
1042.0,1887,2361,2016,1
1043.0,1893,2364,2013,1
1044.0,1897,2358,2025,1
1045.0,1887,2349,2024,1
1046.0,1881,2352,2018,1
1047.0,1890,2357,2027,1
1048.0,1889,2354,2026,1
1049.0,1887,2359,2027,1
1050.0,1883,2352,2019,1
1051.0,1892,2351,2025,1
1052.0,1901,2349,2014,1
1053.0,1896,2343,2008,1
1054.0,1897,2338,2005,1
1055.0,1889,2334,2003,1
1056.0,1896,2327,1994,1
1057.0,1893,2328,1990,1
1058.0,1897,2337,1992,1
1059.0,1902,2338,1985,1
1060.0,1892,2352,1983,1
1061.0,1899,2372,1995,1
1062.0,1906,2383,1995,1
1063.0,1930,2374,2010,1
1064.0,1924,2350,2030,1
1065.0,1914,2330,2057,1
1066.0,1885,2335,2048,1
1067.0,1868,2343,2035,1
1068.0,1878,2351,2036,1
1069.0,1916,2358,2058,1
1070.0,1957,2364,2070,1
1071.0,1965,2374,2068,1
1072.0,1937,2377,2073,1
1073.0,1918,2361,2089,1
1074.0,1908,2350,2103,1
1075.0,1897,2349,2103,1
1076.0,1915,2361,2100,1
1077.0,1921,2360,2107,1
1078.0,1921,2347,2106,1
1079.0,1918,2338,2105,1
1080.0,1931,2334,2104,1
1081.0,1936,2337,2101,1
1082.0,1935,2335,2109,1
1083.0,1936,2346,2117,1
1084.0,1937,2346,2106,1
1085.0,1938,2349,2102,1
1086.0,1943,2342,2103,1
1087.0,1929,2345,2116,1
1088.0,1935,2340,2121,1
1089.0,1940,2342,2105,1
1090.0,1931,2342,2106,1
1091.0,1929,2350,2096,1
1092.0,1931,2348,2104,1
1093.0,1935,2346,2114,1
1094.0,1933,2340,2106,1
1095.0,1932,2349,2094,1
1096.0,1943,2346,2095,1
1097.0,1935,2340,2089,1
1098.0,1926,2346,2092,1
1099.0,1928,2351,2092,1
1100.0,1930,2359,2093,1
1101.0,1931,2353,2089,1
1102.0,1935,2359,2092,1
1103.0,1932,2349,2094,1
1104.0,1923,2349,2092,1
1105.0,1927,2351,2092,1
1106.0,1929,2355,2090,1
1107.0,1926,2349,2086,1
1108.0,1921,2350,2080,1
1109.0,1922,2348,2082,1
1110.0,1913,2353,2082,1
1111.0,1916,2350,2085,1
1112.0,1912,2345,2078,1
1113.0,1911,2351,2080,1
1114.0,1903,2350,2072,1
1115.0,1911,2353,2079,1
1116.0,1909,2351,2078,1
1117.0,1916,2356,2070,1
1118.0,1906,2358,2071,1
1119.0,1907,2354,2076,1
1120.0,1905,2346,2068,1
1121.0,1908,2353,2071,1
1122.0,1905,2359,2069,1
1123.0,1902,2360,2061,1
1124.0,1889,2358,2055,1
1125.0,1898,2365,2057,1
1126.0,1898,2362,2051,1
1127.0,1897,2357,2049,1
1128.0,1889,2357,2042,1
1129.0,1888,2364,2045,1
1130.0,1890,2361,2041,1
1131.0,1878,2353,2031,1
1132.0,1890,2355,2027,1
1133.0,1880,2355,2019,1
1134.0,1869,2347,2019,1
1135.0,1870,2353,2002,1
1136.0,1859,2345,1994,1
1137.0,1860,2346,1990,1
1138.0,1857,2347,1983,1
1139.0,1859,2339,1976,1
1140.0,1854,2336,1970,1
1141.0,1852,2344,1962,1
1142.0,1848,2337,1956,1
1143.0,1849,2330,1944,1
1144.0,1851,2338,1946,1
1145.0,1837,2337,1943,1
1146.0,1836,2331,1939,1
1147.0,1823,2333,1925,1
1148.0,1825,2324,1916,1
1149.0,1824,2323,1907,1
1150.0,1816,2321,1877,1
1151.0,1821,2316,1876,1
1152.0,1825,2299,1864,1
1153.0,1836,2277,1854,1
1154.0,1837,2254,1849,1
1155.0,1813,2266,1848,1
1156.0,1805,2286,1855,1
1157.0,1798,2302,1851,1
1158.0,1795,2307,1844,1
1159.0,1794,2306,1842,1
1160.0,1790,2305,1844,1
1161.0,1791,2300,1850,1
1162.0,1793,2299,1862,1
1163.0,1805,2303,1870,1
1164.0,1804,2312,1882,1
1165.0,1808,2314,1884,1
1166.0,1816,2318,1892,1
1167.0,1821,2323,1899,1
1168.0,1821,2331,1908,1
1169.0,1827,2335,1914,1
1170.0,1827,2331,1912,1
1171.0,1830,2336,1921,1
1172.0,1829,2338,1923,1
1173.0,1829,2344,1926,1
1174.0,1829,2340,1925,1
1175.0,1825,2333,1932,1
1176.0,1828,2333,1943,1
1177.0,1827,2334,1949,1
1178.0,1828,2338,1954,1
1179.0,1830,2340,1954,1
1180.0,1833,2336,1948,1
1181.0,1833,2337,1950,1
1182.0,1834,2347,1951,1
1183.0,1831,2347,1954,1
1184.0,1834,2340,1941,1
1185.0,1835,2345,1940,1
1186.0,1839,2341,1936,1
1187.0,1837,2342,1934,1
1188.0,1834,2346,1932,1
1189.0,1823,2341,1925,1
1190.0,1813,2334,1912,1
1191.0,1813,2332,1912,1
1192.0,1815,2331,1912,1
1193.0,1816,2331,1912,1
1194.0,1812,2331,1907,1
1195.0,1818,2325,1911,1
1196.0,1824,2329,1917,1
1197.0,1823,2338,1923,1
1198.0,1820,2333,1924,1
1199.0,1820,2338,1922,1
1200.0,1825,2331,1926,1
1201.0,1827,2326,1921,1
1202.0,1827,2327,1924,1
1203.0,1824,2331,1926,1
1204.0,1824,2328,1925,1
1205.0,1822,2330,1927,1
1206.0,1819,2328,1922,1
1207.0,1824,2333,1923,1
1208.0,1828,2331,1927,1
1209.0,1825,2332,1929,1
1210.0,1821,2334,1928,1
1211.0,1826,2331,1931,1
1212.0,1827,2334,1932,1
1213.0,1832,2335,1921,1
1214.0,1824,2332,1923,1
1215.0,1831,2337,1929,1
1216.0,1829,2329,1926,1
1217.0,1824,2332,1929,1
1218.0,1824,2337,1928,1
1219.0,1823,2329,1931,1
1220.0,1820,2329,1934,1
1221.0,1829,2329,1928,1
1222.0,1837,2323,1928,1
1223.0,1832,2336,1929,1
1224.0,1844,2336,1939,1
1225.0,1824,2337,1921,1
1226.0,1822,2329,1895,1
1227.0,1831,2327,1892,1
1228.0,1824,2324,1899,1
1229.0,1830,2325,1888,1
1230.0,1852,2309,1897,1
1231.0,1855,2293,1901,1
1232.0,1841,2291,1911,1
1233.0,1827,2313,1914,1
1234.0,1833,2335,1927,1
1235.0,1823,2355,1924,1
1236.0,1828,2359,1926,1
1237.0,1830,2359,1926,1
1238.0,1830,2359,1934,1
1239.0,1831,2345,1937,1
1240.0,1843,2333,1937,1
1241.0,1831,2322,1939,1
1242.0,1828,2331,1953,1
1243.0,1828,2347,1957,1
1244.0,1841,2348,1954,1
1245.0,1851,2344,1955,1
1246.0,1848,2344,1947,1
1247.0,1843,2339,1948,1
1248.0,1837,2339,1947,1
1249.0,1833,2340,1941,1
1250.0,1829,2339,1936,1
1251.0,1825,2329,1932,1
1252.0,1821,2330,1924,1
1253.0,1819,2335,1924,1
1254.0,1816,2334,1922,1
1255.0,1814,2331,1918,1
1256.0,1808,2336,1912,1
1257.0,1813,2331,1899,1
1258.0,1813,2330,1908,1
1259.0,1823,2325,1922,1
1260.0,1818,2337,1920,1
1261.0,1819,2337,1920,1
1262.0,1826,2334,1907,1
1263.0,1830,2335,1915,1
1264.0,1835,2325,1924,1
1265.0,1832,2325,1924,1
1266.0,1830,2327,1928,1
1267.0,1828,2315,1922,1
1268.0,1817,2318,1918,1
1269.0,1825,2324,1927,1
1270.0,1821,2335,1928,1
1271.0,1823,2342,1931,1
1272.0,1829,2345,1926,1
1273.0,1827,2358,1930,1
1274.0,1831,2362,1931,1
1275.0,1832,2354,1927,1
1276.0,1837,2350,1928,1
1277.0,1834,2351,1933,1
1278.0,1836,2357,1938,1
1279.0,1835,2361,1931,1
1280.0,1844,2360,1918,1
1281.0,1841,2341,1907,1
1282.0,1859,2327,1904,1
1283.0,1869,2336,1914,1
1284.0,1862,2359,1918,1
1285.0,1863,2373,1925,1
1286.0,1866,2390,1920,1
1287.0,1876,2386,1915,1
1288.0,1882,2383,1919,1
1289.0,1895,2386,1915,1
1290.0,1863,2378,1940,1
1291.0,1870,2360,1938,1
1292.0,1867,2350,1938,1
1293.0,1854,2347,1940,1
1294.0,1884,2367,1961,1
1295.0,1904,2371,1979,1
1296.0,1897,2365,1971,1
1297.0,1884,2352,1965,1
1298.0,1894,2338,1979,1
1299.0,1915,2339,2003,1
1300.0,1951,2331,1985,1
1301.0,1937,2312,1981,1
1302.0,1905,2319,1957,1
1303.0,1889,2333,1941,1
1304.0,1899,2347,1955,1
1305.0,1913,2335,1959,1
1306.0,1921,2321,1958,1
1307.0,1913,2326,1956,1
1308.0,1905,2331,1962,1
1309.0,1907,2317,1959,1
1310.0,1917,2309,1958,1
1311.0,1915,2313,1936,1
1312.0,1907,2322,1942,1
1313.0,1895,2325,1944,1
1314.0,1883,2333,1929,1
1315.0,1890,2350,1911,1
1316.0,1871,2363,1925,1
1317.0,1855,2370,1930,1
1318.0,1868,2369,1943,1
1319.0,1883,2356,1935,1
1320.0,1877,2356,1942,1
1321.0,1874,2350,1942,1
1322.0,1871,2345,1946,1
1323.0,1879,2345,1952,1
1324.0,1887,2347,1959,1
1325.0,1892,2348,1959,1
1326.0,1882,2351,1971,1
1327.0,1888,2345,1964,1
1328.0,1891,2344,1962,1
1329.0,1897,2344,1971,1
1330.0,1904,2339,1976,1
1331.0,1895,2351,1986,1
1332.0,1895,2354,1988,1
1333.0,1897,2355,1987,1
1334.0,1901,2353,1989,1
1335.0,1906,2357,1987,1
1336.0,1906,2355,1995,1
1337.0,1911,2358,1994,1
1338.0,1907,2359,2002,1
1339.0,1909,2357,2006,1
1340.0,1909,2359,2008,1
1341.0,1913,2358,2002,1
1342.0,1913,2359,2007,1
1343.0,1917,2359,2009,1
1344.0,1917,2361,2010,1
1345.0,1915,2359,2003,1
1346.0,1911,2355,2006,1
1347.0,1915,2355,1995,1
1348.0,1912,2354,2004,1
1349.0,1913,2358,1999,1
1350.0,1905,2360,1999,1
1351.0,1912,2354,1999,1
1352.0,1911,2358,1993,1
1353.0,1907,2353,1990,1
1354.0,1906,2357,1982,1
1355.0,1908,2346,1982,1
1356.0,1903,2349,1987,1
1357.0,1903,2346,1985,1
1358.0,1898,2347,1980,1
1359.0,1900,2348,1982,1
1360.0,1916,2332,1969,1
1361.0,1915,2331,1971,1
1362.0,1914,2334,1976,1
1363.0,1920,2327,1989,1
1364.0,1914,2329,1993,1
1365.0,1899,2333,1988,1
1366.0,1893,2332,1997,1
1367.0,1899,2341,1996,1
1368.0,1908,2351,1986,1
1369.0,1899,2351,1988,1
1370.0,1883,2345,1977,1
1371.0,1875,2345,1978,1
1372.0,1870,2360,1982,1
1373.0,1879,2382,1986,1
1374.0,1881,2397,1974,1
1375.0,1876,2386,1971,1
1376.0,1881,2375,1967,1
1377.0,1881,2361,1967,1
1378.0,1895,2355,1966,1
1379.0,1898,2352,1973,1
1380.0,1899,2344,1965,1
1381.0,1888,2343,1971,1
1382.0,1888,2337,1969,1
1383.0,1920,2311,1976,1
1384.0,1930,2316,1981,1
1385.0,1921,2339,2006,1
1386.0,1912,2364,2012,1
1387.0,1913,2375,2030,1
1388.0,1916,2388,2027,1
1389.0,1916,2377,2021,1
1390.0,1912,2364,2028,1
1391.0,1919,2355,2043,1
1392.0,1924,2362,2046,1
1393.0,1935,2360,2046,1
1394.0,1935,2371,2056,1
1395.0,1927,2375,2075,1
1396.0,1915,2365,2066,1
1397.0,1903,2351,2063,1
1398.0,1894,2346,2058,1
1399.0,1901,2339,2064,1
1400.0,1901,2337,2075,1
1401.0,1909,2338,2079,1
1402.0,1911,2337,2088,1
1403.0,1920,2347,2093,1
1404.0,1900,2358,2102,1
1405.0,1906,2369,2109,1
1406.0,1907,2376,2111,1
1407.0,1903,2369,2107,1
1408.0,1908,2360,2119,1
1409.0,1910,2357,2120,1
1410.0,1920,2353,2125,1
1411.0,1918,2361,2111,1
1412.0,1919,2363,2103,1
1413.0,1920,2362,2098,1
1414.0,1913,2347,2100,1
1415.0,1910,2327,2099,1
1416.0,1911,2324,2110,1
1417.0,1903,2321,2111,1
1418.0,1904,2325,2110,1
1419.0,1906,2331,2105,1
1420.0,1906,2338,2101,1
1421.0,1908,2344,2102,1
1422.0,1900,2353,2102,1
1423.0,1910,2346,2104,1
1424.0,1902,2349,2101,1
1425.0,1897,2346,2117,1
1426.0,1898,2354,2132,1
1427.0,1909,2358,2112,1
1428.0,1909,2354,2096,1
1429.0,1909,2359,2082,1
1430.0,1915,2351,2085,1
1431.0,1914,2333,2090,1
1432.0,1912,2324,2095,1
1433.0,1911,2324,2093,1
1434.0,1907,2328,2092,1
1435.0,1905,2340,2095,1
1436.0,1912,2346,2096,1
1437.0,1907,2366,2100,1
1438.0,1907,2378,2095,1
1439.0,1910,2373,2089,1
1440.0,1907,2362,2081,1
1441.0,1910,2355,2086,1
1442.0,1905,2339,2092,1
1443.0,1911,2314,2084,1
1444.0,1913,2298,2086,1
1445.0,1914,2300,2093,1
1446.0,1909,2320,2095,1
1447.0,1912,2337,2098,1
1448.0,1914,2358,2092,1
1449.0,1911,2362,2094,1
1450.0,1908,2381,2101,1
1451.0,1899,2383,2103,1
1452.0,1907,2369,2099,1
1453.0,1903,2343,2097,1
1454.0,1915,2330,2095,1
1455.0,1910,2321,2100,1
1456.0,1910,2325,2099,1
1457.0,1917,2339,2096,1
1458.0,1912,2338,2100,1
1459.0,1910,2353,2099,1
1460.0,1909,2363,2093,1
1461.0,1910,2362,2103,1
1462.0,1904,2353,2105,1
1463.0,1907,2339,2101,1
1464.0,1906,2325,2101,1
1465.0,1904,2326,2103,1
1466.0,1910,2326,2101,1
1467.0,1917,2329,2098,1
1468.0,1913,2342,2094,1
1469.0,1903,2358,2095,1
1470.0,1911,2356,2092,1
1471.0,1910,2367,2094,1
1472.0,1907,2358,2098,1
1473.0,1909,2352,2102,1
1474.0,1909,2336,2095,1
1475.0,1907,2334,2090,1
1476.0,1913,2331,2083,1
1477.0,1911,2338,2078,1
1478.0,1904,2339,2079,1
1479.0,1902,2345,2080,1
1480.0,1905,2357,2085,1
1481.0,1896,2360,2097,1
1482.0,1903,2356,2104,1
1483.0,1910,2351,2092,1
1484.0,1904,2343,2090,1
1485.0,1911,2338,2096,1
1486.0,1911,2343,2095,1
1487.0,1910,2339,2090,1
1488.0,1902,2335,2086,1
1489.0,1900,2339,2083,1
1490.0,1899,2341,2080,1
1491.0,1903,2340,2082,1
1492.0,1906,2343,2084,1
1493.0,1915,2348,2091,1
1494.0,1906,2356,2092,1
1495.0,1905,2359,2098,1
1496.0,1907,2351,2094,1
1497.0,1911,2344,2091,1
1498.0,1916,2345,2094,1
1499.0,1908,2347,2091,1
1500.0,1906,2350,2091,1
1501.0,1910,2352,2096,1
1502.0,1905,2352,2098,1
1503.0,1899,2341,2094,1
1504.0,1895,2346,2090,1
1505.0,1903,2351,2100,1
1506.0,1916,2352,2098,1
1507.0,1904,2332,2094,1
1508.0,1906,2328,2095,1
1509.0,1911,2330,2098,1
1510.0,1911,2338,2097,1
1511.0,1911,2337,2091,1
1512.0,1909,2341,2089,1
1513.0,1903,2353,2083,1
1514.0,1908,2363,2082,1
1515.0,1910,2363,2089,1
1516.0,1918,2359,2094,1
1517.0,1918,2354,2097,1
1518.0,1914,2359,2091,1
1519.0,1908,2355,2092,1
1520.0,1917,2363,2095,1
1521.0,1919,2361,2095,1
1522.0,1922,2358,2094,1
1523.0,1922,2347,2096,1
1524.0,1923,2332,2088,1
1525.0,1919,2325,2075,1
1526.0,1911,2338,2062,1
1527.0,1907,2347,2059,1
1528.0,1901,2357,2063,1
1529.0,1906,2349,2068,1
1530.0,1909,2344,2058,1
1531.0,1911,2344,2061,1
1532.0,1911,2344,2063,1
1533.0,1911,2345,2064,1
1534.0,1913,2345,2065,1
1535.0,1911,2346,2066,1
1536.0,1909,2344,2065,1
1537.0,1903,2343,2063,1
1538.0,1918,2343,2064,1
1539.0,1920,2347,2060,1
1540.0,1907,2350,2052,1
1541.0,1906,2346,2055,1
1542.0,1896,2354,2063,1
1543.0,1894,2350,2065,1
1544.0,1893,2343,2062,1
1545.0,1898,2343,2064,1
1546.0,1894,2340,2066,1
1547.0,1902,2345,2063,1
1548.0,1897,2352,2052,1
1549.0,1904,2355,2053,1
1550.0,1911,2359,2056,1
1551.0,1907,2357,2056,1
1552.0,1904,2359,2059,1
1553.0,1896,2359,2059,1
1554.0,1903,2363,2052,1
1555.0,1901,2359,2058,1
1556.0,1903,2356,2058,1
1557.0,1896,2357,2062,1
1558.0,1901,2358,2063,1
1559.0,1903,2347,2067,1
1560.0,1900,2343,2065,1
1561.0,1904,2340,2064,1
1562.0,1903,2343,2059,1
1563.0,1896,2333,2063,1
1564.0,1894,2344,2058,1
1565.0,1899,2354,2074,1
1566.0,1906,2345,2076,1
1567.0,1913,2354,2077,1
1568.0,1909,2355,2074,1
1569.0,1912,2354,2067,1
1570.0,1909,2351,2069,1
1571.0,1900,2349,2073,1
1572.0,1908,2351,2070,1
1573.0,1906,2349,2068,1
1574.0,1913,2349,2069,1
1575.0,1914,2352,2069,1
1576.0,1915,2359,2078,1
1577.0,1921,2352,2079,1
1578.0,1916,2352,2080,1
1579.0,1926,2351,2088,1
1580.0,1930,2354,2090,1
1581.0,1931,2354,2090,1
1582.0,1927,2352,2089,1
1583.0,1921,2351,2087,1
1584.0,1920,2345,2080,1
1585.0,1908,2349,2078,1
1586.0,1910,2348,2077,1
1587.0,1907,2348,2076,1
1588.0,1909,2345,2076,1
1589.0,1905,2343,2081,1
1590.0,1900,2346,2088,1
1591.0,1905,2351,2087,1
1592.0,1910,2347,2084,1
1593.0,1907,2341,2074,1
1594.0,1913,2349,2081,1
1595.0,1917,2363,2083,1
1596.0,1920,2369,2084,1
1597.0,1917,2357,2079,1
1598.0,1913,2344,2073,1
1599.0,1909,2336,2070,1
1600.0,1917,2345,2063,1
1601.0,1922,2341,2070,1
1602.0,1908,2350,2065,1
1603.0,1907,2343,2066,1
1604.0,1912,2332,2065,1
1605.0,1917,2342,2074,1
1606.0,1927,2357,2076,1
1607.0,1917,2364,2086,1
1608.0,1914,2363,2081,1
1609.0,1911,2356,2080,1
1610.0,1913,2343,2084,1
1611.0,1915,2345,2077,1
1612.0,1918,2340,2080,1
1613.0,1922,2345,2080,1
1614.0,1921,2352,2084,1
1615.0,1914,2355,2082,1
1616.0,1909,2359,2086,1
1617.0,1910,2351,2075,1
1618.0,1901,2343,2076,1
1619.0,1900,2339,2076,1
1620.0,1906,2345,2079,1
1621.0,1903,2355,2080,1
1622.0,1914,2354,2082,1
1623.0,1907,2352,2080,1
1624.0,1913,2351,2083,1
1625.0,1912,2350,2084,1
1626.0,1912,2349,2085,1
1627.0,1915,2344,2077,1
1628.0,1913,2344,2078,1
1629.0,1920,2345,2074,1
1630.0,1913,2355,2079,1
1631.0,1916,2354,2077,1
1632.0,1907,2355,2074,1
1633.0,1908,2355,2079,1
1634.0,1906,2350,2080,1
1635.0,1906,2352,2085,1
1636.0,1917,2355,2083,1
1637.0,1911,2338,2080,1
1638.0,1915,2344,2083,1
1639.0,1910,2350,2092,1
1640.0,1917,2351,2091,1
1641.0,1920,2351,2091,1
1642.0,1914,2347,2091,1
1643.0,1910,2343,2087,1
1644.0,1907,2346,2084,1
1645.0,1909,2344,2080,1
1646.0,1911,2349,2075,1
1647.0,1908,2346,2076,1
1648.0,1904,2344,2074,1
1649.0,1904,2344,2072,1
1650.0,1903,2341,2076,1
1651.0,1904,2351,2076,1
1652.0,1907,2353,2074,1
1653.0,1906,2357,2082,1
1654.0,1900,2355,2083,1
1655.0,1905,2353,2079,1
1656.0,1910,2348,2077,1
1657.0,1911,2352,2084,1
1658.0,1903,2344,2081,1
1659.0,1905,2343,2080,1
1660.0,1907,2350,2079,1
1661.0,1908,2347,2079,1
1662.0,1913,2349,2082,1
1663.0,1918,2350,2080,1
1664.0,1911,2352,2074,1
1665.0,1908,2343,2071,1
1666.0,1901,2341,2073,1
1667.0,1911,2341,2072,1
1668.0,1907,2344,2067,1
1669.0,1910,2349,2065,1
1670.0,1898,2351,2069,1
1671.0,1897,2353,2076,1
1672.0,1905,2351,2070,1
1673.0,1911,2355,2067,1
1674.0,1909,2353,2072,1
1675.0,1903,2351,2079,1
1676.0,1905,2357,2075,1
1677.0,1907,2351,2080,1
1678.0,1904,2350,2080,1
1679.0,1908,2342,2078,1
1680.0,1907,2337,2081,1
1681.0,1907,2339,2079,1
1682.0,1901,2345,2081,1
1683.0,1906,2349,2076,1
1684.0,1904,2353,2082,1
1685.0,1901,2353,2077,1
1686.0,1902,2349,2083,1
1687.0,1905,2353,2089,1
1688.0,1906,2347,2078,1
1689.0,1913,2347,2076,1
1690.0,1905,2340,2075,1
1691.0,1900,2337,2076,1
1692.0,1903,2353,2078,1
1693.0,1909,2352,2086,1
1694.0,1913,2358,2086,1
1695.0,1906,2350,2088,1
1696.0,1901,2335,2085,1
1697.0,1904,2333,2085,1
1698.0,1907,2339,2095,1
1699.0,1903,2351,2093,1
1700.0,1904,2342,2092,1
1701.0,1902,2345,2095,1
1702.0,1902,2349,2095,1
1703.0,1901,2351,2095,1
1704.0,1899,2345,2093,1
1705.0,1910,2348,2099,1
1706.0,1909,2347,2093,1
1707.0,1910,2342,2084,1
1708.0,1909,2342,2095,1
1709.0,1901,2336,2094,1
1710.0,1908,2341,2091,1
1711.0,1905,2348,2090,1
1712.0,1911,2340,2098,1
1713.0,1905,2347,2093,1
1714.0,1902,2347,2095,1
1715.0,1905,2344,2095,1
1716.0,1907,2343,2093,1
1717.0,1903,2337,2094,1
1718.0,1897,2342,2095,1
1719.0,1909,2341,2090,1
1720.0,1903,2340,2094,1
1721.0,1894,2342,2095,1
1722.0,1901,2346,2096,1
1723.0,1901,2349,2098,1
1724.0,1904,2347,2101,1
1725.0,1905,2341,2099,1
1726.0,1907,2336,2094,1
1727.0,1901,2329,2093,1
1728.0,1904,2335,2093,1
1729.0,1908,2342,2100,1
1730.0,1898,2340,2092,1
1731.0,1902,2346,2096,1
1732.0,1909,2346,2098,1
1733.0,1902,2351,2102,1
1734.0,1906,2344,2102,1
1735.0,1904,2341,2104,1
1736.0,1899,2341,2099,1
1737.0,1908,2346,2095,1
1738.0,1904,2343,2098,1
1739.0,1909,2343,2094,1
1740.0,1907,2346,2095,1
1741.0,1903,2340,2093,1
1742.0,1906,2347,2097,1
1743.0,1897,2350,2100,1
1744.0,1903,2345,2101,1
1745.0,1903,2351,2100,1
1746.0,1907,2343,2098,1
1747.0,1905,2344,2100,1
1748.0,1905,2340,2100,1
1749.0,1907,2342,2100,1
1750.0,1902,2346,2099,1
1751.0,1905,2343,2095,1
1752.0,1903,2346,2097,1
1753.0,1901,2353,2094,1
1754.0,1894,2346,2101,1
1755.0,1909,2342,2099,1
1756.0,1901,2345,2098,1
1757.0,1903,2343,2095,1
1758.0,1901,2339,2102,1
1759.0,1911,2346,2098,1
1760.0,1901,2350,2095,1
1761.0,1902,2347,2097,1
1762.0,1901,2338,2102,1
1763.0,1910,2344,2097,1
1764.0,1904,2345,2104,1
1765.0,1906,2341,2095,1
1766.0,1905,2343,2098,1
1767.0,1906,2341,2103,1
1768.0,1905,2344,2097,1
1769.0,1901,2341,2097,1
1770.0,1902,2345,2094,1
1771.0,1904,2339,2098,1
1772.0,1902,2341,2099,1
1773.0,1909,2337,2091,1
1774.0,1907,2345,2097,1
1775.0,1907,2341,2100,1
1776.0,1904,2341,2093,1
1777.0,1900,2345,2098,1
1778.0,1902,2341,2102,1
1779.0,1903,2343,2099,1
1780.0,1904,2340,2099,1
1781.0,1903,2340,2098,1
1782.0,1897,2343,2100,1
1783.0,1903,2345,2093,1
1784.0,1904,2346,2102,1
1785.0,1900,2345,2107,1
1786.0,1903,2343,2106,1
1787.0,1910,2344,2101,1
1788.0,1903,2339,2104,1
1789.0,1899,2341,2101,1
1790.0,1898,2342,2100,1
1791.0,1906,2343,2093,1
1792.0,1902,2347,2100,1
1793.0,1904,2341,2094,1
1794.0,1907,2334,2098,1
1795.0,1905,2346,2099,1
1796.0,1898,2346,2105,1
1797.0,1902,2343,2098,1
1798.0,1904,2347,2093,1
1799.0,1905,2343,2098,1
1800.0,1903,2343,2099,1
1801.0,1898,2341,2097,1
1802.0,1900,2343,2097,1
1803.0,1902,2343,2103,1
1804.0,1907,2349,2103,1
1805.0,1903,2342,2101,1
1806.0,1903,2346,2102,1
1807.0,1910,2342,2102,1
1808.0,1904,2343,2101,1
1809.0,1900,2339,2104,1
1810.0,1901,2337,2100,1
1811.0,1907,2343,2099,1
1812.0,1901,2343,2094,1
1813.0,1903,2347,2101,1
1814.0,1901,2346,2097,1
1815.0,1901,2345,2104,1
1816.0,1899,2341,2100,1
1817.0,1903,2344,2101,1
1818.0,1904,2344,2102,1
1819.0,1903,2344,2104,1
1820.0,1907,2345,2100,1
1821.0,1909,2340,2102,1
1822.0,1898,2344,2095,1
1823.0,1902,2344,2102,1
1824.0,1899,2342,2100,1
1825.0,1899,2339,2103,1
1826.0,1906,2342,2096,1
1827.0,1902,2337,2101,1
1828.0,1905,2346,2102,1
1829.0,1898,2342,2098,1
1830.0,1903,2344,2103,1
1831.0,1903,2347,2102,1
1832.0,1905,2343,2103,1
1833.0,1909,2342,2103,1
1834.0,1903,2347,2099,1
1835.0,1906,2348,2103,1
1836.0,1900,2345,2098,1
1837.0,1909,2341,2096,1
1838.0,1909,2339,2103,1
1839.0,1905,2341,2102,1
1840.0,1904,2340,2107,1
1841.0,1905,2344,2100,1
1842.0,1909,2338,2103,1
1843.0,1904,2345,2101,1
1844.0,1901,2341,2102,1
1845.0,1902,2346,2100,1
1846.0,1897,2346,2099,1
1847.0,1904,2345,2099,1
1848.0,1902,2344,2101,1
1849.0,1906,2345,2104,1
1850.0,1910,2346,2102,1
1851.0,1905,2344,2099,1
1852.0,1902,2346,2102,1
1853.0,1905,2347,2104,1
1854.0,1901,2341,2108,1
1855.0,1907,2342,2097,1
1856.0,1906,2339,2107,1
1857.0,1910,2346,2111,1
1858.0,1904,2341,2107,1
1859.0,1909,2345,2104,1
1860.0,1902,2341,2108,1
1861.0,1909,2335,2099,1
1862.0,1919,2339,2095,1
1863.0,1915,2336,2097,1
1864.0,1911,2334,2093,1
1865.0,1914,2340,2102,1
1866.0,1899,2353,2103,1
1867.0,1891,2363,2102,1
1868.0,1891,2364,2108,1
1869.0,1885,2358,2105,1
1870.0,1895,2334,2099,1
1871.0,1897,2333,2100,1
1872.0,1907,2319,2097,1
1873.0,1905,2323,2100,1
1874.0,1895,2332,2102,1
1875.0,1894,2344,2095,1
1876.0,1898,2339,2094,1
1877.0,1901,2347,2093,1
1878.0,1902,2348,2102,1
1879.0,1911,2347,2099,1
1880.0,1903,2347,2100,1
1881.0,1907,2347,2099,1
1882.0,1907,2349,2094,1
1883.0,1904,2343,2091,1
1884.0,1911,2337,2095,1
1885.0,1907,2343,2099,1
1886.0,1915,2349,2095,1
1887.0,1903,2358,2098,1
1888.0,1909,2351,2099,1
1889.0,1903,2349,2097,1
1890.0,1915,2343,2097,1
1891.0,1914,2343,2098,1
1892.0,1917,2341,2096,1
1893.0,1906,2340,2096,1
1894.0,1901,2347,2097,1
1895.0,1906,2345,2093,1
1896.0,1906,2348,2093,1
1897.0,1900,2341,2098,1
1898.0,1909,2337,2096,1
1899.0,1908,2342,2097,1
1900.0,1905,2344,2095,1
1901.0,1909,2347,2093,1
1902.0,1903,2344,2096,1
1903.0,1904,2345,2096,1
1904.0,1901,2341,2097,1
1905.0,1905,2351,2096,1
1906.0,1905,2353,2094,1
1907.0,1907,2345,2094,1
1908.0,1904,2346,2094,1
1909.0,1905,2342,2094,1
1910.0,1902,2344,2095,1
1911.0,1905,2343,2100,1
1912.0,1897,2344,2094,1
1913.0,1907,2344,2098,1
1914.0,1906,2345,2101,1
1915.0,1905,2345,2099,1
1916.0,1902,2341,2097,1
1917.0,1903,2341,2096,1
1918.0,1907,2344,2102,1
1919.0,1906,2346,2096,1
1920.0,1907,2341,2095,1
1921.0,1905,2343,2097,1
1922.0,1904,2346,2101,1
1923.0,1901,2344,2095,1
1924.0,1911,2345,2097,1
1925.0,1908,2349,2096,1
1926.0,1915,2344,2098,1
1927.0,1908,2345,2098,1
1928.0,1911,2343,2097,1
1929.0,1903,2353,2092,1
1930.0,1899,2365,2092,1
1931.0,1891,2367,2095,1
1932.0,1891,2370,2095,1
1933.0,1890,2359,2082,1
1934.0,1900,2352,2084,1
1935.0,1892,2333,2080,1
1936.0,1896,2329,2092,1
1937.0,1890,2334,2089,1
1938.0,1921,2332,2099,1
1939.0,1923,2340,2095,1
1940.0,1912,2347,2085,1
1941.0,1913,2348,2081,1
1942.0,1908,2343,2080,1
1943.0,1916,2347,2075,1
1944.0,1910,2344,2071,1
1945.0,1911,2344,2072,1
1946.0,1912,2343,2073,1
1947.0,1914,2346,2063,1
1948.0,1912,2344,2064,1
1949.0,1908,2347,2063,1
1950.0,1911,2346,2061,1
1951.0,1903,2350,2056,1
1952.0,1905,2353,2056,1
1953.0,1908,2355,2058,1
1954.0,1907,2354,2055,1
1955.0,1912,2355,2056,1
1956.0,1918,2350,2054,1
1957.0,1920,2349,2060,1
1958.0,1919,2344,2063,1
1959.0,1914,2345,2065,1
1960.0,1911,2341,2063,1
1961.0,1907,2348,2061,1
1962.0,1907,2349,2071,1
1963.0,1909,2346,2062,1
1964.0,1911,2344,2062,1
1965.0,1901,2352,2064,1
1966.0,1898,2349,2068,1
1967.0,1905,2347,2071,1
1968.0,1911,2349,2063,1
1969.0,1901,2346,2065,1
1970.0,1899,2353,2065,1
1971.0,1899,2350,2067,1
1972.0,1904,2352,2069,1
1973.0,1907,2355,2066,1
1974.0,1909,2357,2067,1
1975.0,1901,2347,2066,1
1976.0,1905,2351,2072,1
1977.0,1895,2346,2066,1
1978.0,1895,2352,2066,1
1979.0,1899,2349,2060,1
1980.0,1902,2351,2064,1
1981.0,1905,2355,2060,1
1982.0,1907,2359,2067,1
1983.0,1906,2349,2067,1
1984.0,1907,2349,2071,1
1985.0,1912,2342,2058,1
1986.0,1913,2347,2057,1
1987.0,1913,2346,2063,1
1988.0,1911,2343,2061,1
1989.0,1907,2342,2046,1
1990.0,1903,2349,2050,1
1991.0,1900,2353,2055,1
1992.0,1906,2357,2057,1
1993.0,1909,2361,2062,1
1994.0,1908,2358,2066,1
1995.0,1916,2345,2066,1
1996.0,1907,2349,2067,1
1997.0,1901,2356,2051,1
1998.0,1896,2354,2062,1
1999.0,1900,2353,2060,1
2000.0,1895,2343,2049,1
2001.0,1887,2335,2043,1
2002.0,1893,2333,2053,1
2003.0,1888,2358,2070,1
2004.0,1898,2355,2077,1
2005.0,1900,2358,2065,1
2006.0,1905,2359,2068,1
2007.0,1899,2354,2072,1
2008.0,1907,2355,2069,1
2009.0,1903,2347,2067,1
2010.0,1905,2347,2061,1
2011.0,1896,2340,2066,1
2012.0,1895,2338,2063,1
2013.0,1896,2343,2067,1
2014.0,1901,2349,2069,1
2015.0,1903,2361,2068,1
2016.0,1904,2357,2063,1
2017.0,1907,2357,2067,1
2018.0,1906,2351,2070,1
2019.0,1903,2352,2065,1
2020.0,1911,2351,2066,1
2021.0,1900,2346,2067,1
2022.0,1901,2347,2068,1
2023.0,1900,2358,2070,1
2024.0,1905,2359,2071,1
2025.0,1896,2353,2065,1
2026.0,1897,2347,2068,1
2027.0,1897,2347,2067,1
2028.0,1905,2348,2061,1
2029.0,1907,2347,2065,1
2030.0,1905,2343,2067,1
2031.0,1901,2342,2071,1
2032.0,1898,2352,2071,1
2033.0,1908,2354,2070,1
2034.0,1901,2346,2070,1
2035.0,1895,2350,2074,1
2036.0,1899,2356,2072,1
2037.0,1902,2352,2069,1
2038.0,1904,2349,2076,1
2039.0,1899,2349,2075,1
2040.0,1910,2347,2068,1
2041.0,1909,2347,2070,1
2042.0,1906,2348,2071,1
2043.0,1903,2348,2074,1
2044.0,1905,2347,2076,1
2045.0,1904,2349,2075,1
2046.0,1906,2347,2074,1
2047.0,1911,2346,2073,1
2048.0,1898,2352,2067,1
2049.0,1898,2346,2062,1
2050.0,1901,2351,2068,1
2051.0,1895,2346,2065,1
2052.0,1897,2349,2075,1
2053.0,1898,2346,2066,1
2054.0,1905,2349,2069,1
2055.0,1908,2352,2074,1
2056.0,1905,2347,2075,1
2057.0,1901,2349,2071,1
2058.0,1907,2343,2072,1
2059.0,1904,2345,2065,1
2060.0,1906,2347,2069,1
2061.0,1900,2353,2070,1
2062.0,1903,2355,2069,1
2063.0,1904,2353,2072,1
2064.0,1900,2350,2073,1
2065.0,1903,2351,2068,1
2066.0,1895,2346,2076,1
2067.0,1902,2350,2071,1
2068.0,1895,2347,2070,1
2069.0,1903,2345,2066,1
2070.0,1899,2349,2067,1
2071.0,1901,2347,2070,1
2072.0,1898,2351,2072,1
2073.0,1895,2344,2071,1
2074.0,1908,2350,2067,1
2075.0,1903,2348,2070,1
2076.0,1900,2349,2071,1
2077.0,1897,2354,2068,1
2078.0,1900,2348,2075,1
2079.0,1892,2346,2071,1
2080.0,1898,2341,2073,1
2081.0,1896,2348,2074,1
2082.0,1898,2348,2076,1
2083.0,1901,2349,2071,1
2084.0,1899,2345,2072,1
2085.0,1904,2347,2071,1
2086.0,1901,2348,2068,1
2087.0,1895,2347,2071,1
2088.0,1903,2349,2071,1
2089.0,1905,2351,2072,1
2090.0,1902,2349,2067,1
2091.0,1900,2351,2068,1
2092.0,1901,2353,2069,1
2093.0,1909,2351,2074,1
2094.0,1909,2351,2075,1
2095.0,1903,2344,2075,1
2096.0,1905,2340,2075,1
2097.0,1904,2345,2076,1
2098.0,1903,2351,2079,1
2099.0,1901,2348,2070,1
2100.0,1901,2348,2070,1
2101.0,1892,2348,2070,1
2102.0,1898,2355,2072,1
2103.0,1895,2355,2070,1
2104.0,1894,2354,2067,1
2105.0,1901,2351,2073,1
2106.0,1901,2346,2075,1
2107.0,1899,2348,2073,1
2108.0,1900,2350,2075,1
2109.0,1899,2352,2078,1
2110.0,1897,2347,2074,1
2111.0,1901,2353,2076,1
2112.0,1899,2356,2071,1
2113.0,1897,2356,2070,1
2114.0,1902,2352,2076,1
2115.0,1901,2349,2071,1
2116.0,1897,2343,2079,1
2117.0,1896,2344,2072,1
2118.0,1891,2344,2069,1
2119.0,1899,2347,2071,1
2120.0,1899,2345,2074,1
2121.0,1898,2342,2073,1
2122.0,1903,2346,2071,1
2123.0,1901,2354,2071,1
2124.0,1904,2357,2071,1
2125.0,1904,2349,2070,1
2126.0,1902,2348,2060,1
2127.0,1903,2347,2070,1
2128.0,1905,2350,2070,1
2129.0,1906,2352,2066,1
2130.0,1909,2347,2063,1
2131.0,1904,2347,2065,1
2132.0,1902,2355,2061,1
2133.0,1903,2355,2063,1
2134.0,1901,2349,2059,1
2135.0,1900,2347,2063,1
2136.0,1906,2350,2062,1
2137.0,1905,2352,2062,1
2138.0,1902,2354,2064,1
2139.0,1902,2346,2061,1
2140.0,1904,2358,2072,1
2141.0,1904,2351,2060,1
2142.0,1905,2345,2062,1
2143.0,1898,2348,2062,1
2144.0,1900,2354,2064,1
2145.0,1902,2349,2064,1
2146.0,1905,2353,2070,1
2147.0,1902,2351,2064,1
2148.0,1903,2349,2069,1
2149.0,1901,2350,2065,1
2150.0,1899,2346,2067,1
2151.0,1897,2352,2070,1
2152.0,1903,2351,2069,1
2153.0,1895,2353,2068,1
2154.0,1903,2356,2069,1
2155.0,1901,2351,2068,1
2156.0,1904,2346,2070,1
2157.0,1902,2350,2064,1
2158.0,1899,2352,2073,1
2159.0,1896,2352,2072,1
2160.0,1891,2345,2074,1
2161.0,1889,2355,2075,1
2162.0,1894,2356,2073,1
2163.0,1903,2363,2069,1
2164.0,1908,2359,2068,1
2165.0,1907,2355,2065,1
2166.0,1909,2341,2073,1
2167.0,1906,2336,2070,1
2168.0,1909,2334,2077,1
2169.0,1903,2337,2065,1
2170.0,1903,2331,2057,1
2171.0,1910,2344,2054,1
2172.0,1900,2362,2064,1
2173.0,1895,2366,2074,1
2174.0,1896,2361,2073,1
2175.0,1884,2357,2079,1
2176.0,1886,2361,2082,1
2177.0,1886,2362,2080,1
2178.0,1891,2352,2079,1
2179.0,1907,2340,2078,1
2180.0,1917,2337,2074,1
2181.0,1920,2338,2077,1
2182.0,1916,2344,2074,1
2183.0,1906,2343,2072,1
2184.0,1893,2351,2068,1
2185.0,1885,2360,2071,1
2186.0,1890,2355,2076,1
2187.0,1884,2351,2075,1
2188.0,1881,2356,2074,1
2189.0,1890,2349,2073,1
2190.0,1900,2343,2072,1
2191.0,1903,2341,2074,1
2192.0,1901,2342,2068,1
2193.0,1906,2346,2069,1
2194.0,1894,2347,2077,1
2195.0,1893,2358,2079,1
2196.0,1890,2351,2080,1
2197.0,1887,2345,2072,1
2198.0,1885,2354,2072,1
2199.0,1887,2355,2078,1
2200.0,1900,2348,2080,1
2201.0,1906,2344,2078,1
2202.0,1905,2336,2073,1
2203.0,1900,2330,2070,1
2204.0,1900,2343,2080,1
2205.0,1893,2358,2071,1
2206.0,1893,2357,2081,1
2207.0,1888,2353,2079,1
2208.0,1894,2353,2078,1
2209.0,1893,2359,2078,1
2210.0,1887,2350,2078,1
2211.0,1888,2349,2075,1
2212.0,1888,2347,2076,1
2213.0,1887,2345,2078,1
2214.0,1888,2349,2076,1
2215.0,1897,2348,2078,1
2216.0,1898,2351,2076,1
2217.0,1900,2349,2073,1
2218.0,1901,2348,2077,1
2219.0,1898,2347,2084,1
2220.0,1902,2346,2083,1
2221.0,1897,2347,2079,1
2222.0,1897,2344,2081,1
2223.0,1895,2350,2077,1
2224.0,1895,2353,2085,1
2225.0,1897,2350,2083,1
2226.0,1896,2355,2082,1
2227.0,1897,2347,2084,1
2228.0,1892,2351,2077,1
2229.0,1895,2347,2081,1
2230.0,1900,2351,2075,1
2231.0,1896,2346,2080,1
2232.0,1897,2347,2073,1
2233.0,1903,2345,2077,1
2234.0,1901,2342,2084,1
2235.0,1892,2347,2082,1
2236.0,1901,2349,2083,1
2237.0,1896,2339,2079,1
2238.0,1899,2347,2077,1
2239.0,1891,2345,2079,1
2240.0,1899,2348,2080,1
2241.0,1891,2342,2082,1
2242.0,1897,2346,2079,1
2243.0,1899,2346,2084,1
2244.0,1900,2350,2082,1
2245.0,1905,2343,2085,1
2246.0,1902,2337,2085,1
2247.0,1903,2345,2079,1
2248.0,1901,2350,2083,1
2249.0,1902,2352,2080,1
2250.0,1905,2351,2083,1
2251.0,1891,2350,2075,1
2252.0,1889,2339,2069,1
2253.0,1887,2341,2059,1
2254.0,1876,2339,2067,1
2255.0,1871,2359,2079,1
2256.0,1878,2362,2096,1
2257.0,1903,2361,2101,1
2258.0,1920,2348,2099,1
2259.0,1928,2327,2093,1
2260.0,1912,2313,2090,1
2261.0,1901,2335,2083,1
2262.0,1902,2342,2074,1
2263.0,1894,2349,2069,1
2264.0,1897,2350,2063,1
2265.0,1895,2354,2063,1
2266.0,1890,2356,2062,1
2267.0,1897,2348,2077,1
2268.0,1901,2348,2091,1
2269.0,1899,2349,2087,1
2270.0,1897,2352,2092,1
2271.0,1898,2340,2079,1
2272.0,1898,2339,2082,1
2273.0,1895,2337,2083,1
2274.0,1899,2338,2080,1
2275.0,1895,2345,2075,1
2276.0,1891,2347,2076,1
2277.0,1891,2355,2073,1
2278.0,1897,2345,2077,1
2279.0,1895,2353,2081,1
2280.0,1904,2353,2087,1
2281.0,1903,2350,2093,1
2282.0,1900,2343,2087,1
2283.0,1905,2335,2089,1
2284.0,1901,2336,2079,1
2285.0,1900,2337,2079,1
2286.0,1898,2342,2083,1
2287.0,1894,2347,2078,1
2288.0,1893,2358,2073,1
2289.0,1891,2357,2067,1
2290.0,1896,2362,2078,1
2291.0,1898,2361,2084,1
2292.0,1904,2362,2088,1
2293.0,1905,2359,2082,1
2294.0,1900,2348,2087,1
2295.0,1900,2340,2086,1
2296.0,1900,2331,2089,1
2297.0,1903,2333,2092,1
2298.0,1896,2337,2087,1
2299.0,1897,2341,2085,1
2300.0,1887,2349,2082,1
2301.0,1889,2357,2077,1
2302.0,1886,2362,2088,1
2303.0,1899,2363,2079,1
2304.0,1911,2363,2087,1
2305.0,1908,2349,2083,1
2306.0,1904,2342,2089,1
2307.0,1905,2344,2083,1
2308.0,1895,2338,2090,1
2309.0,1902,2333,2090,1
2310.0,1899,2335,2085,1
2311.0,1895,2339,2086,1
2312.0,1889,2342,2079,1
2313.0,1882,2353,2084,1
2314.0,1883,2360,2080,1
2315.0,1896,2361,2091,1
2316.0,1902,2361,2088,1
2317.0,1909,2346,2075,1
2318.0,1912,2341,2083,1
2319.0,1910,2346,2082,1
2320.0,1912,2345,2087,1
2321.0,1905,2339,2090,1
2322.0,1904,2338,2084,1
2323.0,1890,2350,2080,1
2324.0,1884,2346,2079,1
2325.0,1882,2351,2080,1
2326.0,1887,2352,2088,1
2327.0,1889,2351,2089,1
2328.0,1896,2354,2090,1
2329.0,1905,2355,2086,1
2330.0,1900,2347,2075,1
2331.0,1905,2344,2079,1
2332.0,1906,2339,2081,1
2333.0,1906,2341,2080,1
2334.0,1900,2348,2075,1
2335.0,1897,2347,2075,1
2336.0,1888,2353,2074,1
2337.0,1883,2352,2083,1
2338.0,1888,2354,2087,1
2339.0,1895,2354,2090,1
2340.0,1895,2350,2085,1
2341.0,1899,2346,2082,1
2342.0,1901,2340,2081,1
2343.0,1900,2339,2078,1
2344.0,1902,2341,2066,1
2345.0,1901,2347,2077,1
2346.0,1896,2349,2074,1
2347.0,1890,2351,2071,1
2348.0,1883,2355,2067,1
2349.0,1887,2364,2082,1
2350.0,1892,2354,2078,1
2351.0,1899,2354,2074,1
2352.0,1895,2353,2068,1
2353.0,1894,2359,2069,1
2354.0,1892,2371,2072,1
2355.0,1886,2369,2062,1
2356.0,1887,2353,2057,1
2357.0,1881,2342,2056,1
2358.0,1889,2331,2057,1
2359.0,1895,2339,2060,1
2360.0,1902,2342,2058,1
2361.0,1907,2350,2059,1
2362.0,1899,2338,2052,1
2363.0,1894,2339,2046,1
2364.0,1895,2331,2049,1
2365.0,1891,2343,2038,1
2366.0,1888,2344,2036,1
2367.0,1892,2343,2034,1
2368.0,1885,2351,2021,1
2369.0,1886,2351,2024,1
2370.0,1877,2356,2013,1
2371.0,1883,2355,2009,1
2372.0,1875,2357,2021,1
2373.0,1883,2350,2022,1
2374.0,1883,2355,2019,1
2375.0,1889,2355,2023,1
2376.0,1891,2350,2023,1
2377.0,1895,2349,2011,1
2378.0,1899,2345,2018,1
2379.0,1897,2347,2022,1
2380.0,1885,2355,2015,1
2381.0,1880,2357,2016,1
2382.0,1884,2357,2016,1
2383.0,1877,2356,2022,1
2384.0,1887,2359,2026,1
2385.0,1898,2355,2026,1
2386.0,1893,2342,2031,1
2387.0,1883,2344,2028,1
2388.0,1884,2354,2032,1
2389.0,1889,2348,2040,1
2390.0,1890,2350,2031,1
2391.0,1895,2355,2035,1
2392.0,1883,2347,2034,1
2393.0,1875,2355,2034,1
2394.0,1878,2352,2034,1
2395.0,1881,2358,2040,1
2396.0,1885,2360,2044,1
2397.0,1891,2363,2053,1
2398.0,1890,2349,2051,1
2399.0,1895,2351,2042,1
2400.0,1888,2344,2039,1
2401.0,1891,2348,2046,1
2402.0,1887,2348,2051,1
2403.0,1892,2350,2051,1
2404.0,1893,2355,2047,1
2405.0,1892,2360,2058,1
2406.0,1895,2349,2062,1
2407.0,1894,2354,2069,1
2408.0,1904,2351,2062,1
2409.0,1906,2351,2068,1
2410.0,1905,2346,2066,1
2411.0,1893,2352,2059,1
2412.0,1893,2349,2063,1
2413.0,1888,2350,2058,1
2414.0,1897,2344,2060,1
2415.0,1896,2346,2053,1
2416.0,1890,2350,2059,1
2417.0,1893,2355,2060,1
2418.0,1885,2356,2060,1
2419.0,1895,2356,2065,1
2420.0,1899,2355,2062,1
2421.0,1899,2351,2063,1
2422.0,1901,2347,2057,1
2423.0,1898,2345,2058,1
2424.0,1895,2343,2054,1
2425.0,1896,2345,2060,1
2426.0,1897,2350,2059,1
2427.0,1894,2358,2052,1
2428.0,1896,2356,2056,1
2429.0,1890,2354,2055,1
2430.0,1897,2347,2052,1
2431.0,1896,2347,2060,1
2432.0,1897,2349,2072,1
2433.0,1900,2349,2074,1
2434.0,1891,2353,2061,1
2435.0,1896,2340,2057,1
2436.0,1896,2341,2056,1
2437.0,1891,2347,2065,1
2438.0,1895,2356,2068,1
2439.0,1897,2355,2064,1
2440.0,1901,2357,2067,1
2441.0,1899,2359,2065,1
2442.0,1893,2354,2062,1
2443.0,1895,2357,2065,1
2444.0,1891,2346,2067,1
2445.0,1895,2343,2062,1
2446.0,1899,2343,2066,1
2447.0,1894,2347,2068,1
2448.0,1902,2354,2065,1
2449.0,1900,2349,2070,1
2450.0,1900,2347,2071,1
2451.0,1889,2351,2072,1
2452.0,1895,2358,2072,1
2453.0,1890,2353,2066,1
2454.0,1887,2349,2062,1
2455.0,1893,2353,2067,1
2456.0,1892,2350,2072,1
2457.0,1897,2345,2074,1
2458.0,1896,2342,2065,1
2459.0,1901,2341,2071,1
2460.0,1897,2342,2071,1
2461.0,1894,2344,2069,1
2462.0,1898,2346,2073,1
2463.0,1896,2352,2074,1
2464.0,1893,2358,2086,1
2465.0,1893,2353,2075,1
2466.0,1895,2350,2069,1
2467.0,1893,2347,2063,1
2468.0,1900,2343,2062,1
2469.0,1896,2350,2067,1
2470.0,1896,2351,2070,1
2471.0,1891,2353,2069,1
2472.0,1891,2354,2063,1
2473.0,1889,2349,2065,1
2474.0,1902,2346,2067,1
2475.0,1900,2348,2067,1
2476.0,1894,2348,2070,1
2477.0,1897,2347,2061,1
2478.0,1896,2353,2066,1
2479.0,1888,2340,2063,1
2480.0,1887,2345,2071,1
2481.0,1897,2350,2072,1
2482.0,1889,2346,2076,1
2483.0,1898,2354,2065,1
2484.0,1903,2351,2059,1
2485.0,1895,2346,2063,1
2486.0,1896,2350,2069,1
2487.0,1895,2348,2061,1
2488.0,1900,2354,2069,1
2489.0,1902,2355,2059,1
2490.0,1900,2355,2065,1
2491.0,1900,2348,2063,1
2492.0,1897,2353,2067,1
2493.0,1894,2359,2057,1
2494.0,1900,2362,2059,1
2495.0,1908,2342,2064,1
2496.0,1897,2328,2064,1
2497.0,1899,2342,2063,1
2498.0,1899,2348,2061,1
2499.0,1902,2348,2058,1
2500.0,1898,2353,2068,1
2501.0,1893,2355,2064,1
2502.0,1912,2358,2065,1
2503.0,1901,2354,2066,1
2504.0,1905,2355,2059,1
2505.0,1905,2357,2063,1
2506.0,1904,2352,2058,1
2507.0,1904,2339,2057,1
2508.0,1891,2340,2058,1
2509.0,1893,2348,2054,1
2510.0,1895,2343,2051,1
2511.0,1891,2353,2059,1
2512.0,1890,2344,2047,1
2513.0,1894,2348,2055,1
2514.0,1889,2340,2054,1
2515.0,1887,2347,2060,1
2516.0,1890,2351,2052,1
2517.0,1891,2351,2052,1
2518.0,1888,2357,2053,1
2519.0,1890,2351,2058,1
2520.0,1886,2353,2053,1
2521.0,1879,2351,2062,1
2522.0,1884,2359,2062,1
2523.0,1887,2358,2065,1
2524.0,1885,2357,2064,1
2525.0,1884,2355,2068,1
2526.0,1895,2349,2069,1
2527.0,1892,2348,2070,1
2528.0,1893,2343,2079,1
2529.0,1894,2345,2072,1
2530.0,1897,2354,2071,1
2531.0,1894,2345,2070,1
2532.0,1891,2340,2079,1
2533.0,1891,2350,2070,1
2534.0,1896,2353,2074,1
2535.0,1893,2351,2070,1
2536.0,1901,2345,2074,1
2537.0,1893,2350,2067,1
2538.0,1898,2348,2066,1
2539.0,1898,2351,2066,1
2540.0,1897,2348,2061,1
2541.0,1890,2350,2063,1
2542.0,1891,2354,2060,1
2543.0,1894,2357,2063,1
2544.0,1896,2350,2062,1
2545.0,1897,2351,2067,1
2546.0,1901,2353,2066,1
2547.0,1905,2348,2065,1
2548.0,1914,2354,2064,1
2549.0,1912,2344,2064,1
2550.0,1886,2351,2064,1
2551.0,1889,2351,2066,1
2552.0,1892,2349,2064,1
2553.0,1894,2346,2062,1
2554.0,1896,2346,2063,1
2555.0,1895,2346,2063,1
2556.0,1895,2347,2061,1
2557.0,1909,2353,2061,1
2558.0,1906,2335,2070,1
2559.0,1903,2341,2070,1
2560.0,1906,2347,2081,1
2561.0,1903,2350,2072,1
2562.0,1914,2350,2071,1
2563.0,1912,2342,2075,1
2564.0,1913,2338,2079,1
2565.0,1911,2338,2081,1
2566.0,1904,2346,2086,1
2567.0,1902,2352,2088,1
2568.0,1911,2361,2095,1
2569.0,1922,2360,2104,1
2570.0,1925,2354,2104,1
2571.0,1934,2351,2109,1
2572.0,1934,2343,2111,1
2573.0,1930,2345,2106,1
2574.0,1932,2353,2102,1
2575.0,1928,2349,2101,1
2576.0,1928,2348,2091,1
2577.0,1924,2347,2088,1
2578.0,1914,2343,2089,1
2579.0,1920,2346,2082,1
2580.0,1925,2350,2087,1
2581.0,1921,2359,2084,1
2582.0,1910,2363,2082,1
2583.0,1926,2363,2076,1
2584.0,1930,2352,2080,1
2585.0,1929,2353,2064,1
2586.0,1923,2344,2069,1
2587.0,1918,2341,2068,1
2588.0,1908,2340,2064,1
2589.0,1902,2339,2065,1
2590.0,1905,2338,2063,1
2591.0,1905,2347,2064,1
2592.0,1899,2348,2064,1
2593.0,1901,2349,2066,1
2594.0,1903,2348,2054,1
2595.0,1908,2352,2055,1
2596.0,1913,2357,2054,1
2597.0,1908,2363,2051,1
2598.0,1902,2349,2050,1
2599.0,1893,2335,2045,1
2600.0,1895,2349,2053,1
2601.0,1899,2351,2052,1
2602.0,1896,2353,2045,1
2603.0,1891,2357,2040,1
2604.0,1896,2354,2042,1
2605.0,1899,2358,2049,1
2606.0,1899,2356,2048,1
2607.0,1905,2357,2049,1
2608.0,1896,2354,2049,1
2609.0,1898,2365,2049,1
2610.0,1901,2364,2050,1
2611.0,1908,2357,2041,1
2612.0,1904,2348,2046,1
2613.0,1902,2346,2050,1
2614.0,1904,2342,2057,1
2615.0,1895,2342,2056,1
2616.0,1897,2354,2049,1
2617.0,1895,2356,2043,1
2618.0,1905,2353,2050,1
2619.0,1897,2347,2058,1
2620.0,1902,2349,2059,1
2621.0,1899,2352,2059,1
2622.0,1906,2353,2058,1
2623.0,1905,2353,2066,1
2624.0,1904,2348,2061,1
2625.0,1903,2346,2063,1
2626.0,1898,2354,2066,1
2627.0,1914,2357,2070,1
2628.0,1911,2357,2070,1
2629.0,1917,2357,2073,1
2630.0,1917,2347,2067,1
2631.0,1913,2350,2065,1
2632.0,1915,2350,2064,1
2633.0,1910,2347,2073,1
2634.0,1910,2354,2070,1
2635.0,1912,2346,2061,1
2636.0,1911,2350,2063,1
2637.0,1908,2347,2063,1
2638.0,1911,2344,2064,1
2639.0,1912,2347,2071,1
2640.0,1914,2351,2062,1
2641.0,1907,2353,2066,1
2642.0,1910,2358,2069,1
2643.0,1915,2358,2077,1
2644.0,1915,2355,2069,1
2645.0,1915,2342,2066,1
2646.0,1911,2341,2064,1
2647.0,1911,2350,2069,1
2648.0,1909,2352,2069,1
2649.0,1910,2357,2069,1
2650.0,1907,2358,2070,1
2651.0,1904,2361,2067,1
2652.0,1908,2353,2062,1
2653.0,1910,2351,2071,1
2654.0,1902,2353,2068,1
2655.0,1900,2351,2067,1
2656.0,1903,2350,2069,1
2657.0,1896,2351,2061,1
2658.0,1899,2348,2063,1
2659.0,1899,2351,2054,1
2660.0,1899,2351,2054,1
2661.0,1905,2353,2058,1
2662.0,1899,2350,2055,1
2663.0,1905,2344,2058,1
2664.0,1901,2347,2061,1
2665.0,1904,2355,2061,1
2666.0,1910,2352,2052,1
2667.0,1911,2346,2051,1
2668.0,1899,2348,2054,1
2669.0,1905,2351,2051,1
2670.0,1894,2347,2056,1
2671.0,1887,2346,2053,1
2672.0,1888,2347,2053,1
2673.0,1892,2355,2058,1
2674.0,1900,2356,2058,1
2675.0,1903,2349,2054,1
2676.0,1910,2353,2064,1
2677.0,1906,2359,2064,1
2678.0,1908,2359,2054,1
2679.0,1902,2366,2058,1
2680.0,1901,2356,2053,1
2681.0,1903,2358,2046,1
2682.0,1899,2358,2042,1
2683.0,1892,2355,2041,1
2684.0,1887,2353,2045,1
2685.0,1894,2351,2040,1
2686.0,1891,2354,2038,1
2687.0,1894,2354,2037,1
2688.0,1891,2347,2041,1
2689.0,1894,2340,2042,1
2690.0,1893,2345,2041,1
2691.0,1891,2342,2042,1
2692.0,1896,2343,2048,1
2693.0,1897,2349,2044,1
2694.0,1896,2351,2043,1
2695.0,1899,2354,2039,1
2696.0,1904,2356,2038,1
2697.0,1905,2351,2052,1
2698.0,1897,2351,2045,1
2699.0,1895,2355,2044,1
2700.0,1890,2358,2044,1
2701.0,1887,2358,2038,1
2702.0,1886,2354,2044,1
2703.0,1893,2358,2047,1
2704.0,1897,2357,2048,1
2705.0,1894,2350,2050,1
2706.0,1899,2351,2045,1
2707.0,1903,2357,2047,1
2708.0,1900,2347,2042,1
2709.0,1893,2344,2044,1
2710.0,1885,2343,2054,1
2711.0,1887,2346,2051,1
2712.0,1887,2354,2044,1
2713.0,1900,2353,2046,1
2714.0,1890,2355,2051,1
2715.0,1888,2356,2054,1
2716.0,1893,2355,2048,1
2717.0,1900,2355,2051,1
2718.0,1890,2352,2048,1
2719.0,1893,2350,2048,1
2720.0,1890,2353,2061,1
2721.0,1888,2354,2060,1
2722.0,1888,2356,2059,1
2723.0,1890,2356,2058,1
2724.0,1892,2350,2052,1
2725.0,1891,2353,2055,1
2726.0,1890,2347,2055,1
2727.0,1890,2355,2052,1
2728.0,1886,2350,2050,1
2729.0,1890,2352,2055,1
2730.0,1895,2353,2054,1
2731.0,1895,2349,2054,1
2732.0,1889,2349,2051,1
2733.0,1892,2349,2052,1
2734.0,1895,2344,2062,1
2735.0,1887,2351,2053,1
2736.0,1889,2351,2062,1
2737.0,1894,2353,2055,1
2738.0,1895,2353,2052,1
2739.0,1892,2354,2058,1
2740.0,1891,2351,2051,1
2741.0,1885,2349,2053,1
2742.0,1887,2348,2051,1
2743.0,1889,2349,2048,1
2744.0,1886,2352,2055,1
2745.0,1893,2350,2052,1
2746.0,1892,2352,2054,1
2747.0,1886,2355,2049,1
2748.0,1887,2350,2055,1
2749.0,1890,2351,2055,1
2750.0,1887,2353,2055,1
2751.0,1890,2354,2051,1
2752.0,1883,2349,2055,1
2753.0,1889,2348,2058,1
2754.0,1889,2348,2051,1
2755.0,1894,2346,2056,1
2756.0,1888,2352,2052,1
2757.0,1885,2358,2055,1
2758.0,1888,2351,2054,1
2759.0,1888,2356,2054,1
2760.0,1889,2350,2060,1
2761.0,1891,2353,2058,1
2762.0,1889,2349,2054,1
2763.0,1887,2349,2050,1
2764.0,1894,2351,2056,1
2765.0,1884,2346,2048,1
2766.0,1891,2339,2048,1
2767.0,1887,2343,2048,1
2768.0,1886,2351,2051,1
2769.0,1889,2358,2052,1
2770.0,1887,2358,2055,1
2771.0,1890,2349,2055,1
2772.0,1894,2353,2056,1
2773.0,1894,2345,2057,1
2774.0,1893,2349,2056,1
2775.0,1886,2349,2055,1
2776.0,1887,2347,2051,1
2777.0,1887,2348,2051,1
2778.0,1889,2348,2058,1
2779.0,1893,2353,2052,1
2780.0,1893,2351,2055,1
2781.0,1885,2357,2051,1
2782.0,1882,2354,2056,1
2783.0,1891,2352,2051,1
2784.0,1891,2350,2051,1
2785.0,1891,2349,2053,1
2786.0,1887,2346,2056,1
2787.0,1885,2350,2049,1
2788.0,1888,2350,2049,1
2789.0,1886,2353,2056,1
2790.0,1884,2357,2053,1
2791.0,1893,2351,2055,1
2792.0,1891,2348,2054,1
2793.0,1891,2351,2055,1
2794.0,1888,2350,2054,1
2795.0,1893,2351,2054,1
2796.0,1892,2355,2049,1
2797.0,1890,2349,2060,1
2798.0,1885,2349,2062,1
2799.0,1891,2352,2059,1
2800.0,1883,2355,2055,1
2801.0,1887,2361,2048,1
2802.0,1898,2367,2049,1
2803.0,1899,2350,2047,1
2804.0,1899,2337,2052,1
2805.0,1893,2327,2051,1
2806.0,1890,2339,2052,1
2807.0,1887,2340,2039,1
2808.0,1884,2339,2028,1
2809.0,1880,2347,2038,1
2810.0,1874,2357,2049,1
2811.0,1879,2369,2058,1
2812.0,1893,2366,2061,1
2813.0,1887,2362,2057,1
2814.0,1891,2358,2063,1
2815.0,1889,2351,2063,1
2816.0,1887,2347,2063,1
2817.0,1894,2350,2063,1
2818.0,1896,2341,2056,1
2819.0,1892,2342,2058,1
2820.0,1893,2344,2059,1
2821.0,1892,2347,2055,1
2822.0,1895,2351,2042,1
2823.0,1890,2351,2041,1
2824.0,1887,2341,2043,1
2825.0,1885,2342,2037,1
2826.0,1876,2347,2047,1
2827.0,1883,2362,2052,1
2828.0,1894,2367,2055,1
2829.0,1894,2365,2055,1
2830.0,1891,2358,2056,1
2831.0,1894,2356,2069,1
2832.0,1892,2357,2062,1
2833.0,1894,2348,2066,1
2834.0,1894,2340,2063,1
2835.0,1898,2346,2058,1
2836.0,1889,2340,2059,1
2837.0,1886,2341,2052,1
2838.0,1891,2341,2050,1
2839.0,1878,2343,2047,1
2840.0,1890,2353,2048,1
2841.0,1892,2353,2051,1
2842.0,1892,2358,2056,1
2843.0,1897,2359,2060,1
2844.0,1897,2352,2062,1
2845.0,1899,2355,2060,1
2846.0,1894,2355,2063,1
2847.0,1886,2347,2060,1
2848.0,1895,2353,2054,1
2849.0,1895,2351,2055,1
2850.0,1887,2352,2050,1
2851.0,1892,2346,2046,1
2852.0,1888,2343,2048,1
2853.0,1885,2347,2049,1
2854.0,1888,2361,2054,1
2855.0,1887,2358,2051,1
2856.0,1894,2359,2058,1
2857.0,1899,2354,2065,1
2858.0,1899,2351,2061,1
2859.0,1900,2354,2064,1
2860.0,1888,2356,2063,1
2861.0,1893,2355,2059,1
2862.0,1898,2354,2061,1
2863.0,1891,2346,2054,1
2864.0,1894,2346,2054,1
2865.0,1895,2321,2040,1
2866.0,1887,2321,2033,1
2867.0,1868,2331,2025,1
2868.0,1865,2370,2043,1
2869.0,1888,2393,2053,1
2870.0,1892,2389,2061,1
2871.0,1898,2381,2071,1
2872.0,1908,2362,2080,1
2873.0,1904,2341,2074,1
2874.0,1893,2333,2061,1
2875.0,1893,2338,2060,1
2876.0,1890,2341,2052,1
2877.0,1883,2321,2037,1
2878.0,1887,2317,2034,1
2879.0,1877,2337,2038,1
2880.0,1872,2377,2055,1
2881.0,1891,2391,2063,1
2882.0,1898,2373,2068,1
2883.0,1906,2361,2068,1
2884.0,1906,2348,2071,1
2885.0,1900,2334,2068,1
2886.0,1891,2342,2064,1
2887.0,1888,2345,2053,1
2888.0,1892,2342,2049,1
2889.0,1893,2346,2053,1
2890.0,1889,2354,2064,1
2891.0,1889,2354,2061,1
2892.0,1895,2360,2065,1
2893.0,1890,2357,2064,1
2894.0,1896,2350,2060,1
2895.0,1896,2349,2061,1
2896.0,1896,2341,2062,1
2897.0,1895,2343,2059,1
2898.0,1894,2346,2059,1
2899.0,1891,2351,2058,1
2900.0,1894,2347,2053,1
2901.0,1886,2347,2054,1
2902.0,1882,2354,2047,1
2903.0,1888,2353,2058,1
2904.0,1892,2351,2052,1
2905.0,1894,2349,2053,1
2906.0,1891,2347,2050,1
2907.0,1892,2349,2052,1
2908.0,1891,2346,2050,1
2909.0,1900,2343,2047,1
2910.0,1893,2350,2047,1
2911.0,1891,2353,2053,1
2912.0,1891,2357,2052,1
2913.0,1889,2348,2051,1
2914.0,1891,2346,2054,1
2915.0,1891,2347,2052,1
2916.0,1889,2347,2053,1
2917.0,1890,2351,2057,1
2918.0,1888,2355,2056,1
2919.0,1896,2345,2057,1
2920.0,1889,2352,2052,1
2921.0,1893,2353,2053,1
2922.0,1886,2343,2052,1
2923.0,1891,2346,2061,1
2924.0,1889,2353,2058,1
2925.0,1889,2349,2067,1
2926.0,1891,2349,2054,1
2927.0,1894,2352,2058,1
2928.0,1887,2352,2058,1
2929.0,1888,2354,2053,1
2930.0,1893,2355,2051,1
2931.0,1888,2357,2054,1
2932.0,1885,2354,2053,1
2933.0,1885,2355,2051,1
2934.0,1888,2351,2051,1
2935.0,1885,2347,2059,1
2936.0,1892,2344,2063,1
2937.0,1890,2352,2063,1
2938.0,1887,2352,2059,1
2939.0,1891,2350,2054,1
2940.0,1885,2355,2053,1
2941.0,1886,2353,2051,1
2942.0,1889,2353,2052,1
2943.0,1891,2352,2055,1
2944.0,1888,2356,2043,1
2945.0,1891,2358,2047,1
2946.0,1884,2358,2049,1
2947.0,1886,2352,2052,1
2948.0,1885,2342,2061,1
2949.0,1891,2338,2061,1
2950.0,1891,2338,2049,1
2951.0,1887,2341,2047,1
2952.0,1883,2349,2045,1
2953.0,1889,2351,2047,1
2954.0,1888,2353,2048,1
2955.0,1887,2350,2047,1
2956.0,1889,2359,2042,1
2957.0,1887,2351,2047,1
2958.0,1884,2350,2050,1
2959.0,1890,2348,2053,1
2960.0,1883,2344,2054,1
2961.0,1892,2339,2061,1
2962.0,1888,2338,2052,1
2963.0,1886,2339,2053,1
2964.0,1887,2348,2049,1
2965.0,1890,2357,2056,1
2966.0,1891,2359,2064,1
2967.0,1888,2362,2057,1
2968.0,1894,2355,2053,1
2969.0,1893,2353,2050,1
2970.0,1891,2354,2060,1
2971.0,1888,2349,2059,1
2972.0,1888,2350,2065,1
2973.0,1889,2346,2071,1
2974.0,1889,2342,2065,1
2975.0,1891,2343,2064,1
2976.0,1891,2348,2059,1
2977.0,1891,2352,2057,1
2978.0,1895,2354,2063,1
2979.0,1891,2354,2061,1
2980.0,1897,2361,2067,1
2981.0,1900,2353,2063,1
2982.0,1891,2357,2055,1
2983.0,1894,2359,2051,1
2984.0,1894,2357,2055,1
2985.0,1893,2349,2063,1
2986.0,1885,2347,2064,1
2987.0,1891,2339,2066,1
2988.0,1896,2344,2068,1
2989.0,1892,2344,2063,1
2990.0,1891,2346,2062,1
2991.0,1894,2352,2060,1
2992.0,1897,2351,2065,1
2993.0,1903,2344,2067,1
2994.0,1900,2347,2060,1
2995.0,1898,2348,2064,1
2996.0,1895,2349,2061,1
2997.0,1894,2359,2060,1
2998.0,1893,2352,2062,1
2999.0,1895,2351,2059,1
3000.0,1893,2350,2064,1
3001.0,1890,2354,2064,1
3002.0,1892,2350,2064,1
3003.0,1895,2351,2064,1
3004.0,1891,2347,2062,1
3005.0,1889,2349,2059,1
3006.0,1894,2355,2058,1
3007.0,1890,2348,2058,1
3008.0,1893,2351,2065,1
3009.0,1897,2350,2068,1
3010.0,1892,2353,2065,1
3011.0,1891,2352,2066,1
3012.0,1895,2351,2069,1
3013.0,1897,2354,2066,1
3014.0,1896,2345,2064,1
3015.0,1892,2353,2060,1
3016.0,1897,2350,2064,1
3017.0,1894,2345,2062,1
3018.0,1890,2345,2065,1
3019.0,1891,2355,2062,1
3020.0,1891,2348,2058,1
3021.0,1897,2353,2062,1
3022.0,1894,2350,2062,1
3023.0,1895,2348,2061,1
3024.0,1890,2343,2059,1
3025.0,1891,2349,2062,1
3026.0,1893,2347,2059,1
3027.0,1889,2348,2057,1
3028.0,1893,2351,2062,1
3029.0,1890,2349,2061,1
3030.0,1890,2347,2063,1
3031.0,1888,2351,2062,1
3032.0,1891,2349,2057,1
3033.0,1886,2349,2058,1
3034.0,1891,2349,2064,1
3035.0,1892,2349,2063,1
3036.0,1885,2351,2064,1
3037.0,1891,2352,2058,1
3038.0,1891,2350,2054,1
3039.0,1890,2349,2062,1
3040.0,1885,2351,2066,1
3041.0,1882,2354,2068,1
3042.0,1895,2357,2064,1
3043.0,1899,2343,2068,1
3044.0,1893,2339,2069,1
3045.0,1894,2339,2066,1
3046.0,1897,2349,2065,1
3047.0,1889,2352,2061,1
3048.0,1890,2353,2057,1
3049.0,1894,2350,2062,1
3050.0,1897,2356,2061,1
3051.0,1894,2350,2064,1
3052.0,1896,2343,2059,1
3053.0,1893,2351,2057,1
3054.0,1890,2349,2051,1
3055.0,1888,2354,2056,1
3056.0,1885,2354,2055,1
3057.0,1885,2351,2051,1
3058.0,1887,2343,2055,1
3059.0,1884,2347,2057,1
3060.0,1885,2338,2059,1
3061.0,1885,2342,2060,1
3062.0,1885,2344,2060,1
3063.0,1883,2349,2060,1
3064.0,1881,2351,2060,1
3065.0,1880,2352,2060,1
3066.0,1879,2351,2061,1
3067.0,1883,2354,2062,1
3068.0,1883,2355,2061,1
3069.0,1886,2351,2063,1
3070.0,1883,2344,2066,1
3071.0,1895,2343,2064,1
3072.0,1886,2355,2057,1
3073.0,1894,2357,2060,1
3074.0,1892,2355,2055,1
3075.0,1888,2349,2059,1
3076.0,1885,2351,2051,1
3077.0,1891,2351,2057,1
3078.0,1884,2342,2058,1
3079.0,1879,2351,2055,1
3080.0,1882,2353,2060,1
3081.0,1884,2351,2050,1
3082.0,1881,2349,2055,1
3083.0,1883,2352,2059,1
3084.0,1884,2347,2062,1
3085.0,1890,2347,2061,1
3086.0,1887,2347,2064,1
3087.0,1892,2354,2063,1
3088.0,1894,2355,2057,1
3089.0,1891,2348,2061,1
3090.0,1897,2348,2058,1
3091.0,1888,2347,2059,1
3092.0,1887,2340,2052,1
3093.0,1881,2348,2053,1
3094.0,1880,2352,2059,1
3095.0,1880,2359,2059,1
3096.0,1889,2351,2061,1
3097.0,1887,2356,2057,1
3098.0,1887,2348,2057,1
3099.0,1884,2347,2061,1
3100.0,1886,2348,2052,1
3101.0,1885,2348,2050,1
3102.0,1887,2351,2058,1
3103.0,1890,2350,2058,1
3104.0,1891,2345,2056,1
3105.0,1890,2348,2053,1
3106.0,1884,2350,2060,1
3107.0,1885,2343,2054,1
3108.0,1879,2345,2053,1
3109.0,1884,2348,2050,1
3110.0,1885,2351,2061,1
3111.0,1891,2354,2054,1
3112.0,1888,2347,2060,1
3113.0,1885,2350,2054,1
3114.0,1892,2347,2051,1
3115.0,1885,2353,2054,1
3116.0,1884,2352,2058,1
3117.0,1893,2347,2054,1
3118.0,1886,2347,2057,1
3119.0,1876,2352,2055,1
3120.0,1887,2350,2057,1
3121.0,1890,2350,2056,1
3122.0,1887,2350,2055,1
3123.0,1884,2349,2055,1
3124.0,1886,2351,2059,1
3125.0,1884,2357,2055,1
3126.0,1879,2344,2062,1
3127.0,1885,2348,2052,1
3128.0,1881,2353,2048,1
3129.0,1887,2351,2052,1
3130.0,1890,2356,2051,1
3131.0,1882,2354,2054,1
3132.0,1883,2347,2055,1
3133.0,1885,2352,2052,1
3134.0,1886,2349,2052,1
3135.0,1893,2351,2054,1
3136.0,1883,2348,2051,1
3137.0,1886,2349,2057,1
3138.0,1883,2348,2056,1
3139.0,1883,2351,2061,1
3140.0,1884,2353,2055,1
3141.0,1893,2353,2054,1
3142.0,1894,2352,2058,1
3143.0,1884,2354,2055,1
3144.0,1888,2356,2057,1
3145.0,1885,2345,2054,1
3146.0,1884,2348,2059,1
3147.0,1885,2357,2058,1
3148.0,1884,2355,2063,1
3149.0,1886,2355,2056,1
3150.0,1886,2354,2049,1
3151.0,1884,2351,2045,1
3152.0,1884,2352,2048,1
3153.0,1888,2354,2053,1
3154.0,1893,2346,2057,1
3155.0,1888,2355,2057,1
3156.0,1888,2353,2058,1
3157.0,1897,2355,2063,1
3158.0,1896,2340,2059,1
3159.0,1889,2344,2050,1
3160.0,1887,2350,2052,1
3161.0,1885,2355,2048,1
3162.0,1884,2347,2047,1
3163.0,1888,2340,2045,1
3164.0,1881,2335,2037,1
3165.0,1873,2333,2030,1
3166.0,1873,2342,2035,1
3167.0,1873,2354,2046,1
3168.0,1880,2365,2053,1
3169.0,1888,2368,2052,1
3170.0,1888,2372,2061,1
3171.0,1884,2370,2056,1
3172.0,1894,2367,2065,1
3173.0,1891,2355,2060,1
3174.0,1897,2340,2056,1
3175.0,1893,2328,2057,1
3176.0,1888,2335,2057,1
3177.0,1888,2337,2054,1
3178.0,1883,2345,2051,1
3179.0,1887,2343,2045,1
3180.0,1881,2345,2035,1
3181.0,1873,2351,2039,1
3182.0,1872,2362,2050,1
3183.0,1879,2367,2055,1
3184.0,1902,2362,2062,1
3185.0,1900,2354,2060,1
3186.0,1896,2358,2063,1
3187.0,1895,2356,2065,1
3188.0,1885,2356,2055,1
3189.0,1888,2351,2051,1
3190.0,1889,2352,2047,1
3191.0,1885,2347,2044,1
3192.0,1886,2344,2048,1
3193.0,1880,2338,2040,1
3194.0,1885,2353,2048,1
3195.0,1884,2353,2052,1
3196.0,1889,2353,2050,1
3197.0,1895,2349,2055,1
3198.0,1889,2348,2058,1
3199.0,1891,2353,2055,1
3200.0,1894,2355,2049,1
3201.0,1893,2350,2054,1
3202.0,1887,2343,2054,1
3203.0,1884,2341,2058,1
3204.0,1889,2347,2064,1
3205.0,1884,2356,2064,1
3206.0,1886,2353,2052,1
3207.0,1885,2358,2049,1
3208.0,1885,2355,2054,1
3209.0,1886,2349,2048,1
3210.0,1887,2351,2053,1
3211.0,1886,2345,2058,1
3212.0,1888,2356,2054,1
3213.0,1883,2357,2056,1
3214.0,1893,2351,2047,1
3215.0,1888,2351,2050,1
3216.0,1894,2358,2054,1
3217.0,1887,2354,2054,1
3218.0,1891,2349,2054,1
3219.0,1882,2345,2056,1
3220.0,1883,2347,2060,1
3221.0,1888,2350,2056,1
3222.0,1877,2353,2055,1
3223.0,1884,2358,2052,1
3224.0,1884,2358,2049,1
3225.0,1881,2356,2054,1
3226.0,1890,2351,2047,1
3227.0,1886,2352,2058,1
3228.0,1878,2355,2054,1
3229.0,1876,2351,2053,1
3230.0,1906,2341,2047,1
3231.0,1903,2341,2047,1
3232.0,1902,2342,2046,1
3233.0,1898,2341,2046,1
3234.0,1899,2334,2049,1
3235.0,1898,2321,2041,1
3236.0,1891,2330,2045,1
3237.0,1879,2347,2046,1
3238.0,1887,2366,2048,1
3239.0,1883,2368,2054,1
3240.0,1892,2368,2063,1
3241.0,1898,2355,2063,1
3242.0,1890,2357,2064,1
3243.0,1887,2360,2058,1
3244.0,1889,2351,2047,1
3245.0,1889,2343,2041,1
3246.0,1894,2348,2061,1
3247.0,1899,2326,2038,1
3248.0,1887,2307,2017,1
3249.0,1880,2331,2030,1
3250.0,1869,2367,2049,1
3251.0,1882,2375,2050,1
3252.0,1884,2375,2052,1
3253.0,1890,2372,2056,1
3254.0,1893,2357,2056,1
3255.0,1886,2349,2047,1
3256.0,1885,2350,2046,1
3257.0,1885,2336,2037,1
3258.0,1879,2334,2025,1
3259.0,1871,2353,2033,1
3260.0,1873,2363,2041,1
3261.0,1885,2362,2042,1
3262.0,1882,2361,2055,1
3263.0,1888,2356,2049,1
3264.0,1880,2350,2050,1
3265.0,1880,2348,2046,1
3266.0,1882,2347,2046,1
3267.0,1888,2339,2042,1
3268.0,1885,2341,2037,1
3269.0,1885,2345,2046,1
3270.0,1884,2349,2050,1
3271.0,1882,2363,2050,1
3272.0,1892,2362,2050,1
3273.0,1880,2351,2054,1
3274.0,1885,2358,2052,1
3275.0,1881,2355,2055,1
3276.0,1889,2358,2052,1
3277.0,1881,2349,2046,1
3278.0,1891,2345,2048,1
3279.0,1879,2353,2045,1
3280.0,1886,2355,2044,1
3281.0,1886,2354,2047,1
3282.0,1887,2346,2042,1
3283.0,1890,2346,2049,1
3284.0,1887,2354,2053,1
3285.0,1881,2351,2055,1
3286.0,1890,2343,2043,1
3287.0,1890,2347,2044,1
3288.0,1885,2349,2048,1
3289.0,1889,2354,2043,1
3290.0,1886,2348,2048,1
3291.0,1882,2350,2049,1
3292.0,1888,2346,2047,1
3293.0,1891,2351,2049,1
3294.0,1887,2359,2044,1
3295.0,1889,2356,2052,1
3296.0,1886,2351,2045,1
3297.0,1893,2346,2049,1
3298.0,1886,2356,2046,1
3299.0,1888,2350,2050,1
3300.0,1885,2350,2047,1
3301.0,1891,2349,2048,1
3302.0,1885,2350,2046,1
3303.0,1880,2355,2041,1
3304.0,1883,2356,2045,1
3305.0,1881,2355,2046,1
3306.0,1880,2353,2048,1
3307.0,1882,2350,2052,1
3308.0,1884,2348,2051,1
3309.0,1887,2348,2050,1
3310.0,1885,2356,2049,1
3311.0,1884,2351,2050,1
3312.0,1881,2350,2049,1
3313.0,1885,2354,2051,1
3314.0,1885,2354,2051,1
3315.0,1881,2347,2054,1
3316.0,1890,2353,2057,1
3317.0,1888,2355,2053,1
3318.0,1887,2347,2056,1
3319.0,1884,2353,2050,1
3320.0,1889,2346,2053,1
3321.0,1889,2347,2050,1
3322.0,1888,2351,2060,1
3323.0,1880,2352,2062,1
3324.0,1886,2353,2055,1
3325.0,1888,2355,2056,1
3326.0,1888,2353,2051,1
3327.0,1885,2353,2061,1
3328.0,1888,2352,2055,1
3329.0,1886,2354,2053,1
3330.0,1895,2346,2050,1
3331.0,1888,2353,2056,1
3332.0,1882,2350,2054,1
3333.0,1888,2347,2061,1
3334.0,1886,2351,2056,1
3335.0,1885,2351,2060,1
3336.0,1885,2353,2059,1
3337.0,1887,2349,2056,1
3338.0,1889,2353,2053,1
3339.0,1888,2352,2052,1
3340.0,1889,2355,2055,1
3341.0,1887,2350,2060,1
3342.0,1884,2345,2051,1
3343.0,1885,2348,2059,1
3344.0,1885,2346,2062,1
3345.0,1888,2349,2055,1
3346.0,1884,2347,2058,1
3347.0,1887,2345,2060,1
3348.0,1886,2347,2063,1
3349.0,1899,2350,2062,1
3350.0,1900,2348,2058,1
3351.0,1895,2350,2058,1
3352.0,1890,2353,2055,1
3353.0,1885,2348,2047,1
3354.0,1883,2348,2052,1
3355.0,1880,2352,2056,1
3356.0,1881,2346,2055,1
3357.0,1886,2355,2054,1
3358.0,1884,2351,2058,1
3359.0,1888,2355,2058,1
3360.0,1890,2355,2054,1
3361.0,1887,2343,2057,1
3362.0,1883,2346,2054,1
3363.0,1881,2347,2058,1
3364.0,1885,2352,2056,1
3365.0,1890,2346,2064,1
3366.0,1890,2351,2061,1
3367.0,1886,2356,2069,1
3368.0,1890,2352,2068,1
3369.0,1889,2347,2062,1
3370.0,1888,2350,2055,1
3371.0,1877,2344,2059,1
3372.0,1886,2347,2059,1
3373.0,1888,2352,2063,1
3374.0,1891,2356,2061,1
3375.0,1892,2354,2056,1
3376.0,1885,2352,2061,1
3377.0,1893,2351,2060,1
3378.0,1889,2348,2063,1
3379.0,1889,2347,2060,1
3380.0,1888,2348,2057,1
3381.0,1883,2350,2057,1
3382.0,1887,2343,2063,1
3383.0,1891,2350,2064,1
3384.0,1889,2347,2059,1
3385.0,1883,2347,2061,1
3386.0,1880,2348,2061,1
3387.0,1878,2347,2059,1
3388.0,1882,2347,2057,1
3389.0,1889,2350,2059,1
3390.0,1892,2349,2059,1
3391.0,1889,2355,2059,1
3392.0,1888,2354,2055,1
3393.0,1886,2345,2063,1
3394.0,1891,2350,2055,1
3395.0,1895,2351,2061,1
3396.0,1894,2355,2060,1
3397.0,1889,2349,2061,1
3398.0,1893,2347,2062,1
3399.0,1893,2348,2060,1
3400.0,1883,2359,2053,1
3401.0,1879,2356,2053,1
3402.0,1882,2355,2054,1
3403.0,1883,2356,2058,1
3404.0,1883,2347,2058,1
3405.0,1878,2347,2059,1
3406.0,1885,2353,2063,1
3407.0,1880,2353,2056,1
3408.0,1879,2354,2067,1
3409.0,1886,2347,2058,1
3410.0,1880,2356,2058,1
3411.0,1885,2347,2061,1
3412.0,1883,2346,2064,1
3413.0,1880,2342,2061,1
3414.0,1885,2347,2063,1
3415.0,1881,2349,2055,1
3416.0,1885,2352,2056,1
3417.0,1889,2349,2059,1
3418.0,1884,2351,2060,1
3419.0,1888,2348,2057,1
3420.0,1885,2350,2061,1
3421.0,1884,2347,2060,1
3422.0,1890,2351,2060,1
3423.0,1890,2355,2057,1
3424.0,1891,2351,2060,1
3425.0,1888,2347,2060,1
3426.0,1886,2349,2056,1
3427.0,1887,2354,2057,1
3428.0,1887,2351,2053,1
3429.0,1885,2351,2055,1
3430.0,1885,2348,2054,1
3431.0,1875,2345,2063,1
3432.0,1886,2352,2059,1
3433.0,1876,2350,2054,1
3434.0,1880,2351,2058,1
3435.0,1877,2349,2061,1
3436.0,1883,2351,2057,1
3437.0,1884,2347,2062,1
3438.0,1884,2347,2061,1
3439.0,1879,2343,2054,1
3440.0,1879,2349,2062,1
3441.0,1876,2345,2062,1
3442.0,1880,2348,2058,1
3443.0,1886,2354,2057,1
3444.0,1883,2352,2055,1
3445.0,1881,2355,2053,1
3446.0,1887,2350,2060,1
3447.0,1887,2347,2058,1
3448.0,1889,2346,2062,1
3449.0,1884,2348,2058,1
3450.0,1883,2357,2054,1
3451.0,1881,2359,2057,1
3452.0,1885,2353,2059,1
3453.0,1884,2354,2057,1
3454.0,1883,2353,2062,1
3455.0,1885,2344,2057,1
3456.0,1880,2351,2059,1
3457.0,1883,2349,2058,1
3458.0,1881,2347,2059,1
3459.0,1885,2357,2054,1
3460.0,1886,2349,2058,1
3461.0,1876,2351,2055,1
3462.0,1882,2351,2062,1
3463.0,1889,2347,2059,1
3464.0,1885,2345,2063,1
3465.0,1880,2342,2058,1
3466.0,1885,2346,2057,1
3467.0,1888,2343,2055,1
3468.0,1887,2349,2054,1
3469.0,1888,2344,2055,1
3470.0,1880,2347,2062,1
3471.0,1885,2350,2059,1
3472.0,1885,2349,2055,1
3473.0,1888,2351,2055,1
3474.0,1887,2349,2058,1
3475.0,1886,2352,2060,1
3476.0,1886,2348,2058,1
3477.0,1885,2356,2056,1
3478.0,1880,2351,2060,1
3479.0,1880,2357,2061,1
3480.0,1884,2361,2059,1
3481.0,1882,2355,2051,1
3482.0,1886,2351,2056,1
3483.0,1885,2344,2064,1
3484.0,1884,2346,2066,1
3485.0,1880,2350,2061,1
3486.0,1883,2350,2057,1
3487.0,1886,2346,2063,1
3488.0,1889,2346,2066,1
3489.0,1881,2338,2059,1
3490.0,1883,2345,2058,1
3491.0,1874,2347,2057,1
3492.0,1884,2349,2051,1
3493.0,1885,2351,2054,1
3494.0,1885,2347,2053,1
3495.0,1892,2359,2051,1
3496.0,1889,2354,2047,1
3497.0,1895,2355,2060,1
3498.0,1888,2348,2055,1
3499.0,1884,2348,2053,1
3500.0,1885,2356,2046,1
3501.0,1884,2356,2051,1
3502.0,1889,2354,2058,1
3503.0,1887,2348,2061,1
3504.0,1890,2342,2060,1
3505.0,1890,2343,2057,1
3506.0,1881,2343,2052,1
3507.0,1887,2353,2058,1
3508.0,1876,2356,2056,1
3509.0,1884,2345,2054,1
3510.0,1886,2342,2054,1
3511.0,1883,2349,2056,1
3512.0,1882,2349,2058,1
3513.0,1880,2350,2059,1
3514.0,1880,2351,2056,1
3515.0,1879,2355,2058,1
3516.0,1887,2349,2050,1
3517.0,1881,2343,2051,1
3518.0,1885,2350,2053,1
3519.0,1880,2350,2045,1
3520.0,1883,2350,2054,1
3521.0,1886,2352,2052,1
3522.0,1886,2359,2054,1
3523.0,1884,2354,2055,1
3524.0,1884,2348,2056,1
3525.0,1888,2344,2063,1
3526.0,1887,2350,2056,1
3527.0,1890,2349,2055,1
3528.0,1889,2350,2048,1
3529.0,1887,2347,2058,1
3530.0,1893,2351,2056,1
3531.0,1886,2349,2051,1
3532.0,1888,2350,2053,1
3533.0,1888,2349,2055,1
3534.0,1888,2351,2058,1
3535.0,1886,2352,2058,1
3536.0,1881,2346,2051,1
3537.0,1884,2349,2055,1
3538.0,1883,2355,2052,1
3539.0,1884,2351,2057,1
3540.0,1885,2351,2056,1
3541.0,1895,2349,2059,1
3542.0,1890,2353,2055,1
3543.0,1891,2354,2061,1
3544.0,1888,2343,2056,1
3545.0,1887,2339,2049,1
3546.0,1889,2341,2047,1
3547.0,1891,2344,2050,1
3548.0,1882,2357,2053,1
3549.0,1885,2358,2057,1
3550.0,1887,2352,2057,1
3551.0,1885,2356,2055,1
3552.0,1884,2347,2059,1
3553.0,1888,2350,2055,1
3554.0,1891,2348,2051,1
3555.0,1889,2348,2052,1
3556.0,1888,2347,2054,1
3557.0,1886,2354,2056,1
3558.0,1885,2353,2057,1
3559.0,1879,2344,2058,1
3560.0,1879,2344,2055,1
3561.0,1888,2350,2050,1
3562.0,1889,2346,2056,1
3563.0,1885,2347,2050,1
3564.0,1890,2351,2059,1
3565.0,1880,2355,2055,1
3566.0,1889,2347,2060,1
3567.0,1887,2355,2060,1
3568.0,1889,2353,2055,1
3569.0,1892,2355,2052,1
3570.0,1896,2347,2058,1
3571.0,1896,2348,2056,1
3572.0,1892,2348,2051,1
3573.0,1892,2350,2052,1
3574.0,1892,2352,2054,1
3575.0,1891,2353,2056,1
3576.0,1889,2355,2059,1
3577.0,1891,2351,2045,1
3578.0,1884,2355,2051,1
3579.0,1888,2351,2059,1
3580.0,1885,2348,2055,1
3581.0,1886,2348,2052,1
3582.0,1884,2351,2049,1
3583.0,1887,2351,2055,1
3584.0,1887,2349,2053,1
3585.0,1886,2353,2053,1
3586.0,1890,2356,2052,1
3587.0,1888,2350,2050,1
3588.0,1886,2352,2047,1
3589.0,1891,2342,2051,1
3590.0,1892,2347,2049,1
3591.0,1887,2343,2060,1
3592.0,1890,2350,2059,1
3593.0,1884,2352,2052,1
3594.0,1884,2348,2059,1
3595.0,1877,2351,2058,1
3596.0,1880,2351,2056,1
3597.0,1879,2355,2060,1
3598.0,1885,2358,2055,1
3599.0,1884,2349,2048,1
3600.0,1887,2345,2059,1
3601.0,1888,2346,2058,1
3602.0,1892,2340,2053,1
3603.0,1891,2343,2050,1
3604.0,1891,2346,2055,1
3605.0,1886,2352,2053,1
3606.0,1895,2346,2058,1
3607.0,1882,2343,2055,1
3608.0,1881,2349,2055,1
3609.0,1884,2347,2054,1
3610.0,1887,2353,2051,1
3611.0,1885,2359,2053,1
3612.0,1887,2359,2057,1
3613.0,1892,2355,2047,1
3614.0,1897,2350,2047,1
3615.0,1887,2345,2049,1
3616.0,1893,2339,2045,1
3617.0,1887,2343,2046,1
3618.0,1881,2357,2052,1
3619.0,1885,2364,2049,1
3620.0,1886,2362,2053,1
3621.0,1893,2359,2052,1
3622.0,1896,2353,2051,1
3623.0,1890,2346,2049,1
3624.0,1892,2344,2050,1
3625.0,1891,2347,2055,1
3626.0,1893,2343,2047,1
3627.0,1891,2347,2046,1
3628.0,1891,2353,2047,1
3629.0,1887,2354,2053,1
3630.0,1893,2350,2050,1
3631.0,1890,2351,2052,1
3632.0,1892,2351,2051,1
3633.0,1891,2349,2055,1
3634.0,1879,2351,2060,1
3635.0,1880,2351,2054,1
3636.0,1888,2348,2056,1
3637.0,1881,2352,2055,1
3638.0,1880,2353,2053,1
3639.0,1883,2340,2057,1
3640.0,1884,2351,2055,1
3641.0,1890,2362,2051,1
3642.0,1889,2354,2054,1
3643.0,1886,2351,2061,1
3644.0,1883,2347,2057,1
3645.0,1890,2347,2053,1
3646.0,1883,2357,2053,1
3647.0,1884,2353,2049,1
3648.0,1889,2357,2056,1
3649.0,1892,2353,2057,1
3650.0,1891,2351,2052,1
3651.0,1898,2353,2054,1
3652.0,1891,2341,2053,1
3653.0,1886,2346,2060,1
3654.0,1882,2343,2060,1
3655.0,1890,2354,2055,1
3656.0,1885,2347,2055,1
3657.0,1895,2357,2056,1
3658.0,1891,2357,2053,1
3659.0,1893,2354,2053,1
3660.0,1878,2342,2059,1
3661.0,1883,2352,2060,1
3662.0,1888,2360,2057,1
3663.0,1892,2349,2060,1
3664.0,1890,2344,2056,1
3665.0,1877,2344,2059,1
3666.0,1883,2349,2058,1
3667.0,1880,2351,2055,1
3668.0,1888,2359,2060,1
3669.0,1891,2353,2058,1
3670.0,1893,2347,2059,1
3671.0,1901,2350,2056,1
3672.0,1891,2349,2056,1
3673.0,1890,2346,2056,1
3674.0,1894,2348,2057,1
3675.0,1889,2353,2059,1
3676.0,1889,2353,2055,1
3677.0,1886,2345,2055,1
3678.0,1893,2358,2057,1
3679.0,1886,2349,2054,1
3680.0,1898,2356,2060,1
3681.0,1890,2352,2059,1
3682.0,1891,2344,2060,1
3683.0,1887,2354,2059,1
3684.0,1885,2349,2058,1
3685.0,1883,2346,2055,1
3686.0,1883,2345,2052,1
3687.0,1885,2346,2055,1
3688.0,1887,2354,2057,1
3689.0,1881,2345,2057,1
3690.0,1879,2352,2050,1
3691.0,1882,2360,2053,1
3692.0,1889,2362,2058,1
3693.0,1889,2359,2066,1
3694.0,1893,2351,2064,1
3695.0,1895,2351,2060,1
3696.0,1893,2348,2055,1
3697.0,1893,2341,2059,1
3698.0,1891,2336,2058,1
3699.0,1890,2341,2046,1
3700.0,1894,2347,2051,1
3701.0,1888,2355,2052,1
3702.0,1887,2354,2048,1
3703.0,1888,2355,2043,1
3704.0,1878,2354,2041,1
3705.0,1885,2351,2045,1
3706.0,1889,2343,2047,1
3707.0,1886,2347,2049,1
3708.0,1888,2352,2049,1
3709.0,1884,2356,2046,1
3710.0,1881,2358,2048,1
3711.0,1888,2354,2039,1
3712.0,1883,2345,2045,1
3713.0,1883,2355,2047,1
3714.0,1888,2352,2049,1
3715.0,1887,2353,2051,1
3716.0,1890,2355,2061,1
3717.0,1897,2351,2062,1
3718.0,1890,2358,2060,1
3719.0,1886,2357,2061,1
3720.0,1891,2348,2062,1
3721.0,1889,2339,2054,1
3722.0,1888,2343,2059,1
3723.0,1891,2345,2064,1
3724.0,1893,2341,2063,1
3725.0,1893,2349,2062,1
3726.0,1896,2351,2057,1
3727.0,1889,2355,2057,1
3728.0,1889,2350,2049,1
3729.0,1893,2339,2049,1
3730.0,1887,2350,2052,1
3731.0,1887,2349,2053,1
3732.0,1892,2350,2052,1
3733.0,1886,2353,2049,1
3734.0,1881,2360,2058,1
3735.0,1893,2365,2052,1
3736.0,1891,2367,2053,1
3737.0,1886,2377,2059,1
3738.0,1883,2368,2065,1
3739.0,1882,2357,2067,1
3740.0,1878,2351,2041,1
3741.0,1880,2348,2042,1
3742.0,1881,2348,2046,1
3743.0,1881,2349,2048,1
3744.0,1883,2353,2044,1
3745.0,1882,2366,2051,1
3746.0,1885,2365,2049,1
3747.0,1890,2369,2059,1
3748.0,1887,2363,2066,1
3749.0,1877,2349,2070,1
3750.0,1877,2339,2063,1
3751.0,1882,2335,2053,1
3752.0,1877,2339,2048,1
3753.0,1885,2347,2057,1
3754.0,1888,2358,2057,1
3755.0,1889,2352,2051,1
3756.0,1887,2351,2059,1
3757.0,1893,2350,2055,1
3758.0,1894,2351,2048,1
3759.0,1896,2354,2054,1
3760.0,1889,2347,2057,1
3761.0,1882,2341,2058,1
3762.0,1878,2344,2068,1
3763.0,1880,2347,2063,1
3764.0,1884,2341,2056,1
3765.0,1879,2351,2057,1
3766.0,1877,2353,2056,1
3767.0,1893,2352,2067,1
3768.0,1887,2357,2060,1
3769.0,1894,2354,2062,1
3770.0,1900,2351,2059,1
3771.0,1896,2354,2053,1
3772.0,1883,2351,2055,1
3773.0,1879,2349,2060,1
3774.0,1883,2347,2070,1
3775.0,1881,2341,2063,1
3776.0,1884,2344,2056,1
3777.0,1881,2349,2055,1
3778.0,1876,2350,2060,1
3779.0,1889,2349,2058,1
3780.0,1890,2357,2065,1
3781.0,1895,2355,2062,1
3782.0,1892,2351,2055,1
3783.0,1891,2348,2048,1
3784.0,1890,2351,2055,1
3785.0,1887,2348,2063,1
3786.0,1889,2334,2070,1
3787.0,1892,2339,2068,1
3788.0,1891,2339,2058,1
3789.0,1880,2342,2059,1
3790.0,1878,2352,2053,1
3791.0,1878,2361,2057,1
3792.0,1884,2364,2060,1
3793.0,1887,2363,2066,1
3794.0,1895,2357,2057,1
3795.0,1897,2350,2054,1
3796.0,1890,2339,2056,1
3797.0,1888,2345,2059,1
3798.0,1884,2338,2062,1
3799.0,1894,2335,2061,1
3800.0,1891,2342,2062,1
3801.0,1882,2354,2060,1
3802.0,1878,2361,2057,1
3803.0,1879,2366,2060,1
3804.0,1889,2361,2059,1
3805.0,1894,2347,2048,1
3806.0,1894,2342,2044,1
3807.0,1897,2355,2049,1
3808.0,1896,2356,2055,1
3809.0,1890,2349,2057,1
3810.0,1899,2345,2059,1
3811.0,1892,2340,2058,1
3812.0,1892,2344,2066,1
3813.0,1891,2347,2057,1
3814.0,1887,2346,2054,1
3815.0,1895,2352,2055,1
3816.0,1888,2351,2057,1
3817.0,1884,2355,2054,1
3818.0,1893,2356,2050,1
3819.0,1894,2362,2049,1
3820.0,1898,2357,2054,1
3821.0,1896,2349,2045,1
3822.0,1894,2347,2053,1
3823.0,1894,2348,2054,1
3824.0,1890,2354,2056,1
3825.0,1885,2359,2053,1
3826.0,1885,2354,2043,1
3827.0,1891,2354,2046,1
3828.0,1885,2351,2040,1
3829.0,1890,2356,2046,1
3830.0,1893,2357,2036,1
3831.0,1885,2346,2037,1
3832.0,1885,2348,2033,1
3833.0,1888,2351,2037,1
3834.0,1891,2344,2036,1
3835.0,1890,2351,2028,1
3836.0,1887,2353,2026,1
3837.0,1878,2351,2029,1
3838.0,1885,2354,2032,1
3839.0,1884,2353,2029,1
3840.0,1880,2355,2029,1
3841.0,1882,2355,2018,1
3842.0,1887,2349,2023,1
3843.0,1883,2347,2023,1
3844.0,1885,2352,2023,1
3845.0,1886,2354,2024,1
3846.0,1894,2353,2019,1
3847.0,1893,2347,2019,1
3848.0,1886,2346,2015,1
3849.0,1891,2355,2018,1
3850.0,1891,2357,2023,1
3851.0,1888,2347,2015,1
3852.0,1890,2355,2012,1
3853.0,1885,2363,2010,1
3854.0,1885,2362,2013,1
3855.0,1894,2357,2013,1
3856.0,1889,2357,2017,1
3857.0,1901,2351,2018,1
3858.0,1900,2352,2023,1
3859.0,1894,2349,2015,1
3860.0,1891,2356,2020,1
3861.0,1894,2358,2009,1
3862.0,1889,2349,2008,1
3863.0,1887,2350,2010,1
3864.0,1888,2349,2009,1
3865.0,1882,2359,2006,1
3866.0,1888,2358,2007,1
3867.0,1881,2351,2014,1
3868.0,1878,2350,2013,1
3869.0,1884,2357,2013,1
3870.0,1890,2357,2011,1
3871.0,1893,2359,2019,1
3872.0,1889,2348,2019,1
3873.0,1884,2353,2021,1
3874.0,1883,2355,2022,1
3875.0,1884,2360,2009,1
3876.0,1881,2354,2012,1
3877.0,1871,2355,2011,1
3878.0,1871,2351,2013,1
3879.0,1881,2355,2010,1
3880.0,1884,2353,2013,1
3881.0,1885,2358,2010,1
3882.0,1876,2351,2015,1
3883.0,1886,2350,2015,1
3884.0,1887,2347,2021,1
3885.0,1885,2348,2019,1
3886.0,1879,2352,2018,1
3887.0,1884,2360,2017,1
3888.0,1887,2357,2018,1
3889.0,1881,2352,2014,1
3890.0,1884,2351,2018,1
3891.0,1881,2352,2020,1
3892.0,1885,2355,2015,1
3893.0,1885,2352,2017,1
3894.0,1891,2355,2017,1
3895.0,1889,2358,2021,1
3896.0,1886,2351,2014,1
3897.0,1883,2357,2017,1
3898.0,1878,2350,2019,1
3899.0,1881,2353,2019,1
3900.0,1883,2356,2010,1
3901.0,1886,2354,2018,1
3902.0,1889,2356,2019,1
3903.0,1885,2351,2020,1
3904.0,1890,2353,2021,1
3905.0,1884,2347,2022,1
3906.0,1879,2352,2017,1
3907.0,1885,2351,2024,1
3908.0,1883,2359,2013,1
3909.0,1884,2354,2019,1
3910.0,1879,2349,2021,1
3911.0,1881,2351,2023,1
3912.0,1887,2354,2017,1
3913.0,1884,2356,2019,1
3914.0,1885,2347,2017,1
3915.0,1882,2347,2014,1
3916.0,1883,2353,2021,1
3917.0,1884,2358,2018,1
3918.0,1885,2360,2021,1
3919.0,1883,2351,2019,1
3920.0,1879,2350,2017,1
3921.0,1884,2358,2019,1
3922.0,1885,2353,2020,1
3923.0,1883,2349,2020,1
3924.0,1885,2350,2023,1
3925.0,1876,2348,2021,1
3926.0,1885,2353,2021,1
3927.0,1876,2355,2026,1
3928.0,1885,2353,2021,1
3929.0,1883,2351,2021,1
3930.0,1888,2354,2019,1
3931.0,1887,2351,2018,1
3932.0,1886,2359,2016,1
3933.0,1885,2351,2020,1
3934.0,1885,2353,2023,1
3935.0,1885,2353,2027,1
3936.0,1883,2349,2017,1
3937.0,1891,2350,2022,1
3938.0,1889,2352,2018,1
3939.0,1890,2347,2020,1
3940.0,1887,2350,2029,1
3941.0,1885,2349,2024,1
3942.0,1881,2345,2019,1
3943.0,1880,2344,2017,1
3944.0,1879,2349,2017,1
3945.0,1891,2351,2019,1
3946.0,1887,2352,2020,1
3947.0,1888,2356,2027,1
3948.0,1881,2362,2029,1
3949.0,1883,2354,2024,1
3950.0,1883,2352,2029,1
3951.0,1876,2355,2027,1
3952.0,1873,2352,2027,1
3953.0,1873,2347,2030,1
3954.0,1878,2351,2031,1
3955.0,1883,2359,2027,1
3956.0,1878,2364,2031,1
3957.0,1882,2359,2032,1
3958.0,1877,2356,2042,1
3959.0,1884,2362,2038,1
3960.0,1886,2353,2042,1
3961.0,1885,2335,2039,1
3962.0,1884,2339,2039,1
3963.0,1882,2347,2040,1
3964.0,1877,2353,2037,1
3965.0,1881,2354,2037,1
3966.0,1892,2351,2029,1
3967.0,1889,2352,2039,1
3968.0,1891,2350,2043,1
3969.0,1884,2351,2039,1
3970.0,1891,2358,2034,1
3971.0,1894,2358,2038,1
3972.0,1889,2356,2038,1
3973.0,1893,2355,2041,1
3974.0,1884,2350,2040,1
3975.0,1887,2350,2040,1
3976.0,1890,2357,2039,1
3977.0,1894,2357,2035,1
3978.0,1891,2351,2039,1
3979.0,1893,2348,2041,1
3980.0,1884,2343,2041,1
3981.0,1887,2347,2034,1
3982.0,1891,2345,2038,1
3983.0,1888,2349,2042,1
3984.0,1886,2358,2040,1
3985.0,1885,2356,2040,1
3986.0,1885,2357,2042,1
3987.0,1882,2354,2037,1
3988.0,1888,2349,2039,1
3989.0,1886,2351,2043,1
3990.0,1886,2347,2039,1
3991.0,1888,2353,2036,1
3992.0,1886,2351,2041,1
3993.0,1885,2352,2037,1
3994.0,1879,2354,2039,1
3995.0,1889,2354,2035,1
3996.0,1883,2354,2037,1
3997.0,1888,2349,2040,1
3998.0,1882,2351,2038,1
3999.0,1883,2357,2041,1
4000.0,1882,2355,2036,1
4001.0,1881,2352,2043,1
4002.0,1885,2352,2048,1
4003.0,1885,2352,2040,1
4004.0,1884,2353,2039,1
4005.0,1884,2355,2038,1
4006.0,1888,2351,2037,1
4007.0,1887,2351,2039,1
4008.0,1883,2349,2038,1
4009.0,1889,2355,2036,1
4010.0,1877,2357,2045,1
4011.0,1882,2358,2038,1
4012.0,1882,2355,2040,1
4013.0,1887,2351,2040,1
4014.0,1879,2352,2037,1
4015.0,1886,2358,2037,1
4016.0,1890,2350,2043,1
4017.0,1885,2342,2037,1
4018.0,1885,2341,2033,1
4019.0,1889,2340,2031,1
4020.0,1887,2354,2034,1
4021.0,1897,2354,2036,1
4022.0,1898,2367,2039,1
4023.0,1901,2357,2042,1
4024.0,1897,2356,2041,1
4025.0,1896,2346,2039,1
4026.0,1897,2341,2030,1
4027.0,1896,2343,2027,1
4028.0,1889,2355,2017,1
4029.0,1881,2346,2031,1
4030.0,1882,2353,2025,1
4031.0,1881,2359,2034,1
4032.0,1883,2371,2036,1
4033.0,1885,2367,2038,1
4034.0,1883,2356,2033,1
4035.0,1884,2345,2039,1
4036.0,1884,2347,2040,1
4037.0,1883,2347,2036,1
4038.0,1876,2343,2037,1
4039.0,1879,2347,2031,1
4040.0,1875,2353,2034,1
4041.0,1870,2357,2033,1
4042.0,1872,2355,2034,1
4043.0,1863,2362,2030,1
4044.0,1867,2361,2036,1
4045.0,1874,2358,2035,1
4046.0,1884,2354,2038,1
4047.0,1889,2345,2036,1
4048.0,1894,2341,2032,1
4049.0,1889,2348,2027,1
4050.0,1888,2350,2025,1
4051.0,1880,2350,2029,1
4052.0,1880,2352,2025,1
4053.0,1876,2355,2022,1
4054.0,1879,2356,2021,1
4055.0,1883,2351,2025,1
4056.0,1885,2349,2023,1
4057.0,1885,2344,2029,1
4058.0,1888,2353,2031,1
4059.0,1890,2358,2034,1
4060.0,1888,2356,2037,1
4061.0,1884,2358,2036,1
4062.0,1885,2352,2034,1
4063.0,1883,2353,2039,1
4064.0,1883,2355,2034,1
4065.0,1886,2358,2036,1
4066.0,1888,2355,2039,1
4067.0,1892,2353,2037,1
4068.0,1890,2354,2029,1
4069.0,1893,2346,2034,1
4070.0,1887,2348,2036,1
4071.0,1879,2352,2031,1
4072.0,1888,2349,2031,1
4073.0,1889,2356,2029,1
4074.0,1883,2357,2029,1
4075.0,1893,2360,2033,1
4076.0,1890,2355,2038,1
4077.0,1885,2359,2039,1
4078.0,1890,2355,2039,1
4079.0,1884,2354,2038,1
4080.0,1865,2329,2034,1
4081.0,1868,2327,2035,1
4082.0,1871,2327,2037,1
4083.0,1873,2328,2037,1
4084.0,1878,2330,2035,1
4085.0,1878,2331,2033,1
4086.0,1874,2330,2032,1
4087.0,1889,2336,2033,1
4088.0,1895,2334,2035,1
4089.0,1903,2349,2034,1
4090.0,1898,2351,2018,1
4091.0,1876,2361,2006,1
4092.0,1862,2367,2000,1
4093.0,1858,2371,1966,1
4094.0,1861,2373,1961,1
4095.0,1863,2361,1972,1
4096.0,1877,2354,1980,1
4097.0,1882,2348,1981,1
4098.0,1875,2339,1971,1
4099.0,1873,2339,1978,1
4100.0,1877,2341,1975,1
4101.0,1869,2344,1966,1
4102.0,1863,2343,1953,1
4103.0,1852,2345,1950,1
4104.0,1846,2358,1942,1
4105.0,1840,2369,1930,1
4106.0,1851,2358,1927,1
4107.0,1847,2358,1914,1
4108.0,1873,2359,1905,1
4109.0,1848,2338,1901,1
4110.0,1859,2327,1908,1
4111.0,1857,2317,1907,1
4112.0,1863,2320,1908,1
4113.0,1860,2321,1899,1
4114.0,1857,2317,1902,1
4115.0,1856,2322,1892,1
4116.0,1851,2323,1884,1
4117.0,1852,2322,1884,1
4118.0,1849,2325,1882,1
4119.0,1843,2330,1880,1
4120.0,1852,2319,1884,1
4121.0,1846,2316,1880,1
4122.0,1847,2319,1881,1
4123.0,1842,2318,1877,1
4124.0,1848,2316,1880,1
4125.0,1843,2319,1883,1
4126.0,1847,2321,1884,1
4127.0,1851,2318,1888,1
4128.0,1845,2321,1887,1
4129.0,1848,2319,1893,1
4130.0,1847,2324,1897,1
4131.0,1851,2323,1895,1
4132.0,1853,2327,1898,1
4133.0,1852,2331,1897,1
4134.0,1858,2331,1900,1
4135.0,1846,2332,1903,1
4136.0,1846,2345,1902,1
4137.0,1852,2337,1901,1
4138.0,1853,2339,1903,1
4139.0,1857,2338,1908,1
4140.0,1862,2342,1911,1
4141.0,1864,2333,1912,1
4142.0,1865,2340,1917,1
4143.0,1861,2340,1913,1
4144.0,1860,2333,1910,1
4145.0,1852,2340,1909,1
4146.0,1848,2343,1904,1
4147.0,1853,2339,1908,1
4148.0,1858,2347,1894,1
4149.0,1862,2347,1900,1
4150.0,1861,2345,1904,1
4151.0,1856,2347,1903,1
4152.0,1856,2345,1902,1
4153.0,1863,2339,1909,1
4154.0,1864,2334,1911,1
4155.0,1863,2327,1909,1
4156.0,1856,2329,1913,1
4157.0,1864,2330,1922,1
4158.0,1872,2339,1923,1
4159.0,1893,2338,1930,1
4160.0,1883,2350,1936,1
4161.0,1880,2345,1942,1
4162.0,1884,2340,1930,1
4163.0,1887,2328,1938,1
4164.0,1887,2330,1946,1
4165.0,1880,2348,1961,1
4166.0,1891,2351,1977,1
4167.0,1884,2351,1971,1
4168.0,1893,2349,1968,1
4169.0,1890,2352,1971,1
4170.0,1891,2355,1981,1
4171.0,1888,2343,1984,1
4172.0,1898,2347,1987,1
4173.0,1897,2343,1991,1
4174.0,1901,2347,1994,1
4175.0,1892,2338,2005,1
4176.0,1897,2335,2009,1
4177.0,1896,2339,2003,1
4178.0,1905,2345,2008,1
4179.0,1907,2370,2018,1
4180.0,1894,2390,2031,1
4181.0,1886,2399,2036,1
4182.0,1878,2404,2034,1
4183.0,1874,2390,2031,1
4184.0,1887,2375,2036,1
4185.0,1885,2361,2035,1
4186.0,1884,2351,2032,1
4187.0,1881,2342,2025,1
4188.0,1878,2341,2025,1
4189.0,1872,2345,2024,1
4190.0,1871,2349,2023,1
4191.0,1873,2355,2021,1
4192.0,1866,2358,2017,1
4193.0,1872,2372,2010,1
4194.0,1875,2364,2013,1
4195.0,1869,2366,2009,1
4196.0,1872,2354,2009,1
4197.0,1877,2343,2008,1
4198.0,1874,2340,2015,1
4199.0,1868,2341,2020,1
4200.0,1864,2348,2012,1
4201.0,1875,2356,2009,1
4202.0,1897,2360,2014,1
4203.0,1906,2370,2017,1
4204.0,1898,2355,2019,1
4205.0,1910,2353,2045,1
4206.0,1908,2351,2043,1
4207.0,1910,2352,2033,1
4208.0,1911,2357,2019,1
4209.0,1910,2364,2008,1
4210.0,1899,2371,2000,1
4211.0,1898,2365,1999,1
4212.0,1907,2355,2011,1
4213.0,1897,2343,2018,1
4214.0,1890,2337,2011,1
4215.0,1888,2339,2006,1
4216.0,1880,2343,2003,1
4217.0,1889,2353,1999,1
4218.0,1886,2353,2005,1
4219.0,1895,2356,2011,1
4220.0,1896,2354,2004,1
4221.0,1898,2351,1998,1
4222.0,1898,2354,2002,1
4223.0,1899,2349,2004,1
4224.0,1898,2355,1997,1
4225.0,1894,2355,1999,1
4226.0,1893,2361,2003,1
4227.0,1891,2361,1991,1
4228.0,1895,2355,1994,1
4229.0,1895,2351,1983,1
4230.0,1891,2356,1997,1
4231.0,1886,2355,1999,1
4232.0,1889,2356,1998,1
4233.0,1895,2352,1993,1
4234.0,1889,2357,1993,1
4235.0,1893,2354,1995,1
4236.0,1889,2351,1997,1
4237.0,1891,2354,1995,1
4238.0,1892,2352,1995,1
4239.0,1893,2352,1998,1
4240.0,1892,2352,1999,1
4241.0,1888,2358,2000,1
4242.0,1888,2356,1999,1
4243.0,1890,2357,1998,1
4244.0,1890,2356,2002,1
4245.0,1887,2355,2005,1
4246.0,1894,2356,2002,1
4247.0,1895,2359,2003,1
4248.0,1891,2365,2001,1
4249.0,1895,2367,2004,1
4250.0,1872,2352,1990,1
4251.0,1871,2354,1989,1
4252.0,1872,2357,1988,1
4253.0,1875,2357,1986,1
4254.0,1877,2356,1986,1
4255.0,1880,2368,1992,1
4256.0,1879,2358,1995,1
4257.0,1889,2351,1996,1
4258.0,1889,2348,1998,1
4259.0,1889,2354,1989,1
4260.0,1890,2354,1985,1
4261.0,1896,2360,1991,1
4262.0,1899,2366,1990,1
4263.0,1907,2346,1994,1
4264.0,1911,2342,1993,1
4265.0,1903,2344,1992,1
4266.0,1903,2348,1997,1
4267.0,1897,2363,2000,1
4268.0,1907,2364,2005,1
4269.0,1921,2353,2000,1
4270.0,1936,2348,1992,1
4271.0,1941,2348,1982,1
4272.0,1938,2351,1982,1
4273.0,1925,2355,1973,1
4274.0,1909,2353,1972,1
4275.0,1907,2351,1977,1
4276.0,1912,2359,1976,1
4277.0,1927,2364,1977,1
4278.0,1923,2367,1966,1
4279.0,1933,2371,1966,1
4280.0,1925,2368,1969,1
4281.0,1917,2365,1977,1
4282.0,1922,2368,1980,1
4283.0,1921,2347,1989,1
4284.0,1931,2348,1992,1
4285.0,1921,2350,1994,1
4286.0,1926,2356,1998,1
4287.0,1915,2365,2006,1
4288.0,1925,2361,2015,1
4289.0,1922,2363,2015,1
4290.0,1917,2368,2004,1
4291.0,1922,2367,2009,1
4292.0,1921,2355,2003,1
4293.0,1928,2349,1996,1
4294.0,1936,2349,2005,1
4295.0,1939,2352,2000,1
4296.0,1948,2356,2002,1
4297.0,1949,2360,2000,1
4298.0,1950,2357,2005,1
4299.0,1953,2354,2000,1
4300.0,1965,2339,1994,1
4301.0,1984,2338,1999,1
4302.0,1991,2331,1996,1
4303.0,2000,2330,2001,1
4304.0,1985,2332,1994,1
4305.0,1968,2332,1999,1
4306.0,1964,2351,2001,1
4307.0,1947,2351,1991,1
4308.0,1941,2347,1983,1
4309.0,1942,2350,1973,1
4310.0,1954,2342,1974,1
4311.0,1953,2342,1974,1
4312.0,1947,2339,1975,1
4313.0,1948,2342,1977,1
4314.0,1946,2349,1976,1
4315.0,1945,2347,1977,1
4316.0,1948,2349,1969,1
4317.0,1947,2357,1963,1
4318.0,1941,2350,1964,1
4319.0,1929,2355,1964,1
4320.0,1918,2371,1987,1
4321.0,1913,2365,1985,1
4322.0,1904,2363,1976,1
4323.0,1923,2358,1988,1
4324.0,1882,2355,1988,1
4325.0,1884,2348,1996,1
4326.0,1880,2357,1986,1
4327.0,1880,2347,1991,1
4328.0,1878,2340,2003,1
4329.0,1881,2349,2022,1
4330.0,1881,2347,2030,1
4331.0,1879,2351,2024,1
4332.0,1873,2358,2018,1
4333.0,1867,2375,2022,1
4334.0,1870,2385,2036,1
4335.0,1884,2389,2050,1
4336.0,1892,2378,2060,1
4337.0,1874,2353,2061,1
4338.0,1881,2352,2062,1
4339.0,1878,2347,2050,1
4340.0,1861,2336,2044,1
4341.0,1857,2318,2052,1
4342.0,1846,2300,2057,1
4343.0,1844,2307,2059,1
4344.0,1850,2337,2064,1
4345.0,1861,2364,2056,1
4346.0,1852,2379,2048,1
4347.0,1847,2375,2053,1
4348.0,1852,2352,2059,1
4349.0,1849,2334,2059,1
4350.0,1841,2335,2069,1
4351.0,1846,2329,2062,1
4352.0,1839,2331,2058,1
4353.0,1844,2340,2058,1
4354.0,1841,2345,2063,1
4355.0,1826,2352,2063,1
4356.0,1825,2356,2065,1
4357.0,1826,2350,2063,1
4358.0,1823,2347,2056,1
4359.0,1829,2339,2058,1
4360.0,1820,2330,2068,1
4361.0,1821,2331,2069,1
4362.0,1816,2328,2067,1
4363.0,1814,2334,2059,1
4364.0,1813,2332,2059,1
4365.0,1811,2328,2060,1
4366.0,1810,2328,2067,1
4367.0,1808,2330,2061,1
4368.0,1809,2326,2060,1
4369.0,1814,2329,2062,1
4370.0,1818,2328,2063,1
4371.0,1821,2333,2069,1
4372.0,1837,2337,2069,1
4373.0,1828,2341,2064,1
4374.0,1821,2325,2060,1
4375.0,1818,2314,2051,1
4376.0,1816,2316,2053,1
4377.0,1826,2323,2066,1
4378.0,1825,2327,2084,1
4379.0,1846,2336,2093,1
4380.0,1863,2343,2094,1
4381.0,1856,2347,2099,1
4382.0,1857,2358,2117,1
4383.0,1849,2348,2111,1
4384.0,1835,2353,2111,1
4385.0,1830,2358,2111,1
4386.0,1830,2361,2115,1
4387.0,1820,2353,2115,1
4388.0,1820,2340,2123,1
4389.0,1821,2331,2121,1
4390.0,1819,2324,2122,1
4391.0,1821,2327,2124,1
4392.0,1825,2321,2123,1
4393.0,1824,2326,2120,1
4394.0,1818,2329,2116,1
4395.0,1821,2330,2110,1
4396.0,1819,2335,2104,1
4397.0,1825,2334,2109,1
4398.0,1835,2338,2105,1
4399.0,1838,2336,2107,1
4400.0,1835,2330,2105,1
4401.0,1834,2327,2092,1
4402.0,1826,2330,2088,1
4403.0,1834,2324,2087,1
4404.0,1843,2322,2087,1
4405.0,1843,2331,2086,1
4406.0,1842,2336,2070,1
4407.0,1835,2331,2069,1
4408.0,1834,2327,2068,1
4409.0,1839,2327,2058,1
4410.0,1835,2337,2056,1
4411.0,1832,2335,2043,1
4412.0,1828,2322,2050,1
4413.0,1821,2333,2058,1
4414.0,1831,2340,2053,1
4415.0,1832,2342,2048,1
4416.0,1807,2337,2040,1
4417.0,1801,2338,2043,1
4418.0,1792,2335,2043,1
4419.0,1797,2333,2050,1
4420.0,1783,2343,2028,1
4421.0,1786,2344,2032,1
4422.0,1792,2349,2035,1
4423.0,1780,2342,2037,1
4424.0,1782,2340,2037,1
4425.0,1787,2333,2049,1
4426.0,1799,2316,2053,1
4427.0,1806,2295,2056,1
4428.0,1812,2287,2058,1
4429.0,1809,2299,2061,1
4430.0,1804,2330,2056,1
4431.0,1790,2356,2057,1
4432.0,1789,2369,2043,1
4433.0,1797,2360,2050,1
4434.0,1813,2352,2060,1
4435.0,1827,2343,2054,1
4436.0,1801,2332,2041,1
4437.0,1792,2338,2050,1
4438.0,1789,2356,2070,1
4439.0,1771,2359,2068,1
4440.0,1778,2318,2047,1
4441.0,1786,2264,2036,1
4442.0,1783,2234,2044,1
4443.0,1792,2238,2043,1
4444.0,1822,2294,2071,1
4445.0,1846,2391,2075,1
4446.0,1840,2451,2037,1
4447.0,1800,2487,2039,1
4448.0,1757,2434,2043,1
4449.0,1787,2284,2033,1
4450.0,1807,2208,2069,1
4451.0,1819,2192,2070,1
4452.0,1836,2225,2064,1
4453.0,1821,2259,2053,1
4454.0,1805,2325,2040,1
4455.0,1809,2375,2054,1
4456.0,1805,2410,2064,1
4457.0,1792,2407,2039,1
4458.0,1785,2382,2028,1
4459.0,1801,2353,2047,1
4460.0,1818,2343,2048,1
4461.0,1836,2333,2050,1
4462.0,1844,2329,2054,1
4463.0,1844,2332,2051,1
4464.0,1831,2331,2041,1
4465.0,1831,2348,2049,1
4466.0,1820,2351,2050,1
4467.0,1823,2357,2048,1
4468.0,1812,2342,2038,1
4469.0,1807,2315,2041,1
4470.0,1814,2299,2047,1
4471.0,1826,2310,2064,1
4472.0,1824,2319,2062,1
4473.0,1825,2337,2046,1
4474.0,1826,2335,2035,1
4475.0,1822,2329,2040,1
4476.0,1819,2309,2042,1
4477.0,1815,2328,2060,1
4478.0,1825,2334,2067,1
4479.0,1825,2335,2060,1
4480.0,1818,2340,2052,1
4481.0,1809,2345,2043,1
4482.0,1801,2360,2053,1
4483.0,1808,2359,2066,1
4484.0,1816,2346,2061,1
4485.0,1811,2324,2041,1
4486.0,1808,2329,2055,1
4487.0,1818,2313,2076,1
4488.0,1823,2301,2090,1
4489.0,1819,2306,2086,1
4490.0,1831,2320,2082,1
4491.0,1847,2332,2080,1
4492.0,1852,2343,2071,1
4493.0,1840,2350,2086,1
4494.0,1844,2351,2095,1
4495.0,1818,2343,2098,1
4496.0,1799,2337,2107,1
4497.0,1798,2321,2097,1
4498.0,1783,2303,2102,1
4499.0,1772,2300,2117,1
4500.0,1767,2313,2120,1
4501.0,1784,2297,2116,1
4502.0,1772,2294,2106,1
4503.0,1782,2294,2117,1
4504.0,1788,2297,2120,1
4505.0,1788,2301,2121,1
4506.0,1786,2298,2135,1
4507.0,1781,2288,2130,1
4508.0,1780,2282,2126,1
4509.0,1778,2274,2138,1
4510.0,1776,2286,2144,1
4511.0,1769,2295,2145,1
4512.0,1768,2304,2146,1
4513.0,1769,2303,2144,1
4514.0,1752,2286,2156,1
4515.0,1759,2278,2157,1
4516.0,1765,2284,2157,1
4517.0,1769,2291,2168,1
4518.0,1767,2307,2181,1
4519.0,1762,2316,2176,1
4520.0,1757,2317,2163,1
4521.0,1765,2311,2171,1
4522.0,1768,2298,2166,1
4523.0,1797,2285,2162,1
4524.0,1779,2272,2182,1
4525.0,1751,2298,2200,1
4526.0,1750,2319,2159,1
4527.0,1764,2340,2127,1
4528.0,1768,2305,2127,1
4529.0,1768,2290,2141,1
4530.0,1772,2267,2144,1
4531.0,1744,2299,2150,1
4532.0,1739,2289,2154,1
4533.0,1732,2266,2154,1
4534.0,1745,2287,2142,1
4535.0,1747,2300,2140,1
4536.0,1748,2285,2143,1
4537.0,1743,2295,2146,1
4538.0,1728,2279,2158,1
4539.0,1749,2283,2124,1
4540.0,1767,2296,2121,1
4541.0,1789,2306,2117,1
4542.0,1793,2310,2130,1
4543.0,1791,2327,2125,1
4544.0,1803,2329,2129,1
4545.0,1788,2316,2145,1
4546.0,1788,2319,2154,1
4547.0,1789,2312,2114,1
4548.0,1800,2323,2107,1
4549.0,1799,2341,2114,1
4550.0,1802,2339,2112,1
4551.0,1784,2311,2111,1
4552.0,1795,2305,2097,1
4553.0,1795,2305,2111,1
4554.0,1805,2293,2124,1
4555.0,1812,2305,2115,1
4556.0,1811,2310,2109,1
4557.0,1809,2289,2086,1
4558.0,1815,2276,2085,1
4559.0,1778,2291,2117,1
4560.0,1801,2301,2106,1
4561.0,1819,2299,2088,1
4562.0,1829,2304,2088,1
4563.0,1813,2302,2103,1
4564.0,1806,2301,2116,1
4565.0,1806,2311,2121,1
4566.0,1814,2323,2102,1
4567.0,1809,2315,2119,1
4568.0,1809,2312,2129,1
4569.0,1797,2310,2132,1
4570.0,1803,2321,2129,1
4571.0,1805,2314,2130,1
4572.0,1806,2302,2127,1
4573.0,1806,2304,2146,1
4574.0,1810,2314,2150,1
4575.0,1810,2309,2161,1
4576.0,1800,2308,2156,1
4577.0,1797,2306,2162,1
4578.0,1791,2305,2166,1
4579.0,1783,2307,2168,1
4580.0,1790,2307,2170,1
4581.0,1789,2308,2172,1
4582.0,1789,2311,2159,1
4583.0,1779,2290,2155,1
4584.0,1777,2258,2162,1
4585.0,1787,2272,2169,1
4586.0,1802,2298,2166,1
4587.0,1802,2297,2165,1
4588.0,1798,2294,2164,1
4589.0,1792,2303,2184,1
4590.0,1783,2284,2164,1
4591.0,1785,2288,2163,1
4592.0,1784,2290,2164,1
4593.0,1784,2290,2163,1
4594.0,1783,2287,2160,1
4595.0,1784,2286,2161,1
4596.0,1786,2286,2160,1
4597.0,1781,2296,2163,1
4598.0,1790,2300,2169,1
4599.0,1780,2290,2167,1
4600.0,1772,2289,2163,1
4601.0,1774,2284,2157,1
4602.0,1779,2290,2166,1
4603.0,1776,2289,2159,1
4604.0,1782,2280,2158,1
4605.0,1769,2284,2163,1
4606.0,1767,2308,2163,1
4607.0,1797,2316,2157,1
4608.0,1808,2314,2154,1
4609.0,1795,2308,2164,1
4610.0,1764,2306,2173,1
4611.0,1793,2302,2171,1
4612.0,1801,2302,2165,1
4613.0,1798,2299,2158,1
4614.0,1787,2290,2152,1
4615.0,1797,2287,2161,1
4616.0,1811,2271,2177,1
4617.0,1804,2275,2176,1
4618.0,1805,2295,2160,1
4619.0,1804,2299,2160,1
4620.0,1785,2250,2165,1
4621.0,1791,2253,2155,1
4622.0,1804,2293,2153,1
4623.0,1815,2298,2154,1
4624.0,1817,2294,2157,1
4625.0,1797,2264,2165,1
4626.0,1789,2261,2172,1
4627.0,1797,2279,2166,1
4628.0,1794,2317,2163,1
4629.0,1794,2353,2157,1
4630.0,1781,2348,2153,1
4631.0,1773,2311,2171,1
4632.0,1789,2301,2181,1
4633.0,1809,2305,2188,1
4634.0,1825,2318,2174,1
4635.0,1812,2313,2147,1
4636.0,1810,2309,2140,1
4637.0,1807,2307,2142,1
4638.0,1797,2316,2168,1
4639.0,1798,2318,2179,1
4640.0,1823,2336,2175,1
4641.0,1827,2354,2158,1
4642.0,1848,2362,2143,1
4643.0,1831,2353,2150,1
4644.0,1820,2351,2159,1
4645.0,1857,2328,2177,1
4646.0,1859,2315,2192,1
4647.0,1862,2277,2207,1
4648.0,1833,2266,2218,1
4649.0,1804,2270,2175,1
4650.0,1794,2291,2165,1
4651.0,1824,2276,2153,1
4652.0,1837,2259,2147,1
4653.0,1857,2269,2169,1
4654.0,1871,2298,2186,1
4655.0,1874,2333,2193,1
4656.0,1861,2325,2176,1
4657.0,1861,2302,2160,1
4658.0,1866,2285,2126,1
4659.0,1841,2268,2116,1
4660.0,1836,2273,2153,1
4661.0,1845,2283,2154,1
4662.0,1867,2290,2145,1
4663.0,1865,2287,2109,1
4664.0,1857,2299,2091,1
4665.0,1863,2316,2097,1
4666.0,1882,2360,2122,1
4667.0,1901,2375,2126,1
4668.0,1895,2352,2114,1
4669.0,1888,2344,2122,1
4670.0,1874,2348,2135,1
4671.0,1866,2344,2146,1
4672.0,1859,2348,2131,1
4673.0,1843,2332,2101,1
4674.0,1839,2332,2086,1
4675.0,1851,2356,2101,1
4676.0,1849,2355,2099,1
4677.0,1830,2349,2103,1
4678.0,1825,2291,2113,1
4679.0,1862,2267,2144,1
4680.0,1880,2298,2110,1
4681.0,1890,2333,2100,1
4682.0,1883,2327,2075,1
4683.0,1873,2321,2064,1
4684.0,1854,2331,2087,1
4685.0,1802,2341,2143,1
4686.0,1835,2346,2101,1
4687.0,1843,2349,2098,1
4688.0,1850,2353,2094,1
4689.0,1850,2351,2088,1
4690.0,1863,2332,2079,1
4691.0,1848,2324,2089,1
4692.0,1842,2333,2097,1
4693.0,1828,2337,2105,1
4694.0,1812,2323,2088,1
4695.0,1805,2294,2079,1
4696.0,1813,2298,2101,1
4697.0,1815,2311,2111,1
4698.0,1819,2316,2114,1
4699.0,1822,2312,2107,1
4700.0,1822,2323,2101,1
4701.0,1829,2327,2099,1
4702.0,1823,2344,2111,1
4703.0,1830,2344,2117,1
4704.0,1833,2327,2133,1
4705.0,1830,2309,2139,1
4706.0,1842,2320,2155,1
4707.0,1834,2310,2128,1
4708.0,1815,2291,2124,1
4709.0,1812,2291,2143,1
4710.0,1822,2311,2161,1
4711.0,1826,2325,2143,1
4712.0,1807,2344,2132,1
4713.0,1812,2345,2143,1
4714.0,1823,2351,2155,1
4715.0,1836,2341,2137,1
4716.0,1829,2329,2121,1
4717.0,1818,2319,2128,1
4718.0,1828,2322,2145,1
4719.0,1830,2305,2139,1
4720.0,1836,2303,2152,1
4721.0,1853,2322,2168,1
4722.0,1874,2339,2176,1
4723.0,1933,2349,2168,1
4724.0,1851,2343,2169,1
4725.0,1829,2319,2127,1
4726.0,1812,2311,2118,1
4727.0,1812,2311,2127,1
4728.0,1803,2336,2129,1
4729.0,1808,2337,2113,1
4730.0,1800,2324,2109,1
4731.0,1823,2299,2117,1
4732.0,1830,2303,2127,1
4733.0,1823,2319,2131,1
4734.0,1826,2322,2107,1
4735.0,1837,2320,2110,1
4736.0,1844,2318,2123,1
4737.0,1833,2320,2121,1
4738.0,1832,2325,2114,1
4739.0,1826,2327,2116,1
4740.0,1823,2344,2109,1
4741.0,1831,2349,2100,1
4742.0,1833,2325,2092,1
4743.0,1840,2315,2104,1
4744.0,1851,2315,2107,1
4745.0,1851,2314,2107,1
4746.0,1845,2321,2102,1
4747.0,1852,2324,2101,1
4748.0,1843,2320,2102,1
4749.0,1836,2325,2100,1
4750.0,1831,2330,2095,1
4751.0,1837,2338,2092,1
4752.0,1850,2334,2102,1
4753.0,1861,2338,2105,1
4754.0,1857,2339,2115,1
4755.0,1859,2331,2100,1
4756.0,1854,2328,2102,1
4757.0,1832,2325,2117,1
4758.0,1831,2336,2129,1
4759.0,1844,2350,2121,1
4760.0,1870,2344,2121,1
4761.0,1871,2341,2121,1
4762.0,1872,2338,2120,1
4763.0,1871,2338,2123,1
4764.0,1868,2339,2126,1
4765.0,1859,2333,2117,1
4766.0,1860,2318,2117,1
4767.0,1864,2326,2126,1
4768.0,1865,2340,2120,1
4769.0,1859,2337,2110,1
4770.0,1848,2328,2079,1
4771.0,1824,2343,2071,1
4772.0,1846,2333,2084,1
4773.0,1841,2323,2102,1
4774.0,1847,2326,2100,1
4775.0,1843,2351,2130,1
4776.0,1819,2347,2099,1
4777.0,1831,2331,2082,1
4778.0,1863,2325,2091,1
4779.0,1872,2326,2110,1
4780.0,1855,2327,2102,1
4781.0,1847,2331,2106,1
4782.0,1847,2334,2129,1
4783.0,1832,2335,2102,1
4784.0,1802,2354,2097,1
4785.0,1803,2357,2088,1
4786.0,1822,2345,2065,1
4787.0,1831,2340,2061,1
4788.0,1853,2335,2086,1
4789.0,1867,2306,2099,1
4790.0,1868,2294,2104,1
4791.0,1850,2300,2114,1
4792.0,1838,2316,2106,1
4793.0,1846,2322,2085,1
4794.0,1852,2328,2066,1
4795.0,1844,2356,2077,1
4796.0,1845,2378,2110,1
4797.0,1839,2362,2112,1
4798.0,1839,2338,2108,1
4799.0,1836,2351,2110,1
4800.0,1839,2353,2117,1
4801.0,1820,2353,2108,1
4802.0,1852,2342,2111,1
4803.0,1842,2333,2101,1
4804.0,1826,2330,2092,1
4805.0,1836,2331,2086,1
4806.0,1830,2332,2090,1
4807.0,1825,2331,2098,1
4808.0,1811,2343,2097,1
4809.0,1818,2342,2083,1
4810.0,1834,2341,2077,1
4811.0,1854,2324,2062,1
4812.0,1866,2317,2073,1
4813.0,1870,2319,2087,1
4814.0,1859,2343,2088,1
4815.0,1845,2364,2079,1
4816.0,1837,2364,2046,1
4817.0,1857,2335,2036,1
4818.0,1865,2326,2067,1
4819.0,1861,2338,2073,1
4820.0,1874,2316,2043,1
4821.0,1888,2299,2034,1
4822.0,1874,2307,2043,1
4823.0,1828,2334,2059,1
4824.0,1834,2353,2064,1
4825.0,1823,2361,2047,1
4826.0,1813,2361,2037,1
4827.0,1821,2365,2046,1
4828.0,1839,2338,2057,1
4829.0,1846,2321,2047,1
4830.0,1844,2305,2061,1
4831.0,1845,2312,2056,1
4832.0,1846,2331,2071,1
4833.0,1840,2363,2070,1
4834.0,1832,2369,2058,1
4835.0,1817,2367,2065,1
4836.0,1820,2365,2036,1
4837.0,1824,2351,2078,1
4838.0,1834,2358,2080,1
4839.0,1831,2351,2078,1
4840.0,1843,2313,2050,1
4841.0,1867,2279,2037,1
4842.0,1863,2290,2057,1
4843.0,1858,2326,2067,1
4844.0,1850,2350,2069,1
4845.0,1847,2336,2048,1
4846.0,1842,2324,2050,1
4847.0,1838,2331,2073,1
4848.0,1829,2358,2085,1
4849.0,1837,2365,2084,1
4850.0,1835,2349,2066,1
4851.0,1837,2341,2074,1
4852.0,1831,2364,2087,1
4853.0,1842,2370,2095,1
4854.0,1838,2357,2085,1
4855.0,1829,2345,2064,1
4856.0,1810,2314,2042,1
4857.0,1813,2278,2050,1
4858.0,1826,2279,2086,1
4859.0,1839,2341,2164,1
4860.0,1829,2369,2161,1
4861.0,1808,2355,2098,1
4862.0,1809,2333,2062,1
4863.0,1828,2299,2078,1
4864.0,1844,2304,2115,1
4865.0,1851,2335,2127,1
4866.0,1850,2360,2121,1
4867.0,1857,2357,2116,1
4868.0,1843,2345,2107,1
4869.0,1844,2346,2126,1
4870.0,1849,2350,2133,1
4871.0,1837,2333,2116,1
4872.0,1839,2322,2107,1
4873.0,1852,2323,2096,1
4874.0,1879,2343,2106,1
4875.0,1882,2353,2101,1
4876.0,1889,2358,2100,1
4877.0,1883,2368,2113,1
4878.0,1885,2386,2123,1
4879.0,1879,2375,2112,1
4880.0,1871,2364,2098,1
4881.0,1854,2344,2097,1
4882.0,1814,2345,2091,1
4883.0,1851,2341,2093,1
4884.0,1859,2340,2082,1
4885.0,1885,2330,2074,1
4886.0,1875,2320,2071,1
4887.0,1875,2325,2090,1
4888.0,1881,2342,2099,1
4889.0,1879,2353,2096,1
4890.0,1866,2350,2091,1
4891.0,1871,2355,2086,1
4892.0,1880,2362,2103,1
4893.0,1879,2364,2101,1
4894.0,1884,2354,2093,1
4895.0,1877,2347,2099,1
4896.0,1882,2353,2093,1
4897.0,1877,2335,2083,1
4898.0,1905,2351,2077,1
4899.0,1904,2345,2077,1
4900.0,1901,2342,2079,1
4901.0,1902,2358,2091,1
4902.0,1890,2354,2104,1
4903.0,1893,2349,2086,1
4904.0,1901,2326,2062,1
4905.0,1909,2330,2047,1
4906.0,1916,2347,2046,1
4907.0,1906,2364,2042,1
4908.0,1900,2367,2043,1
4909.0,1900,2359,2035,1
4910.0,1901,2349,2035,1
4911.0,1912,2357,2022,1
4912.0,1906,2349,2010,1
4913.0,1907,2347,1999,1
4914.0,1909,2337,1985,1
4915.0,1904,2333,1989,1
4916.0,1910,2324,1991,1
4917.0,1909,2331,1987,1
4918.0,1916,2335,1977,1
4919.0,1908,2339,1965,1
4920.0,1922,2335,1971,1
4921.0,1930,2334,1964,1
4922.0,1932,2325,1963,1
4923.0,1922,2319,1968,1
4924.0,1915,2324,1980,1
4925.0,1905,2326,1994,1
4926.0,1892,2332,1985,1
4927.0,1871,2339,1972,1
4928.0,1873,2346,1942,1
4929.0,1878,2360,1935,1
4930.0,1888,2368,1915,1
4931.0,1888,2367,1917,1
4932.0,1877,2371,1909,1
4933.0,1867,2367,1915,1
4934.0,1855,2375,1941,1
4935.0,1848,2355,1967,1
4936.0,1839,2322,1947,1
4937.0,1871,2303,1961,1
4938.0,1919,2308,1982,1
4939.0,1935,2316,2000,1
4940.0,1940,2342,1983,1
4941.0,1939,2357,1963,1
4942.0,1931,2366,1961,1
4943.0,1903,2372,1954,1
4944.0,1928,2364,1986,1
4945.0,1910,2336,1990,1
4946.0,1931,2337,2011,1
4947.0,1939,2349,2035,1
4948.0,1932,2359,2043,1
4949.0,1980,2355,2033,1
4950.0,1972,2367,2048,1
4951.0,1974,2349,2022,1
4952.0,1963,2369,2038,1
4953.0,1964,2376,2053,1
4954.0,1966,2381,2063,1
4955.0,1961,2372,2074,1
4956.0,1935,2342,2069,1
4957.0,1973,2331,2050,1
4958.0,1956,2323,2053,1
4959.0,1978,2338,2051,1
4960.0,1964,2347,2059,1
4961.0,1970,2363,2062,1
4962.0,1946,2365,2066,1
4963.0,1953,2355,2060,1
4964.0,1918,2348,2062,1
4965.0,1975,2368,2053,1
4966.0,1949,2379,2059,1
4967.0,1941,2388,2059,1
4968.0,1935,2408,2065,1
4969.0,1942,2414,2058,1
4970.0,1941,2411,2037,1
4971.0,1948,2394,2045,1
4972.0,1944,2368,2035,1
4973.0,1913,2337,2032,1
4974.0,1899,2316,2027,1
4975.0,1902,2319,2028,1
4976.0,1914,2328,2011,1
4977.0,1912,2339,2001,1
4978.0,1906,2353,1994,1
4979.0,1894,2357,1978,1
4980.0,1902,2336,1980,1
4981.0,1915,2353,1978,1
4982.0,1920,2358,1976,1
4983.0,1904,2347,1981,1
4984.0,1904,2348,1981,1
4985.0,1923,2358,1984,1
4986.0,1924,2373,1985,1
4987.0,1911,2362,1963,1
4988.0,1902,2350,1955,1
4989.0,1899,2357,1959,1
4990.0,1892,2358,1959,1
4991.0,1889,2357,1962,1
4992.0,1885,2342,1954,1
4993.0,1886,2340,1942,1
4994.0,1893,2344,1944,1
4995.0,1901,2358,1951,1
4996.0,1904,2360,1948,1
4997.0,1910,2362,1949,1
4998.0,1903,2346,1957,1
4999.0,1905,2345,1954,1
5000.0,1911,2341,1961,1
5001.0,1925,2348,1961,1
5002.0,1919,2360,1961,1
5003.0,1924,2351,1974,1
5004.0,1915,2343,1963,1
5005.0,1906,2343,1965,1
5006.0,1913,2346,1973,1
5007.0,1922,2351,1974,1
5008.0,1927,2353,1967,1
5009.0,1924,2344,1969,1
5010.0,1902,2345,1962,1
5011.0,1903,2341,1978,1
5012.0,1910,2329,1995,1
5013.0,1923,2346,1985,1
5014.0,1931,2365,1983,1
5015.0,1939,2358,1984,1
5016.0,1936,2356,1987,1
5017.0,1945,2344,2008,1
5018.0,1940,2341,2033,1
5019.0,1951,2339,2038,1
5020.0,1938,2341,2033,1
5021.0,1930,2347,2012,1
5022.0,1931,2358,2007,1
5023.0,1934,2364,2022,1
5024.0,1948,2365,2032,1
5025.0,1943,2369,2038,1
5026.0,1949,2350,2039,1
5027.0,1942,2321,2050,1
5028.0,1939,2326,2061,1
5029.0,1948,2335,2066,1
5030.0,1957,2344,2082,1
5031.0,1962,2361,2106,1
5032.0,1960,2387,2120,1
5033.0,1960,2395,2118,1
5034.0,1943,2389,2110,1
5035.0,1929,2394,2114,1
5036.0,1916,2384,2111,1
5037.0,1913,2367,2113,1
5038.0,1915,2343,2102,1
5039.0,1920,2342,2104,1
5040.0,1920,2341,2112,1
5041.0,1928,2368,2119,1
5042.0,1944,2379,2112,1
5043.0,1935,2367,2101,1
