user-id,timestamp,accX,accY,accZ
20,58651932324000,0.84,5.05,8.54
20,58651982311000,0.93,5.13,8.47
20,58652032330000,0.69,4.94,8.43
20,58652082348000,0.65,5.01,8.62
20,58652132305000,0.93,5.01,8.54
20,58652182324000,0.72,5.05,8.5
20,58652232342000,0.69,5.09,8.66
20,58652282330000,0.57,5.24,8.73
20,58652332348000,0.61,5.18,8.62
20,58652382336000,1.04,5.37,8.39
20,58652432293000,1.23,5.24,8.39
20,58652482342000,1.08,5.13,8.35
20,58652532330000,1.23,5.24,8.28
20,58652582317000,0.95,5.24,8.62
20,58652632305000,0.76,5.22,8.62
20,58652682324000,1.12,5.33,8.43
20,58652732311000,1.31,5.33,8.28
20,58652782299000,1.46,5.33,8.24
20,58652832348000,1.33,5.28,8.31
20,58652882336000,1.14,5.18,8.5
20,58652932324000,1.08,5.09,8.54
20,58652982342000,0.84,5.05,8.58
20,58653032299000,1.04,5.05,8.5
20,58653082348000,0.95,5.18,8.66
20,58653150341000,0.65,5.18,8.54
20,58653202282000,0.76,5.01,8.69
20,58653252300000,0.8,4.94,8.66
20,58653252300000,0.8,4.94,8.66
20,58653312328000,0.84,4.9,8.66
20,58653362316000,0.5,4.9,8.73
20,58653412304000,0.15,4.9,8.81
20,58653462322000,0.08,4.82,8.92
20,58653512371000,0.27,4.79,8.77
20,58653562328000,0.46,4.82,8.85
20,58653612316000,0.46,4.9,8.77
20,58653662304000,0.42,4.9,8.69
20,58653712292000,0.5,4.9,8.73
20,58653762341000,0.61,4.75,8.66
20,58653812328000,0.38,4.9,8.77
20,58653862347000,0.31,4.9,8.62
20,58653912304000,0.53,4.9,8.69
20,58653962322000,0.5,4.94,8.73
20,58654012249000,0.5,4.94,8.62
20,58654062328000,0.65,4.99,8.69
20,58654112347000,0.5,4.86,8.66
20,58654162335000,0.31,4.9,8.69
20,58654212292000,0.57,4.86,8.69
20,58654262341000,0.46,4.82,8.77
20,58654312298000,0.42,4.86,8.77
20,58654362347000,0.5,4.79,8.73
20,58654412335000,0.42,4.75,8.77
20,58654462353000,0.38,4.71,8.81
20,58654512341000,0.34,4.79,8.85
20,58654562359000,0.31,4.82,8.81
20,58654612316000,0.5,4.82,8.77
20,58654662335000,0.5,4.75,8.81
20,58654712322000,0.34,4.67,8.85
20,58654762341000,0.38,4.63,8.89
20,58654812328000,0.19,4.75,8.77
20,58654862316000,0.38,4.75,8.73
20,58654912335000,0.46,4.79,8.85
20,58654962322000,0.38,4.79,8.73
20,58655012280000,0.57,4.82,8.77
20,58655062298000,0.61,4.82,8.69
20,58655112347000,0.42,4.75,8.77
20,58655162335000,0.27,4.71,8.85
20,58655212322000,0.31,4.71,8.89
20,58655262310000,0.38,4.79,8.77
20,58655312328000,0.46,4.82,8.81
20,58655362316000,0.5,4.82,8.73
20,58655412335000,0.57,4.75,8.77
20,58655462322000,0.42,4.82,8.81
20,58655512310000,0.46,4.82,8.81
20,58655562328000,0.61,4.86,8.66
20,58655612316000,0.69,4.86,8.62
20,58655662335000,0.61,4.67,8.69
20,58655712292000,0.57,4.75,8.69
20,58655762341000,0.5,4.79,8.77
20,58655812298000,0.53,4.86,8.77
20,58655862347000,0.5,4.79,8.77
20,58655912304000,0.53,4.75,8.77
20,58655962322000,0.42,4.67,8.81
20,58656012280000,0.42,4.63,8.81
20,58656122112000,0.53,4.9,8.81
20,58656122112000,0.53,4.9,8.81
20,58656172283000,0.57,4.86,8.73
20,58656222393000,0.53,4.86,8.81
20,58656272381000,0.42,4.82,8.73
20,58656322338000,0.53,4.75,8.77
20,58656382305000,0.5,4.56,8.81
20,58656432293000,0.69,4.67,8.81
20,58656482342000,0.61,4.82,8.77
20,58656532330000,0.65,5.01,8.62
20,58656582348000,0.72,5.13,8.54
20,58656632305000,0.95,5.13,8.5
20,58656682324000,0.93,5.05,8.58
20,58656732311000,0.65,5.05,8.66
20,58656782330000,0.42,4.99,8.77
20,58656832378000,0.5,5.05,8.73
20,58656882336000,0.57,5.01,8.62
20,58656932324000,0.61,5.05,8.66
20,58656982342000,0.65,5.01,8.58
20,58657032330000,0.61,4.94,8.69
20,58657082317000,0.61,4.99,8.73
20,58657132336000,0.53,4.94,8.66
20,58657182324000,0.57,4.99,8.62
20,58657232311000,0.57,4.99,8.69
20,58657282299000,0.5,4.94,8.69
20,58657332348000,0.46,4.9,8.77
20,58657382305000,0.46,4.86,8.73
20,58657432293000,0.38,4.86,8.81
20,58657432293000,0.38,4.86,8.81
20,58657532330000,0.42,4.86,8.77
20,58657582348000,0.46,4.82,8.73
20,58657632305000,0.53,4.9,8.73
20,58657682324000,0.42,4.86,8.81
20,58657732311000,0.46,4.86,8.69
20,58657782330000,0.42,4.9,8.77
20,58657832317000,0.38,4.86,8.77
20,58657882336000,0.42,4.9,8.73
20,58657932293000,0.38,4.9,8.85
20,58657982342000,0.5,4.86,8.69
20,58658032299000,0.65,4.9,8.69
20,58658082348000,0.46,4.86,8.66
20,58658132336000,0.23,4.82,8.81
20,58658182263000,0.23,4.82,8.85
20,58658232281000,0.23,4.82,8.77
20,58658282330000,0.38,4.86,8.73
20,58658332348000,0.46,4.79,8.77
20,58658382305000,0.57,4.79,8.73
20,58658432293000,0.57,4.82,8.73
20,58658482311000,0.5,4.82,8.77
20,58658532299000,0.5,4.9,8.77
20,58658582348000,0.72,5.05,8.66
20,58658632336000,0.8,5.18,8.58
20,58658682324000,0.93,5.24,8.39
20,58658732342000,0.99,5.41,8.43
20,58658782330000,1.04,5.43,8.35
20,58658832348000,1.23,5.6,8.24
20,58658882336000,1.38,5.67,8.2
20,58658932324000,1.5,5.63,8.12
20,58658982342000,1.54,5.83,8.05
20,58659032330000,1.57,5.9,7.93
20,58659082348000,1.88,5.9,7.74
20,58659132305000,1.88,5.94,7.89
20,58659182354000,1.65,5.79,7.86
20,58659232311000,1.65,5.86,7.97
20,58659282299000,1.65,5.86,8.01
20,58659332348000,1.54,5.9,7.97
20,58659382336000,1.5,5.83,8.05
20,58659432293000,1.57,5.86,8.05
20,58659482311000,1.46,5.79,8.05
20,58659532299000,1.5,5.79,8.08
20,58659582317000,1.54,5.83,8.08
20,58659632305000,1.54,5.86,8.01
20,58659682293000,1.65,5.86,7.93
20,58659732342000,1.61,5.83,8.01
20,58659782299000,1.61,5.79,8.08
20,58659832348000,1.54,5.83,7.97
20,58659832348000,1.54,5.83,7.97
20,58659932293000,1.65,5.83,8.08
20,58659982342000,1.46,5.75,8.12
20,58660032299000,1.46,5.79,8.08
20,58660082348000,1.57,5.83,8.05
20,58660132336000,1.5,5.75,8.12
20,58660182324000,1.54,5.71,8.05
20,58660232311000,1.54,5.83,8.05
20,58660284130000,1.61,5.75,8.01
20,58660342297000,1.57,5.79,8.12
20,58660392346000,1.42,5.75,8.16
20,58660442303000,1.42,5.79,8.16
20,58660492291000,1.54,5.75,8.08
20,58660542309000,1.46,5.75,8.08
20,58660592297000,1.5,5.75,8.01
20,58660642315000,1.57,5.75,8.08
20,58660692303000,1.57,5.71,8.05
20,58660742321000,1.46,5.75,8.12
20,58660792309000,1.46,5.71,8.08
20,58660842327000,1.27,5.71,8.16
20,58660892315000,1.38,5.71,8.2
20,58660942333000,1.27,5.6,8.24
20,58660992260000,1.18,5.6,8.2
20,58661042309000,1.27,5.63,8.2
20,58661092327000,1.14,5.56,8.28
20,58661150341000,1.18,5.52,8.24
20,58661202282000,1.12,5.48,8.31
20,58661252300000,0.93,5.37,8.39
20,58661302319000,0.76,5.33,8.47
20,58661352276000,0.76,5.18,8.5
20,58661402294000,0.65,5.13,8.66
20,58661452313000,0.65,5.09,8.66
20,58661502300000,0.57,5.13,8.73
20,58661552319000,0.5,4.9,8.47
20,58661602306000,0.46,4.9,8.66
20,58661652294000,0.34,4.71,8.81
20,58661702343000,0.53,4.52,8.85
20,58661752270000,0.42,4.52,9.04
20,58661802319000,0.19,4.4,8.81
20,58661852306000,0.15,4.1,8.96
20,58661902325000,0.11,4.06,9.3
20,58661952313000,0.31,4.4,9.11
20,58662002544000,0.57,4.6,9.28
20,58662052319000,0.95,4.37,9.08
20,58662102306000,0.72,3.95,9.15
20,58662152294000,0.8,3.41,8.92
20,58662202313000,0.76,2.83,9.15
20,58662252300000,0.69,2.64,9.66
20,58662302319000,0.65,2.53,9.28
20,58662352306000,0.38,2.76,9.58
20,58662402264000,0.19,2.98,9.58
20,58662452313000,0.15,3.11,9.53
20,58662502270000,0.15,3.21,9.53
20,58662552319000,-0.08,3.11,9.51
20,58662602306000,-0.23,3.34,9.53
20,58662652294000,0.11,3.64,9.38
20,58662702343000,-0.04,3.64,9.28
20,58662752300000,-0.11,3.41,9.38
20,58662802349000,-0.38,3.45,9.47
20,58662852337000,-0.23,3.76,9.51
20,58662902325000,-0.11,4.14,9.19
20,58662952313000,-0.34,4.1,9.34
20,58663002361000,-0.38,3.95,9.38
20,58663052319000,-0.34,3.76,9.43
20,58663102276000,-0.15,3.76,9.19
20,58663152294000,-0.15,3.87,9.34
20,58663202282000,-0.34,3.95,9.34
20,58663252270000,-0.38,3.87,9.34
20,58663302349000,-0.42,3.64,9.43
20,58663352276000,-0.27,3.64,9.38
20,58663402294000,-0.04,3.91,9.23
20,58663452282000,-0.23,3.91,9.28
20,58663502300000,-0.11,3.95,9.19
20,58663552380000,-0.46,3.72,9.3
20,58663602337000,-0.3,3.76,9.34
20,58663652294000,-0.19,3.83,9.34
20,58663702313000,-0.27,3.87,9.43
20,58663752331000,-0.38,3.72,9.34
20,58663802319000,-0.19,3.76,9.3
20,58663852306000,-0.15,3.91,9.3
20,58663902294000,-0.23,3.91,9.43
20,58663952313000,-0.38,3.83,9.38
20,58664002880000,-0.11,3.79,9.3
20,58664052319000,-0.11,3.79,9.3
20,58664102306000,-0.15,3.87,9.28
20,58664152203000,-0.23,3.91,9.38
20,58664202313000,-0.5,3.72,9.38
20,58664252270000,-0.27,3.64,9.38
20,58664302319000,-0.15,3.76,9.34
20,58664352306000,-0.23,3.87,9.3
20,58664402264000,-0.19,3.87,9.3
20,58664452282000,-0.27,3.87,9.28
20,58664502300000,-0.11,3.87,9.23
20,58664552288000,-0.08,3.87,9.28
20,58664602337000,0.0,3.79,9.23
20,58664652294000,-0.3,3.49,9.47
20,58664702282000,-0.46,3.41,9.47
20,58664752270000,-0.23,3.64,9.47
20,58664802319000,-0.5,3.83,9.58
20,58664852306000,0.0,3.95,9.34
20,58664902294000,-0.08,3.79,9.28
20,58664952313000,-0.04,3.83,9.23
20,58665002300000,0.11,3.99,9.23
20,58665052410000,0.08,3.91,9.23
20,58665102306000,-0.08,3.79,9.3
20,58665152294000,-0.15,3.72,9.34
20,58665202313000,0.0,3.87,9.28
20,58665252270000,-0.04,3.87,9.28
20,58665302288000,0.04,3.83,9.28
20,58665352306000,-0.08,3.76,9.3
20,58665402294000,-0.11,3.57,9.34
20,58665452313000,0.04,3.72,9.28
20,58665502300000,0.15,3.87,9.15
20,58665552319000,-0.08,3.79,9.43
20,58665602306000,-0.3,3.57,9.38
20,58665652294000,-0.11,3.72,9.34
20,58665702313000,0.11,3.87,9.28
20,58665752300000,-0.04,3.76,9.3
20,58665802319000,0.23,3.87,9.28
20,58665852306000,-0.15,3.57,9.3
20,58665902294000,0.0,3.72,9.28
20,58665952282000,-0.04,3.79,9.28
20,58666002453000,-0.11,3.79,9.34
20,58666052319000,0.19,3.83,9.28
20,58666102306000,-0.27,3.53,9.34
20,58666152294000,-0.08,3.6,9.38
20,58666202313000,0.27,3.87,9.19
20,58666252300000,-0.27,3.76,9.3
20,58666302319000,0.38,3.99,9.28
20,58666352306000,-0.3,3.6,9.3
20,58666402294000,-0.08,3.68,9.34
20,58666452313000,0.31,3.91,9.11
20,58666502300000,-0.23,3.79,9.3
20,58666552319000,0.46,3.95,9.23
20,58666602306000,-0.34,3.6,9.34
20,58666652294000,-0.04,3.57,9.38
20,58666702313000,0.15,3.76,9.3
20,58666752270000,-0.3,3.76,9.51
20,58666802319000,0.46,4.14,9.3
20,58666852306000,0.08,3.64,9.04
20,58666902294000,0.11,3.41,9.3
20,58666952282000,0.23,3.45,9.3
20,58667002331000,0.0,3.6,9.34
20,58667052319000,0.27,3.95,9.3
20,58667102306000,-0.27,3.53,9.43
20,58667152294000,0.0,3.49,9.38
20,58667202313000,-0.15,3.72,9.34
20,58667252270000,-0.15,3.83,9.53
20,58667302319000,0.19,4.14,9.08
20,58667352306000,-0.15,3.76,9.3
20,58667402355000,-0.11,3.79,9.38
20,58667452313000,-0.04,3.91,9.15
20,58667502300000,-0.08,3.95,9.3
20,58667552288000,-0.11,3.91,9.3
20,58667602276000,-0.11,3.87,9.28
20,58667652264000,-0.08,3.95,9.28
20,58667702282000,-0.08,3.95,9.23
20,58667752300000,-0.15,3.83,9.38
20,58667802319000,-0.23,3.87,9.34
20,58667852276000,-0.15,3.87,9.15
20,58667902325000,-0.04,4.02,9.19
20,58667952282000,-0.04,3.99,9.15
20,58668002850000,-0.11,3.95,9.23
20,58668052288000,-0.11,3.91,9.23
20,58668102276000,-0.15,3.91,9.34
20,58668152264000,-0.27,3.91,9.28
20,58668202282000,-0.23,3.91,9.23
20,58668252300000,-0.04,4.02,9.19
20,58668302319000,0.04,4.18,9.28
20,58668352306000,-0.3,4.25,9.58
20,58668402264000,-0.3,4.06,9.15
20,58668452313000,-0.23,3.91,9.23
20,58668502331000,-0.15,3.91,9.28
20,58668552319000,-0.23,3.79,9.15
20,58668602306000,-0.11,4.02,9.15
20,58668652294000,-0.04,4.37,9.23
20,58668702282000,-0.04,3.83,9.23
20,58668752331000,-0.23,3.53,9.28
20,58668802319000,-0.42,3.49,9.3
20,58668852306000,-0.46,3.53,9.11
20,58668902264000,-0.46,4.02,9.23
20,58668952313000,-0.69,4.25,9.7
20,58669002300000,-0.65,3.6,9.34
20,58669052319000,-0.84,4.18,9.38
20,58669110485000,-0.61,4.21,9.38
20,58669110485000,-0.61,4.21,9.38
20,58669162304000,-0.38,4.14,9.19
20,58669212322000,-0.72,4.1,9.38
20,58669262341000,-0.57,3.99,9.28
20,58669312328000,-0.3,4.21,9.43
20,58669362347000,-0.61,3.95,9.0
20,58669412304000,-0.53,3.95,8.96
20,58669462322000,-0.08,4.6,8.77
20,58669512341000,-0.46,4.56,8.92
20,58669562359000,0.31,4.63,9.19
20,58669612347000,0.15,4.33,8.66
20,58669662335000,-1.04,4.29,9.19
20,58669712322000,-0.61,4.14,8.69
20,58669762371000,-0.11,4.52,9.3
20,58669812328000,-0.42,5.05,9.28
20,58669862347000,-0.04,4.79,8.77
20,58669912335000,-0.38,4.44,8.81
20,58669962353000,-0.72,4.6,8.85
20,58670012310000,-0.23,4.71,8.69
20,58670062328000,-0.34,4.79,8.77
20,58670112347000,-0.27,5.13,9.04
20,58670162335000,-0.65,4.44,8.89
20,58670212322000,-0.8,4.52,9.3
20,58670262310000,-0.15,4.99,8.73
20,58670312328000,-0.38,4.79,8.73
20,58670362316000,-0.38,4.79,8.89
20,58670412335000,-0.53,4.82,8.81
20,58670462353000,-0.84,4.75,9.0
20,58670512341000,-0.5,4.6,9.08
20,58670562298000,-0.38,4.6,8.96
20,58670612316000,-0.34,4.67,8.96
20,58670662304000,-0.23,4.75,8.96
20,58670712414000,-0.27,4.79,8.96
20,58670762615000,-0.3,4.99,8.66
20,58670812328000,-0.23,4.86,8.69
20,58670862347000,-0.27,4.82,8.85
20,58670912304000,-0.27,4.86,8.85
20,58670962322000,-0.3,4.86,8.81
20,58671012310000,-0.34,4.71,8.92
20,58671062328000,-0.3,4.6,9.0
20,58671112316000,-0.3,4.75,8.96
20,58671162335000,-0.27,4.82,8.89
20,58671212322000,-0.3,4.82,8.81
20,58671262310000,-0.34,4.75,8.89
20,58671312328000,-0.3,4.67,8.92
20,58671362316000,-0.34,4.67,8.92
20,58671412304000,-0.27,4.71,8.92
20,58671462292000,-0.3,4.75,8.92
20,58671512371000,-0.34,4.75,8.85
20,58671562328000,-0.3,4.71,8.96
20,58671672131000,-0.3,4.75,9.0
20,58671672131000,-0.3,4.75,9.0
20,58671722271000,-0.3,4.79,8.85
20,58671772381000,-0.3,4.75,8.85
20,58671822308000,-0.27,4.79,8.89
20,58671872295000,-0.27,4.79,8.85
20,58671932293000,-0.38,4.75,9.0
20,58671982342000,-0.53,4.6,8.92
20,58672032330000,-0.42,4.71,8.92
20,58672082317000,-0.38,4.75,8.92
20,58672132336000,-0.34,4.75,8.89
20,58672182293000,-0.38,4.75,8.96
20,58672232342000,-0.34,4.67,8.92
20,58672282299000,-0.38,4.67,8.89
20,58672332348000,-0.3,4.79,8.81
20,58672382305000,-0.3,4.75,8.81
20,58672432293000,-0.3,4.79,8.89
20,58672482311000,-0.38,4.75,8.89
20,58672532360000,-0.34,4.79,8.96
20,58672582348000,-0.38,4.71,8.92
20,58672632305000,-0.34,4.71,8.92
20,58672682263000,-0.38,4.71,8.92
20,58672732311000,-0.34,4.82,8.92
20,58672782330000,-0.42,4.71,8.96
20,58672832317000,-0.46,4.67,8.96
20,58672882336000,-0.27,4.75,8.85
20,58672932293000,-0.27,4.86,8.77
20,58672982342000,-0.42,4.82,8.92
20,58673032330000,-0.38,4.71,8.85
20,58673082317000,-0.34,4.71,8.92
20,58673132305000,-0.46,4.71,8.92
20,58673182324000,-0.34,4.82,8.89
20,58673232342000,-0.42,4.79,8.92
20,58673282330000,-0.57,4.6,8.96
20,58673332348000,-0.69,4.37,9.08
20,58673382336000,-0.57,4.48,9.11
20,58673432324000,-0.38,4.52,9.0
20,58673482342000,-0.42,4.48,8.96
20,58673532330000,-0.42,4.44,9.08
20,58673582348000,-0.61,4.37,8.96
20,58673632336000,-0.72,4.52,9.08
20,58673682324000,-1.04,4.33,9.0
20,58673732372000,-0.42,4.75,9.04
20,58673782360000,-0.53,4.79,8.89
20,58673832378000,-0.65,4.94,9.04
20,58673882336000,-0.53,4.9,9.38
20,58673932324000,-0.65,4.56,9.28
20,58673982342000,-0.42,4.02,8.89
20,58674032330000,-0.23,4.25,8.92
20,58674082348000,-0.04,4.63,9.19
20,58674132366000,0.38,4.56,8.96
20,58674182324000,-0.04,4.06,9.15
20,58674232372000,-0.08,3.79,9.08
20,58674282330000,0.46,3.91,8.92
20,58674332348000,0.19,3.95,8.85
20,58674382366000,-0.42,3.79,9.53
20,58674432324000,-0.19,4.21,9.19
20,58674482403000,0.23,4.29,8.77
20,58674532360000,0.99,4.71,8.2
20,58674582348000,1.88,5.67,8.08
20,58674632336000,2.15,5.52,8.54
20,58674682354000,1.31,4.71,8.31
20,58674732372000,0.53,4.79,8.43
20,58674782299000,0.15,4.79,9.04
20,58674832348000,-0.99,4.37,9.72
20,58674882336000,-1.95,3.99,9.81
20,58674932324000,-1.84,3.76,9.47
20,58674982342000,-1.42,4.02,9.58
20,58675032360000,-0.61,4.06,9.34
20,58675082348000,-0.11,4.33,9.08
20,58675132336000,0.08,4.37,8.89
20,58675182324000,0.08,4.52,8.96
20,58675232342000,0.11,4.67,8.77
20,58675282269000,0.0,4.75,8.81
20,58675332378000,0.15,4.86,8.73
20,58675382336000,0.34,5.09,8.5
20,58675432293000,0.5,5.13,8.5
20,58675482342000,0.69,5.37,8.43
20,58675532299000,0.95,5.37,8.28
20,58675582348000,1.04,5.48,8.28
20,58675632366000,1.14,5.56,8.24
20,58675682324000,1.08,5.6,8.2
20,58675732372000,0.89,5.56,8.28
20,58675782299000,0.89,5.48,8.43
20,58675832348000,0.95,5.43,8.31
20,58675882305000,0.95,5.48,8.28
20,58675932324000,1.14,5.63,8.24
20,58675982342000,1.12,5.56,8.2
20,58676032330000,0.95,5.52,8.31
20,58676082348000,0.93,5.48,8.35
20,58676132305000,0.89,5.48,8.35
20,58676182293000,0.93,5.43,8.35
20,58676232342000,0.95,5.48,8.31
20,58676232342000,0.95,5.48,8.31
20,58676232342000,0.95,5.48,8.31
20,58676382305000,0.89,5.43,8.43
20,58676432324000,0.84,5.48,8.28
20,58676482311000,1.04,5.56,8.28
20,58676532299000,1.08,5.56,8.28
20,58676532299000,1.08,5.56,8.28
20,58676632305000,1.04,5.52,8.28
20,58676700329000,1.04,5.48,8.39
20,58676752270000,0.93,5.41,8.35
20,58676802288000,0.99,5.52,8.35
20,58676852306000,0.99,5.56,8.28
20,58676902294000,1.04,5.48,8.28
20,58676952282000,0.95,5.43,8.28
20,58676952282000,0.95,5.43,8.28
20,58677052288000,1.04,5.52,8.28
20,58677102306000,1.14,5.6,8.16
20,58677152264000,1.18,5.6,8.16
20,58677202313000,1.14,5.48,8.2
20,58677252270000,1.08,5.48,8.24
20,58677302319000,0.95,5.41,8.31
20,58677352276000,0.95,5.56,8.35
20,58677402264000,0.99,5.56,8.24
20,58677452282000,1.04,5.56,8.24
20,58677502300000,1.14,5.56,8.2
20,58677552319000,1.14,5.52,8.28
20,58677602276000,1.14,5.52,8.24
20,58677652264000,1.04,5.52,8.28
20,58677702282000,0.93,5.52,8.31
20,58677752270000,0.89,5.48,8.31
20,58677752270000,0.89,5.48,8.31
20,58677852306000,0.93,5.41,8.35
20,58677902294000,0.89,5.37,8.39
20,58677952282000,0.76,5.37,8.47
20,58678002544000,0.72,5.37,8.35
20,58678052319000,0.69,5.33,8.47
20,58678102306000,0.84,5.37,8.39
20,58678152264000,0.84,5.33,8.35
20,58678202282000,0.8,5.33,8.35
20,58678252270000,0.8,5.33,8.39
20,58678302319000,0.72,5.28,8.43
20,58678352276000,0.76,5.28,8.39
20,58678402294000,0.8,5.37,8.43
20,58678452313000,0.76,5.33,8.43
20,58678452313000,0.76,5.33,8.43
20,58678552288000,0.72,5.33,8.47
20,58678602306000,0.57,5.22,8.5
20,58678652294000,0.69,5.28,8.43
20,58678702313000,0.76,5.24,8.39
20,58678752300000,0.72,5.22,8.5
20,58678802288000,0.61,5.22,8.54
20,58678852306000,0.53,5.22,8.47
20,58678902294000,0.76,5.13,8.58
20,58678952313000,0.61,5.09,8.43
20,58679002300000,0.42,5.05,8.62
20,58679052319000,0.42,5.01,8.66
20,58679102306000,0.46,5.05,8.62
20,58679152294000,0.53,5.01,8.62
20,58679202282000,0.5,5.01,8.62
20,58679252300000,0.42,5.01,8.62
20,58679302319000,0.53,5.05,8.69
20,58679352306000,0.61,5.09,8.62
20,58679402264000,0.46,5.09,8.62
20,58679452282000,0.57,5.09,8.62
20,58679502270000,0.65,5.09,8.58
20,58679552319000,0.57,5.09,8.58
20,58679552319000,0.57,5.09,8.58
20,58679652203000,0.69,5.05,8.58
20,58679702313000,0.8,5.09,8.58
20,58679752270000,0.84,5.01,8.58
20,58679802319000,0.95,5.05,8.62
20,58679852306000,0.95,4.94,8.62
20,58679902264000,1.12,4.82,8.62
20,58679952313000,1.08,4.75,8.69
20,58680002514000,1.04,4.75,8.69
20,58680052319000,1.18,4.79,8.69
20,58680102367000,1.23,4.75,8.62
20,58680152294000,1.33,4.71,8.58
20,58680202282000,1.33,4.56,8.5
20,58680252270000,1.33,4.4,8.54
20,58680252270000,1.33,4.4,8.54
20,58680312267000,1.04,3.95,8.66
20,58680363354000,0.57,3.79,9.15
20,58680422375000,0.23,4.06,9.38
20,58680482281000,0.23,4.48,9.15
20,58680532299000,0.23,4.67,8.96
20,58680582348000,0.42,4.82,8.89
20,58680632336000,0.53,4.99,8.69
20,58680682293000,0.53,4.99,8.58
20,58680732311000,0.46,4.94,8.58
20,58680782330000,0.38,4.82,8.66
20,58680832348000,0.34,4.79,8.69
20,58680882305000,0.27,4.82,8.69
20,58680932324000,0.19,4.86,8.81
20,58680982342000,0.27,4.94,8.73
20,58681032330000,0.31,4.82,8.66
20,58681082287000,0.19,4.82,8.66
20,58681132275000,0.19,4.9,8.66
20,58681182293000,0.27,4.9,8.62
20,58681232342000,0.19,4.86,8.69
20,58681282238000,0.23,4.79,8.77
20,58681332348000,0.19,4.86,8.73
20,58681382336000,0.23,4.82,8.69
20,58681432293000,0.23,4.82,8.73
20,58681482342000,0.19,4.75,8.69
20,58681532330000,0.27,4.82,8.73
20,58681582317000,0.27,4.9,8.69
20,58681632336000,0.19,4.82,8.73
20,58681682324000,0.15,4.79,8.77
20,58681732311000,0.19,4.75,8.77
20,58681782330000,0.15,4.82,8.69
20,58681832256000,0.23,4.86,8.73
20,58681882275000,0.19,4.86,8.73
20,58681932293000,0.19,4.82,8.73
20,58681982342000,0.23,4.82,8.77
20,58682032299000,0.19,4.82,8.69
20,58682082348000,0.15,4.86,8.62
20,58682132305000,0.23,4.86,8.69
20,58682182354000,0.15,4.82,8.62
20,58682232342000,0.23,4.86,8.73
20,58682282269000,0.23,4.86,8.69
20,58682332317000,0.19,4.86,8.73
20,58682382305000,0.15,4.82,8.73
20,58682432293000,0.11,4.82,8.66
20,58682482342000,0.23,4.86,8.77
20,58682532299000,0.19,4.94,8.69
20,58682582317000,0.15,4.94,8.69
20,58682632336000,0.11,4.9,8.77
20,58682682293000,0.08,4.9,8.73
20,58682732311000,0.11,4.9,8.58
20,58682782330000,0.15,4.99,8.66
20,58682832317000,0.15,5.01,8.62
20,58682832317000,0.15,5.01,8.62
20,58682932324000,0.15,4.99,8.73
20,58682982342000,0.0,4.82,8.81
20,58683032299000,0.04,4.79,8.73
20,58683082317000,-0.04,4.9,8.73
20,58683132305000,0.08,4.9,8.69
20,58683182324000,0.19,4.99,8.66
20,58683232311000,0.15,4.99,8.58
20,58683282330000,0.11,4.94,8.62
20,58683332348000,0.19,4.99,8.66
20,58683382305000,0.15,4.99,8.66
20,58683432263000,0.15,4.9,8.66
20,58683482311000,0.15,4.99,8.73
20,58683532330000,0.11,4.94,8.66
20,58683532330000,0.11,4.94,8.66
20,58683632305000,0.15,4.99,8.73
20,58683682324000,0.11,4.94,8.69
20,58683732311000,0.08,4.99,8.69
20,58683782299000,0.04,4.99,8.66
20,58683832287000,0.08,4.99,8.66
20,58683882305000,0.08,5.01,8.66
20,58683932293000,0.15,5.05,8.66
20,58683982342000,0.27,5.05,8.54
20,58684032269000,0.27,5.05,8.58
20,58684082317000,0.19,5.05,8.58
20,58684132336000,0.08,4.99,8.66
20,58684182324000,0.19,5.01,8.69
20,58684232311000,0.11,5.01,8.69
20,58684282299000,0.04,4.9,8.77
20,58684332348000,0.11,4.99,8.69
20,58684382305000,0.23,5.01,8.54
20,58684432293000,0.19,5.01,8.69
20,58684482342000,0.15,4.99,8.58
20,58684532330000,0.08,4.94,8.69
20,58684582317000,0.0,4.94,8.73
20,58684642315000,0.08,4.86,8.81
20,58684692272000,0.08,4.94,8.69
20,58684742291000,0.11,4.99,8.69
20,58684792309000,0.11,4.9,8.66
20,58684842297000,0.15,4.99,8.66
20,58684892315000,0.15,5.01,8.73
20,58684942333000,0.11,4.94,8.62
20,58684992321000,0.04,4.9,8.73
20,58685042309000,0.08,4.9,8.69
20,58685092327000,0.11,4.99,8.66
20,58685142346000,0.08,4.94,8.69
20,58685192303000,0.11,5.01,8.69
20,58685242321000,0.15,4.99,8.62
20,58685302288000,0.19,5.01,8.58
20,58685352306000,0.04,4.79,8.81
20,58685402325000,-0.04,4.86,8.77
20,58685452313000,0.11,5.01,8.66
20,58685502300000,0.34,5.09,8.54
20,58685552319000,0.38,5.09,8.58
20,58685602306000,0.19,4.94,8.62
20,58685652294000,-0.08,4.79,8.81
20,58685702313000,0.0,4.9,8.73
20,58685752300000,0.15,5.05,8.62
20,58685802319000,0.27,5.05,8.54
20,58685852306000,0.19,4.9,8.66
20,58685902294000,-0.04,4.82,8.81
20,58685952313000,0.0,4.86,8.77
20,58686002514000,0.15,4.99,8.66
20,58686052319000,0.19,5.05,8.5
20,58686102306000,0.15,4.99,8.58
20,58686152294000,0.08,5.01,8.62
20,58686202282000,0.08,5.01,8.69
20,58686252422000,0.11,4.94,8.73
20,58686302288000,0.15,4.94,8.66
20,58686352306000,0.15,5.01,8.62
20,58686402294000,0.11,4.99,8.62
20,58686452282000,0.11,4.99,8.66
20,58686502270000,0.11,5.01,8.62
20,58686552349000,0.08,4.99,8.66
20,58686602276000,0.08,4.9,8.66
20,58686652264000,0.08,4.99,8.69
20,58686702282000,0.11,4.99,8.58
20,58686752300000,0.11,4.94,8.69
20,58686802288000,0.08,4.94,8.69
20,58686852276000,0.08,4.94,8.73
20,58686902325000,0.08,4.9,8.62
20,58686952343000,0.11,5.01,8.69
20,58687002270000,0.11,5.01,8.58
20,58687052319000,0.19,4.99,8.73
20,58687102337000,0.11,4.9,8.69
20,58687152264000,0.04,4.94,8.69
20,58687202374000,0.11,4.9,8.73
20,58687252300000,0.15,4.99,8.69
20,58687302319000,0.08,4.99,8.69
20,58687352276000,0.11,4.94,8.69
20,58687402355000,0.15,4.94,8.73
20,58687452282000,0.11,4.9,8.69
20,58687502270000,0.15,4.99,8.66
20,58687552288000,0.15,5.01,8.66
20,58687602276000,0.19,4.99,8.66
20,58687652264000,0.15,4.99,8.73
20,58687702343000,0.11,4.94,8.66
20,58687752270000,0.04,4.94,8.73
20,58687802288000,0.11,4.94,8.73
20,58687852276000,0.11,4.94,8.66
20,58687852276000,0.11,4.94,8.66
20,58687952282000,0.15,4.94,8.73
20,58688002514000,0.11,4.94,8.73
20,58688052349000,0.15,4.99,8.66
20,58688102276000,0.15,4.99,8.73
20,58688152294000,0.15,4.94,8.69
20,58688202313000,0.11,4.9,8.66
20,58688252270000,0.11,4.9,8.81
20,58688302288000,0.11,4.94,8.69
20,58688352276000,0.11,4.9,8.66
20,58688402264000,0.11,4.86,8.66
20,58688452313000,0.15,4.9,8.69
20,58688502270000,0.11,4.9,8.73
20,58688552319000,0.11,4.94,8.69
20,58688552319000,0.11,4.94,8.69
20,58688652264000,0.15,4.94,8.66
20,58688702282000,0.11,4.94,8.66
20,58688752270000,0.08,4.94,8.69
20,58688802288000,0.08,4.99,8.66
20,58688852306000,0.04,4.99,8.69
20,58688902264000,0.04,4.94,8.69
20,58688952282000,0.04,4.99,8.66
20,58689002300000,0.04,4.94,8.69
20,58689052319000,0.15,4.94,8.73
20,58689102276000,0.11,4.94,8.62
20,58689152294000,0.11,4.99,8.73
20,58689202343000,0.04,4.99,8.66
20,58689252300000,-0.08,4.86,8.81
20,58689302288000,0.08,4.86,8.85
20,58689352276000,0.15,4.86,8.73
20,58689402294000,0.23,4.9,8.66
20,58689452282000,0.27,4.94,8.66
20,58689502300000,0.38,5.01,8.62
20,58689552319000,0.34,4.9,8.69
20,58689602306000,0.11,4.67,8.85
20,58689652294000,0.31,4.75,8.73
20,58689702282000,0.27,4.86,8.73
20,58689752300000,0.15,4.75,8.77
20,58689802319000,0.38,4.79,8.66
20,58689852337000,0.31,4.82,8.77
20,58689902416000,0.53,4.79,8.69
20,58689952313000,0.61,4.9,8.66
20,58690002544000,0.72,4.86,8.66
20,58690052349000,0.72,4.75,8.54
20,58690102276000,0.8,4.79,8.54
20,58690152325000,0.89,5.05,8.5
20,58690202313000,0.72,4.79,8.39
20,58690252300000,0.76,5.01,8.5
20,58690302319000,0.65,5.22,8.69
20,58690352276000,0.65,4.99,8.35
20,58690402294000,0.65,5.24,8.43
20,58690452313000,0.57,5.43,8.54
20,58690502300000,0.38,5.48,8.5
20,58690552319000,0.23,5.48,8.54
20,58690602306000,0.27,5.41,8.5
20,58690652294000,0.42,5.52,8.39
20,58690702313000,0.53,5.56,8.35
20,58690752300000,0.57,5.52,8.31
20,58690802319000,0.5,5.41,8.35
20,58690852306000,0.38,5.43,8.39
20,58690902294000,0.42,5.48,8.43
20,58690952343000,0.46,5.56,8.39
20,58691002300000,0.93,5.6,8.2
20,58691052319000,1.33,5.63,8.01
20,58691102306000,1.46,5.56,8.05
20,58691152264000,1.31,5.6,8.05
20,58691202282000,1.08,5.6,8.05
20,58691252270000,0.84,5.6,8.28
20,58691302288000,0.95,5.56,8.28
20,58691352276000,0.95,5.56,8.24
20,58691402294000,0.76,5.52,8.31
20,58691452313000,0.84,5.56,8.35
20,58691502300000,0.8,5.6,8.2
20,58691552319000,0.99,5.63,8.16
20,58691602306000,1.04,5.56,8.2
20,58691652294000,0.89,5.37,8.31
20,58691702313000,0.93,5.43,8.28
20,58691752270000,0.89,5.48,8.28
20,58691802288000,0.8,5.52,8.28
20,58691852276000,0.76,5.52,8.28
20,58691902264000,0.89,5.52,8.31
20,58691952313000,0.8,5.56,8.35
20,58692002880000,0.65,5.52,8.35
20,58692052288000,0.65,5.52,8.39
20,58692102306000,0.69,5.6,8.35
20,58692152294000,0.93,5.67,8.08
20,58692202313000,1.42,5.79,8.01
20,58692252300000,1.14,5.48,8.2
20,58692302319000,0.31,5.41,8.43
20,58692352306000,0.65,5.52,8.24
20,58692402294000,1.04,5.79,8.2
20,58692461010000,0.93,5.83,8.01
20,58692461010000,0.93,5.83,8.01
20,58692512310000,0.89,5.67,8.08
20,58692562328000,0.93,5.63,8.31
20,58692612347000,0.84,5.63,8.24
20,58692662335000,0.69,5.6,8.31
20,58692712322000,0.8,5.56,8.28
20,58692762341000,0.72,5.6,8.24
20,58692812328000,0.93,5.71,8.12
20,58692862347000,1.12,5.63,8.05
20,58692912335000,0.95,5.6,8.2
20,58692962322000,0.89,5.67,8.16
20,58693012341000,0.99,5.63,8.12
20,58693062328000,1.04,5.71,8.08
20,58693112347000,1.08,5.71,8.12
20,58693162335000,0.99,5.63,8.2
20,58693212322000,0.89,5.67,8.28
20,58693262341000,0.72,5.6,8.2
20,58693312359000,0.8,5.67,8.28
20,58693362347000,0.89,5.67,8.16
20,58693412304000,0.95,5.67,8.12
20,58693462322000,1.08,5.67,8.08
20,58693512310000,1.08,5.71,8.08
20,58693562328000,1.04,5.63,8.12
20,58693612347000,0.8,5.63,8.2
20,58693662335000,0.76,5.67,8.24
20,58693712292000,0.93,5.67,8.16
20,58693762341000,0.99,5.71,8.16
20,58693812298000,0.99,5.67,8.12
20,58693862347000,0.95,5.71,8.12
20,58693912304000,0.95,5.71,8.16
20,58693962322000,0.95,5.75,8.16
20,58694012280000,1.12,5.75,8.05
20,58694062298000,1.08,5.75,8.05
20,58694112316000,1.14,5.79,8.05
20,58694162335000,1.04,5.75,8.16
20,58694212292000,0.89,5.63,8.16
20,58694262341000,0.95,5.67,8.2
20,58694312389000,1.04,5.75,8.16
20,58694362347000,1.04,5.71,8.05
20,58694412335000,1.12,5.75,8.12
20,58694462292000,1.12,5.71,8.08
20,58694512310000,0.99,5.71,8.08
20,58694562298000,0.99,5.71,8.16
20,58694612347000,0.95,5.67,8.12
20,58694662304000,1.04,5.67,8.12
20,58694712322000,0.99,5.71,8.16
20,58694762341000,0.95,5.63,8.16
20,58694762341000,0.95,5.63,8.16
20,58694863781000,0.89,5.63,8.2
20,58694922375000,0.84,5.6,8.28
20,58694982311000,0.89,5.6,8.2
20,58695032238000,0.8,5.6,8.2
20,58695082317000,0.8,5.56,8.2
20,58695132336000,0.84,5.6,8.16
20,58695182324000,0.95,5.63,8.08
20,58695232311000,0.95,5.6,8.12
20,58695282269000,0.93,5.56,8.16
20,58695352367000,0.89,5.56,8.24
20,58695402233000,0.84,5.56,8.24
20,58695452343000,0.72,5.43,8.31
20,58695502270000,0.69,5.48,8.35
20,58695552319000,0.8,5.52,8.28
20,58695602276000,0.72,5.52,8.31
20,58695652355000,0.76,5.48,8.31
20,58695702313000,0.61,5.37,8.35
20,58695752270000,0.69,5.37,8.35
20,58695802319000,0.57,5.33,8.35
20,58695852306000,0.34,5.28,8.43
20,58695902294000,0.34,5.24,8.5
20,58695952313000,0.31,5.18,8.54
20,58696002514000,0.19,5.05,8.58
20,58696052349000,0.11,5.01,8.66
20,58696102276000,0.08,5.01,8.58
20,58696152294000,0.11,5.13,8.69
20,58696202343000,0.19,5.01,8.77
20,58696252300000,0.11,4.82,8.66
20,58696302319000,-0.04,4.75,8.58
20,58696352306000,-0.08,4.86,8.73
20,58696402294000,-0.19,4.6,8.96
20,58696452313000,-0.08,4.67,8.89
20,58696502300000,-0.27,4.86,9.43
20,58696552319000,-0.57,4.63,9.47
20,58696602306000,-0.95,4.56,9.62
20,58696652294000,-0.53,4.4,9.51
20,58696702313000,-0.19,3.76,9.15
20,58696752300000,0.04,3.64,8.96
20,58696802319000,0.31,3.57,9.11
20,58696852337000,0.5,3.41,9.04
20,58696902294000,0.57,3.49,8.96
20,58696952313000,0.89,4.06,8.69
20,58697002300000,0.89,4.48,8.39
20,58697052319000,1.12,4.99,8.24
20,58697102306000,1.42,5.09,8.28
20,58697152294000,1.23,4.48,8.81
20,58697202313000,0.38,4.29,9.08
20,58697252300000,-0.11,4.71,9.53
20,58697302288000,-0.65,4.71,9.34
20,58697352306000,-1.31,4.14,9.43
20,58697402294000,-2.03,3.6,9.62
20,58697452313000,-1.5,3.45,9.51
20,58697502300000,-0.95,3.72,9.72
20,58697552319000,-0.42,3.6,9.34
20,58697602306000,-0.08,3.91,9.04
20,58697652294000,-0.11,4.14,9.28
20,58697702313000,-0.15,4.02,9.19
20,58697752270000,-0.08,3.99,9.19
20,58697802288000,-0.19,3.99,9.3
20,58697852306000,-0.38,3.95,9.28
20,58697902294000,-0.34,3.99,9.34
20,58697952313000,-0.23,3.95,9.3
20,58698002758000,-0.23,3.99,9.28
20,58698052319000,-0.15,4.14,9.28
20,58698102276000,-0.19,4.14,9.28
20,58698152325000,-0.15,4.06,9.23
20,58698202282000,-0.15,4.02,9.28
20,58698252300000,-0.23,3.95,9.3
20,58698302319000,-0.27,3.99,9.38
20,58698352276000,-0.27,3.99,9.3
20,58698402294000,-0.3,4.02,9.34
20,58698452282000,-0.23,4.02,9.34
20,58698502300000,-0.15,3.99,9.28
20,58698552319000,-0.23,3.95,9.3
20,58698602306000,-0.19,3.99,9.3
20,58698652264000,-0.23,4.02,9.3
20,58698702343000,-0.19,3.99,9.28
20,58698752300000,-0.15,4.02,9.28
20,58698802319000,-0.27,3.99,9.3
20,58698852306000,-0.23,3.99,9.3
20,58698902294000,-0.23,4.1,9.34
20,58698952313000,-0.15,4.02,9.3
20,58699002270000,-0.15,4.02,9.34
20,58699052319000,-0.3,3.99,9.34
20,58699102306000,-0.27,4.02,9.38
20,58699152264000,-0.15,4.02,9.28
20,58699202282000,-0.15,4.02,9.23
20,58699252270000,-0.23,4.02,9.3
20,58699302288000,-0.27,3.99,9.3
20,58699352306000,-0.19,4.06,9.28
20,58699402294000,-0.3,4.02,9.3
20,58699452313000,-0.11,4.1,9.23
20,58699502270000,-0.15,4.1,9.23
20,58699552319000,-0.23,4.02,9.28
20,58699602276000,-0.27,4.02,9.3
20,58699652264000,-0.27,3.99,9.3
20,58699702282000,-0.27,3.99,9.34
20,58699752331000,-0.15,4.06,9.28
20,58699802288000,-0.19,4.06,9.34
20,58699852306000,-0.23,3.99,9.34
20,58699902294000,-0.27,3.95,9.28
20,58699952313000,-0.19,4.02,9.23
20,58700002636000,-0.15,4.1,9.28
20,58700052288000,-0.15,4.06,9.28
20,58700102276000,-0.15,4.1,9.3
20,58700152294000,-0.23,4.02,9.23
20,58700202313000,-0.27,3.99,9.34
20,58700252270000,-0.23,4.02,9.34
20,58700302288000,-0.27,4.02,9.28
20,58700352306000,-0.23,3.99,9.28
20,58700352306000,-0.23,3.99,9.28
20,58700422344000,-0.27,3.95,9.28
20,58700472271000,-0.23,3.99,9.28
20,58700522320000,-0.27,3.99,9.28
20,58700583050000,-0.27,3.99,9.3
20,58700632305000,-0.19,4.02,9.3
20,58700682324000,-0.19,4.06,9.28
20,58700732342000,-0.15,4.1,9.23
20,58700782360000,-0.19,4.06,9.3
20,58700832317000,-0.19,4.02,9.3
20,58700882305000,-0.19,4.02,9.28
20,58700882305000,-0.19,4.02,9.28
20,58700982311000,-0.19,4.06,9.23
20,58701032269000,-0.19,3.99,9.28
20,58701082348000,-0.19,4.1,9.23
20,58701132305000,-0.19,4.14,9.19
20,58701182293000,-0.08,4.1,9.19
20,58701232311000,-0.15,4.02,9.19
20,58701282238000,-0.27,3.99,9.3
20,58701332348000,-0.15,4.06,9.28
20,58701382305000,-0.19,4.1,9.28
20,58701432324000,-0.15,4.14,9.28
20,58701482311000,-0.15,4.1,9.23
20,58701532482000,-0.19,4.1,9.28
20,58701582348000,-0.27,3.99,9.3
20,58701632275000,-0.19,3.99,9.3
20,58701682324000,-0.11,4.1,9.15
20,58701732311000,-0.04,4.18,9.15
20,58701782299000,-0.08,4.14,9.15
20,58701832317000,-0.04,4.14,9.11
20,58701882305000,-0.11,4.14,9.11
20,58701932324000,-0.08,4.18,9.19
20,58701982342000,-0.15,4.06,9.19
20,58702032299000,-0.11,4.1,9.19
20,58702082378000,-0.08,4.14,9.15
20,58702132336000,-0.04,4.1,9.19
20,58702182293000,-0.08,4.14,9.19
20,58702232311000,-0.11,4.1,9.19
20,58702282330000,-0.15,4.02,9.28
20,58702332317000,-0.15,4.02,9.23
20,58702382305000,-0.11,4.1,9.23
20,58702432293000,-0.11,4.06,9.23
20,58702482311000,-0.15,4.06,9.28
20,58702532299000,-0.08,4.1,9.19
20,58702582348000,0.0,4.18,9.23
20,58702632336000,-0.08,4.1,9.19
20,58702682293000,-0.04,4.1,9.28
20,58702732647000,-0.08,4.06,9.19
20,58702782299000,-0.08,3.99,9.23
20,58702832317000,-0.08,4.02,9.19
20,58702882305000,-0.08,4.06,9.28
20,58702932324000,-0.04,3.95,9.3
20,58703002331000,-0.11,3.95,9.3
20,58703052288000,-0.11,3.99,9.34
20,58703102367000,0.0,4.06,9.19
20,58703152264000,-0.11,4.06,9.3
20,58703202282000,-0.23,4.06,9.3
20,58703252270000,-0.19,4.06,9.3
20,58703302319000,-0.15,3.99,9.23
20,58703352276000,-0.04,4.02,9.23
20,58703402294000,0.0,4.1,9.15
20,58703452282000,0.0,4.14,9.15
20,58703502300000,0.04,4.06,9.19
20,58703552288000,0.04,4.1,9.19
20,58703602306000,-0.08,4.1,9.19
20,58703652264000,0.0,4.29,9.19
20,58703702313000,-0.04,4.18,9.15
20,58703752270000,0.0,4.18,9.11
20,58703802288000,0.08,4.06,9.11
20,58703852306000,0.0,4.06,9.23
20,58703902264000,-0.11,4.06,9.28
20,58703952282000,-0.15,4.06,9.3
20,58704002667000,-0.15,4.1,9.23
20,58704052288000,-0.15,4.1,9.28
20,58704102306000,-0.08,4.14,9.28
20,58704152325000,-0.08,4.06,9.23
20,58704202313000,-0.19,3.95,9.38
20,58704252300000,-0.3,3.76,9.38
20,58704302349000,-0.42,3.76,9.38
20,58704352306000,-0.38,3.76,9.43
20,58704402294000,-0.3,3.76,9.38
20,58704452313000,-0.38,3.79,9.43
20,58704502300000,-0.3,3.79,9.34
20,58704552349000,-0.27,3.83,9.43
20,58704602276000,-0.3,3.87,9.43
20,58704652294000,-0.42,3.76,9.43
20,58704702313000,-0.27,3.83,9.38
20,58704752300000,-0.23,3.83,9.34
20,58704802319000,-0.27,3.87,9.38
20,58704852337000,-0.3,3.95,9.38
20,58704902355000,-0.38,3.83,9.47
20,58704952343000,-0.42,3.79,9.38
20,58705002331000,-0.42,3.87,9.43
20,58705052319000,-0.34,3.79,9.34
20,58705102276000,-0.27,3.79,9.38
20,58705152264000,-0.27,3.83,9.3
20,58705202313000,-0.3,3.79,9.38
20,58705252331000,-0.27,3.83,9.43
20,58705302349000,-0.3,3.79,9.38
20,58705352306000,-0.27,3.83,9.34
20,58705402264000,-0.3,3.83,9.34
20,58705452313000,-0.34,3.83,9.43
20,58705502300000,-0.42,3.76,9.43
20,58705552319000,-0.34,3.79,9.43
20,58705602306000,-0.3,3.79,9.38
20,58705652264000,-0.3,3.83,9.38
20,58705702282000,-0.3,3.83,9.34
20,58705752300000,-0.27,3.87,9.38
20,58705752300000,-0.27,3.87,9.38
20,58705852306000,-0.3,3.83,9.38
20,58705902294000,-0.34,3.79,9.43
20,58705952343000,-0.3,3.83,9.38
20,58706002483000,-0.3,3.79,9.38
20,58706052288000,-0.3,3.83,9.34
20,58706102276000,-0.23,3.87,9.34
20,58706152264000,-0.23,3.87,9.38
20,58706202313000,-0.27,3.91,9.38
20,58706252270000,-0.3,3.87,9.38
20,58706302258000,-0.3,3.83,9.38
20,58706352276000,-0.3,3.79,9.38
20,58706402294000,-0.34,3.87,9.3
20,58706452313000,-0.23,3.87,9.38
20,58706502270000,-0.27,3.91,9.38
20,58706552319000,-0.3,3.95,9.34
20,58706602276000,-0.27,3.87,9.34
20,58706652660000,-0.23,3.87,9.3
20,58706702282000,-0.3,3.87,9.38
20,58706752270000,-0.3,3.87,9.34
20,58706802288000,-0.3,3.87,9.38
20,58706852306000,-0.27,3.91,9.34
20,58706902355000,-0.19,3.87,9.34
20,58706952282000,-0.19,3.87,9.38
20,58707002270000,-0.27,3.87,9.38
20,58707052319000,-0.3,3.91,9.34
20,58707102306000,-0.34,3.87,9.38
20,58707152264000,-0.34,3.83,9.34
20,58707202282000,-0.27,3.87,9.34
20,58707252300000,-0.19,3.91,9.3
20,58707302288000,-0.15,3.95,9.3
20,58707352276000,-0.15,3.99,9.28
20,58707402294000,-0.11,4.02,9.3
20,58707452282000,-0.15,4.02,9.3
20,58707502270000,-0.11,4.02,9.28
20,58707502270000,-0.11,4.02,9.28
20,58707602306000,-0.08,4.06,9.19
20,58707652294000,0.0,4.21,9.15
20,58707702282000,0.0,4.21,9.11
20,58707752270000,0.08,4.21,9.15
20,58707802319000,0.04,4.18,9.19
20,58707852306000,0.11,4.21,9.08
20,58707902264000,0.11,4.29,9.08
20,58707952282000,0.11,4.25,9.08
20,58708002789000,0.23,4.33,9.04
20,58708002789000,0.23,4.33,9.04
20,58708072338000,0.19,4.29,9.08
20,58708122295000,0.04,4.21,9.19
20,58708172253000,0.0,4.18,9.19
20,58708232281000,-0.04,4.1,9.19
20,58708282299000,0.04,4.21,9.19
20,58708332317000,0.04,4.14,9.15
20,58708382275000,0.08,4.14,9.15
20,58708432324000,0.04,4.1,9.23
20,58708482311000,-0.08,4.1,9.23
20,58708532269000,-0.04,4.18,9.23
20,58708582317000,-0.04,4.1,9.28
20,58708632336000,0.04,4.14,9.23
20,58708682293000,0.08,4.14,9.15
20,58708732281000,0.04,4.14,9.15
20,58708782360000,0.0,4.14,9.28
20,58708832317000,-0.04,4.14,9.23
20,58708832317000,-0.04,4.14,9.23
20,58708932324000,0.0,4.21,9.19
20,58708982311000,0.08,4.21,9.15
20,58708982311000,0.08,4.21,9.15
20,58709082317000,0.04,4.21,9.11
20,58709132305000,0.04,4.18,9.23
20,58709182293000,0.08,4.18,9.15
20,58709232342000,0.04,4.21,9.19
20,58709282330000,0.0,4.18,9.23
20,58709332348000,-0.08,4.14,9.28
20,58709382336000,0.0,4.18,9.19
20,58709432293000,0.08,4.18,9.15
20,58709482311000,0.08,4.14,9.08
20,58709532269000,0.04,4.14,9.11
20,58709582348000,-0.04,4.18,9.19
20,58709632336000,-0.08,4.14,9.23
20,58709682324000,0.0,4.1,9.19
20,58709732281000,0.0,4.1,9.23
20,58709782330000,0.04,4.14,9.11
20,58709832348000,0.0,4.14,9.15
20,58709882275000,0.0,4.06,9.19
20,58709932263000,0.0,4.06,9.23
20,58709982403000,0.04,4.14,9.23
20,58710032238000,0.0,4.14,9.15
20,58710082440000,-0.04,4.1,9.11
20,58710132305000,0.0,4.1,9.15
20,58710182293000,-0.04,4.1,9.19
20,58710232311000,-0.04,4.06,9.15
20,58710285687000,0.0,4.1,9.23
20,58710342297000,0.08,4.18,9.11
20,58710392346000,0.04,4.14,9.23
20,58710442303000,-0.04,4.06,9.23
20,58710442303000,-0.04,4.06,9.23
20,58710542339000,0.04,4.1,9.23
20,58710592297000,0.04,4.14,9.19
20,58710652325000,0.04,4.14,9.15
20,58710652325000,0.04,4.14,9.15
20,58710752300000,0.11,4.21,9.15
20,58710802258000,0.08,4.18,9.15
20,58710852306000,0.04,4.14,9.15
20,58710902264000,0.0,4.14,9.11
20,58710952282000,0.0,4.1,9.19
20,58711002300000,0.08,4.14,9.11
20,58711052349000,0.04,4.18,9.15
20,58711102337000,0.11,4.21,9.11
20,58711152325000,0.08,4.18,9.15
20,58711202313000,0.0,4.1,9.23
20,58711252270000,0.0,4.06,9.19
20,58711302349000,0.04,4.1,9.23
20,58711352306000,0.08,4.14,9.15
20,58711402264000,0.04,4.14,9.23
20,58711452313000,0.08,4.18,9.15
20,58711502270000,0.08,4.25,9.11
20,58711552349000,0.11,4.33,9.04
20,58711602276000,0.11,4.37,9.11
20,58711652294000,0.19,4.4,9.04
20,58711702313000,0.31,4.48,8.96
20,58711752300000,0.46,4.56,8.92
20,58711802319000,0.53,4.6,8.85
20,58711852306000,0.57,4.63,8.89
20,58711902325000,0.72,4.75,8.81
20,58711952313000,0.76,4.82,8.73
20,58712002575000,0.89,4.9,8.77
20,58712052319000,0.89,4.99,8.62
20,58712102306000,1.12,5.05,8.54
20,58712152294000,1.14,5.01,8.62
20,58712202282000,1.14,4.94,8.54
20,58712252300000,1.08,5.05,8.62
20,58712302288000,0.84,4.99,8.62
20,58712352276000,0.99,5.05,8.62
20,58712402294000,1.08,5.09,8.54
20,58712452282000,1.08,5.01,8.58
20,58712502300000,1.12,5.05,8.58
20,58712552319000,0.99,5.05,8.62
20,58712602276000,0.93,5.05,8.62
20,58712652294000,0.89,5.01,8.66
20,58712702313000,0.89,5.05,8.58
20,58712752300000,0.99,5.01,8.62
20,58712802288000,0.99,5.01,8.58
20,58712852276000,0.99,5.05,8.58
20,58712902264000,1.04,5.05,8.58
20,58712952313000,0.99,4.99,8.62
20,58713002300000,0.89,5.01,8.66
20,58713052319000,0.93,5.01,8.58
20,58713102306000,0.95,4.99,8.62
20,58713152264000,0.93,4.94,8.62
20,58713202313000,0.93,4.99,8.66
20,58713252270000,0.84,4.9,8.66
20,58713302288000,0.84,4.94,8.69
20,58713352276000,0.8,4.94,8.66
20,58713402294000,0.84,4.94,8.73
20,58713452282000,0.84,4.94,8.62
20,58713502331000,0.89,4.99,8.62
20,58713552319000,0.95,4.94,8.54
20,58713602306000,0.89,4.99,8.58
20,58713652294000,0.84,4.94,8.66
20,58713702313000,0.72,4.86,8.69
20,58713752270000,0.69,4.86,8.69
20,58713802319000,0.8,4.9,8.62
20,58713852306000,0.72,4.86,8.66
20,58713902294000,0.84,4.94,8.62
20,58713952252000,0.84,4.99,8.62
20,58714002544000,0.8,4.99,8.62
20,58714052319000,0.72,4.86,8.62
20,58714102276000,0.76,4.9,8.62
20,58714152264000,0.76,4.86,8.66
20,58714202282000,0.76,4.99,8.62
20,58714252300000,0.69,4.9,8.66
20,58714302288000,0.76,4.9,8.69
20,58714352276000,0.69,4.9,8.58
20,58714402294000,0.8,4.94,8.69
20,58714452313000,0.69,4.9,8.73
20,58714502300000,0.57,4.86,8.69
20,58714552319000,0.57,4.82,8.73
20,58714602306000,0.61,4.82,8.69
20,58714652264000,0.61,4.82,8.73
20,58714702282000,0.69,4.82,8.73
20,58714752300000,0.65,4.82,8.77
20,58714802319000,0.61,4.79,8.69
20,58714852306000,0.53,4.75,8.77
20,58714902294000,0.5,4.75,8.85
20,58714952313000,0.57,4.82,8.69
20,58715002300000,0.69,4.86,8.66
20,58715052288000,0.69,4.9,8.66
20,58715102306000,0.57,4.86,8.69
20,58715152264000,0.57,4.9,8.62
20,58715202313000,0.65,4.79,8.73
20,58715252270000,0.65,4.86,8.73
20,58715302319000,0.42,4.75,8.69
20,58715352276000,0.34,4.75,8.77
20,58715402264000,0.38,4.75,8.81
20,58715452282000,0.34,4.75,8.81
20,58715502300000,0.27,4.6,8.89
20,58715502300000,0.27,4.6,8.89
20,58715602276000,0.15,4.6,8.92
20,58715652264000,0.19,4.56,8.92
20,58715652264000,0.19,4.56,8.92
20,58715722332000,0.23,4.63,8.85
20,58715772289000,0.19,4.67,8.89
20,58715822338000,0.42,4.63,8.89
20,58715882305000,0.23,4.63,8.92
20,58715932324000,0.08,4.67,9.0
20,58715982342000,0.19,4.63,8.77
20,58716032299000,0.5,4.75,8.77
20,58716082317000,0.61,4.75,8.73
20,58716132305000,0.53,4.71,8.73
20,58716182293000,0.31,4.71,8.85
20,58716232311000,0.31,4.75,8.77
20,58716282330000,0.5,4.9,8.73
20,58716332317000,0.53,4.94,8.73
20,58716382336000,0.61,4.9,8.66
20,58716432324000,0.65,4.82,8.77
20,58716482281000,0.5,4.82,8.77
20,58716532299000,0.42,4.82,8.73
20,58716582317000,0.46,4.82,8.69
20,58716632336000,0.5,4.79,8.77
20,58716682293000,0.46,4.79,8.73
20,58716732311000,0.46,4.79,8.77
20,58716782299000,0.38,4.79,8.81
20,58716832348000,0.46,4.75,8.73
20,58716882305000,0.53,4.79,8.73
20,58716882305000,0.53,4.79,8.73
20,58716982311000,0.5,4.79,8.77
20,58717032421000,0.42,4.79,8.77
20,58717082348000,0.46,4.82,8.81
20,58717132336000,0.42,4.79,8.73
20,58717182293000,0.5,4.82,8.73
20,58717232311000,0.57,4.79,8.73
20,58717282330000,0.53,4.82,8.81
20,58717332348000,0.38,4.86,8.77
20,58717382305000,0.38,4.82,8.77
20,58717432324000,0.57,4.79,8.73
20,58717482372000,0.5,4.71,8.77
20,58717532330000,0.38,4.75,8.69
20,58717582378000,0.42,4.82,8.73
20,58717632305000,0.57,4.82,8.73
20,58717682293000,0.61,4.82,8.77
20,58717732311000,0.5,4.75,8.77
20,58717782330000,0.38,4.82,8.81
20,58717832317000,0.34,4.79,8.81
20,58717882336000,0.19,4.63,8.92
20,58717932324000,0.34,4.71,8.85
20,58717982342000,0.53,4.9,8.66
20,58718032299000,0.61,4.82,8.66
20,58718082348000,0.5,4.71,8.77
20,58718132305000,0.5,4.67,8.73
20,58718182293000,0.38,4.67,8.85
20,58718232342000,0.27,4.75,8.85
20,58718282330000,0.31,4.71,8.77
20,58718332348000,0.38,4.63,8.81
20,58718382336000,0.34,4.71,8.92
20,58718432293000,0.31,4.56,8.92
20,58718482342000,0.34,4.6,8.85
20,58718552349000,0.34,4.6,8.85
20,58718602276000,0.31,4.6,8.92
20,58718652294000,0.31,4.52,9.0
20,58718702252000,0.31,4.6,8.96
20,58718752239000,0.31,4.56,8.96
20,58718802319000,0.42,4.4,8.81
20,58718852306000,0.57,4.44,8.92
20,58718902264000,0.34,4.44,8.92
20,58718952313000,-0.11,4.29,9.08
20,58719002300000,-0.42,4.06,9.3
20,58719052319000,-0.34,4.02,9.47
20,58719102306000,-0.04,4.14,9.15
20,58719152294000,-0.08,4.18,9.23
20,58719202282000,-0.08,4.02,9.23
20,58719252270000,-0.04,3.99,9.23
20,58719302319000,-0.38,3.83,9.34
20,58719352306000,-0.46,3.72,9.43
20,58719402386000,-0.38,3.83,9.47
20,58719452313000,-0.19,3.87,9.34
20,58719502331000,-0.19,3.95,9.28
20,58719552319000,-0.11,3.87,9.28
20,58719602306000,-0.19,3.83,9.34
20,58719652294000,-0.5,3.68,9.47
20,58719702282000,-0.53,3.68,9.47
20,58719752300000,-0.46,3.72,9.38
20,58719802319000,-0.42,3.79,9.43
20,58719852276000,-0.34,3.79,9.47
20,58719902294000,-0.46,3.68,9.47
20,58719952282000,-0.46,3.57,9.51
20,58720002514000,-0.34,3.68,9.47
20,58720052319000,-0.38,3.76,9.38
20,58720102306000,-0.5,3.68,9.47
20,58720152264000,-0.38,3.68,9.43
20,58720202313000,-0.42,3.6,9.53
20,58720252300000,-0.46,3.68,9.51
20,58720302319000,-0.38,3.76,9.43
20,58720352276000,-0.27,3.76,9.38
20,58720402294000,-0.23,3.68,9.34
20,58720452282000,-0.19,3.83,9.34
20,58720502300000,-0.08,3.91,9.3
20,58720552319000,-0.08,3.95,9.28
20,58720602306000,-0.15,3.91,9.28
20,58720652264000,-0.19,3.91,9.3
20,58720702282000,-0.19,3.95,9.38
20,58720752300000,-0.19,3.99,9.3
20,58720802319000,-0.19,3.95,9.38
20,58720852367000,-0.08,3.99,9.3
20,58720902294000,-0.23,3.91,9.34
20,58720902294000,-0.23,3.91,9.34
20,58721002300000,-0.15,3.95,9.28
20,58721052349000,-0.11,3.87,9.3
20,58721102337000,-0.08,3.91,9.34
20,58721152294000,-0.19,3.83,9.38
20,58721202343000,-0.34,3.76,9.43
20,58721252270000,-0.34,3.72,9.47
20,58721302349000,-0.27,3.79,9.47
20,58721352306000,-0.27,3.76,9.34
20,58721402294000,-0.38,3.53,9.47
20,58721452313000,-0.23,3.72,9.28
20,58721502300000,-0.34,3.57,9.43
20,58721552380000,-0.57,3.45,9.77
20,58721602306000,-0.42,3.45,9.43
20,58721652294000,-0.38,3.64,9.43
20,58721702923000,-0.3,3.72,9.51
20,58721752667000,-0.38,3.68,9.47
20,58721802349000,-0.46,3.6,9.53
20,58721852306000,-0.3,3.49,9.38
20,58721902294000,-0.34,3.57,9.47
20,58721952343000,-0.3,3.64,9.43
20,58722002575000,-0.23,3.64,9.47
20,58722052319000,-0.34,3.6,9.51
20,58722102276000,-0.34,3.57,9.47
20,58722152294000,-0.3,3.64,9.51
20,58722202282000,-0.34,3.64,9.47
20,58722252331000,-0.3,3.6,9.51
20,58722302288000,-0.38,3.53,9.51
20,58722352306000,-0.3,3.6,9.47
20,58722402294000,-0.34,3.64,9.38
20,58722452282000,-0.34,3.68,9.38
20,58722502270000,-0.3,3.68,9.47
20,58722552319000,-0.3,3.57,9.34
20,58722602306000,-0.42,3.45,9.51
20,58722652264000,-0.53,3.53,9.51
20,58722702282000,-0.5,3.53,9.51
20,58722752300000,-0.38,3.6,9.43
20,58722802288000,-0.38,3.6,9.53
20,58722852306000,-0.42,3.57,9.51
20,58722902294000,-0.46,3.53,9.47
20,58722952343000,-0.5,3.49,9.51
20,58723002270000,-0.46,3.57,9.51
20,58723052319000,-0.53,3.49,9.43
20,58723102306000,-0.57,3.57,9.47
20,58723152264000,-0.61,3.57,9.51
20,58723202313000,-0.5,3.53,9.51
20,58723252300000,-0.46,3.49,9.53
20,58723302319000,-0.38,3.64,9.47
20,58723352276000,-0.46,3.64,9.47
20,58723402325000,-0.5,3.6,9.51
20,58723452282000,-0.46,3.49,9.51
20,58723502270000,-0.42,3.49,9.47
20,58723552319000,-0.5,3.53,9.51
20,58723552319000,-0.5,3.53,9.51
20,58723622326000,-0.57,3.45,9.51
20,58723672314000,-0.53,3.49,9.58
20,58723722241000,-0.53,3.57,9.53
20,58723782269000,-0.5,3.57,9.47
20,58723832348000,-0.42,3.6,9.43
20,58723882305000,-0.42,3.68,9.51
20,58723932324000,-0.38,3.6,9.43
20,58723982342000,-0.38,3.57,9.47
20,58723982342000,-0.38,3.57,9.47
20,58724082317000,-0.38,3.64,9.38
20,58724132336000,-0.46,3.68,9.47
20,58724182324000,-0.3,3.72,9.51
20,58724232311000,-0.3,3.72,9.47
20,58724282330000,-0.23,3.83,9.38
20,58724332348000,-0.5,3.87,9.47
20,58724382305000,-0.5,3.87,9.51
20,58724432324000,-0.27,3.99,9.38
20,58724482342000,-0.34,4.1,9.34
20,58724532330000,-0.11,4.25,9.23
20,58724582348000,0.08,4.44,9.08
20,58724632336000,0.84,4.6,8.73
20,58724682324000,0.93,4.86,8.62
20,58724732342000,0.8,5.05,8.47
20,58724782360000,1.23,5.24,8.43
20,58724832348000,1.5,5.48,8.31
20,58724882305000,1.57,5.48,8.16
20,58724932324000,1.23,5.33,8.39
20,58724982342000,0.89,5.24,8.54
20,58725032299000,0.8,5.24,8.5
20,58725082440000,0.76,5.28,8.58
20,58725132336000,0.72,5.22,8.62
20,58725182324000,0.69,5.13,8.5
20,58725232342000,0.72,5.18,8.5
20,58725282238000,0.69,5.18,8.58
20,58725342236000,0.61,5.09,8.54
20,58725392315000,0.57,5.09,8.69
20,58725442303000,0.38,4.99,8.69
20,58725492321000,0.34,5.01,8.66
20,58725542309000,0.42,5.09,8.69
20,58725592327000,0.61,5.05,8.66
20,58725642346000,0.65,5.05,8.62
20,58725692303000,0.57,5.05,8.66
20,58725742291000,0.5,5.05,8.62
20,58725792309000,0.5,5.09,8.66
20,58725842297000,0.57,5.09,8.62
20,58725842297000,0.57,5.09,8.62
20,58725942303000,0.57,5.05,8.66
20,58725992260000,0.5,5.05,8.66
20,58726042309000,0.53,5.09,8.69
20,58726092327000,0.5,5.13,8.66
20,58726142315000,0.5,5.05,8.69
20,58726192333000,0.61,5.09,8.69
20,58726252361000,0.53,5.09,8.69
20,58726302258000,0.42,5.09,8.62
20,58726352306000,0.53,5.05,8.62
20,58726402233000,0.61,5.09,8.62
20,58726452282000,0.61,5.05,8.58
20,58726502300000,0.53,5.09,8.62
20,58726552319000,0.42,5.01,8.66
20,58726602306000,0.57,5.01,8.62
20,58726652264000,0.53,5.01,8.62
20,58726702313000,0.46,5.05,8.66
20,58726752300000,0.5,5.09,8.66
20,58726802319000,0.53,4.99,8.69
20,58726852276000,0.53,5.01,8.69
20,58726902264000,0.53,5.01,8.66
20,58726952282000,0.53,5.05,8.62
20,58726952282000,0.53,5.05,8.62
20,58727052319000,0.5,5.05,8.69
20,58727102306000,0.53,5.01,8.66
20,58727152264000,0.5,5.05,8.66
20,58727202282000,0.57,5.05,8.58
20,58727252270000,0.5,5.05,8.69
20,58727302288000,0.5,5.05,8.73
20,58727352306000,0.46,4.99,8.62
20,58727402294000,0.5,5.05,8.69
20,58727452313000,0.53,5.05,8.62
20,58727502270000,0.53,5.01,8.66
20,58727552319000,0.42,4.99,8.69
20,58727602276000,0.53,5.01,8.69
20,58727652264000,0.38,5.01,8.66
20,58727702282000,0.46,5.01,8.66
20,58727752300000,0.53,5.05,8.62
20,58727802288000,0.53,4.99,8.62
20,58727852306000,0.46,4.99,8.73
20,58727902325000,0.46,5.01,8.66
20,58727952282000,0.5,5.05,8.66
20,58728002697000,0.5,4.99,8.66
20,58728052288000,0.5,4.99,8.69
20,58728102306000,0.46,5.01,8.73
20,58728152294000,0.42,5.01,8.66
20,58728202282000,0.53,5.01,8.66
20,58728252270000,0.5,5.01,8.69
20,58728302319000,0.46,5.01,8.69
20,58728352276000,0.5,5.01,8.66
20,58728402294000,0.53,5.05,8.69
20,58728452313000,0.5,5.01,8.66
20,58728502270000,0.46,5.01,8.69
20,58728552471000,0.46,4.99,8.77
20,58728602673000,0.42,4.99,8.73
20,58728652264000,0.46,5.01,8.73
20,58728702282000,0.5,5.01,8.69
20,58728752270000,0.53,4.99,8.69
20,58728802319000,0.46,4.99,8.81
20,58728852276000,0.34,4.99,8.66
20,58728902294000,0.5,4.99,8.69
20,58728902294000,0.5,4.99,8.69
20,58729002270000,0.42,4.94,8.69
20,58729052319000,0.46,5.01,8.73
20,58729102276000,0.42,4.94,8.73
20,58729152264000,0.46,4.94,8.73
20,58729202282000,0.61,5.01,8.73
20,58729252270000,0.5,5.01,8.69
20,58729302319000,0.42,4.94,8.73
20,58729352276000,0.46,4.94,8.69
20,58729402264000,0.5,4.94,8.69
20,58729452313000,0.46,4.99,8.69
20,58729452313000,0.46,4.99,8.69
20,58729552319000,0.42,4.9,8.77
20,58729602276000,0.42,4.94,8.73
20,58729652264000,0.57,4.99,8.73
20,58729702282000,0.53,4.99,8.69
20,58729752300000,0.5,4.94,8.77
20,58729802319000,0.42,4.86,8.77
20,58729852276000,0.42,4.86,8.73
20,58729852276000,0.42,4.86,8.73
20,58729952282000,0.46,4.86,8.77
20,58730002575000,0.42,4.9,8.81
20,58730052563000,0.46,4.94,8.77
20,58730102306000,0.5,4.9,8.77
20,58730152264000,0.42,4.9,8.73
20,58730202313000,0.34,4.86,8.77
20,58730252300000,0.46,4.94,8.69
20,58730302319000,0.53,4.94,8.77
20,58730352306000,0.46,4.9,8.73
20,58730402294000,0.42,4.9,8.81
20,58730452313000,0.42,4.94,8.77
20,58730502270000,0.42,4.9,8.73
20,58730552319000,0.46,4.9,8.77
20,58730602276000,0.46,4.94,8.77
20,58730652264000,0.38,4.86,8.77
20,58730702282000,0.42,4.86,8.73
20,58730752300000,0.46,4.94,8.77
20,58730802288000,0.5,4.94,8.73
20,58730852276000,0.42,4.86,8.73
20,58730902294000,0.46,4.9,8.73
20,58730952313000,0.42,4.86,8.73
20,58731002300000,0.46,4.9,8.77
20,58731052319000,0.42,4.9,8.73
20,58731102306000,0.42,4.86,8.81
20,58731152264000,0.42,4.86,8.73
20,58731202282000,0.42,4.9,8.73
20,58731252300000,0.46,4.94,8.69
20,58731252300000,0.46,4.94,8.69
20,58731322582000,0.42,4.86,8.81
20,58731372265000,0.34,4.86,8.77
20,58731422344000,0.46,4.94,8.73
20,58731482281000,0.46,4.86,8.69
20,58731532330000,0.38,4.82,8.81
20,58731582317000,0.38,4.9,8.77
20,58731632305000,0.38,4.9,8.81
20,58731682324000,0.42,4.86,8.69
20,58731682324000,0.42,4.86,8.69
20,58731782299000,0.38,4.9,8.69
20,58731832348000,0.46,4.94,8.73
20,58731882305000,0.38,4.86,8.73
20,58731932293000,0.38,4.82,8.69
20,58731982342000,0.31,4.9,8.73
20,58732032299000,0.38,4.9,8.69
20,58732082348000,0.42,4.94,8.77
20,58732132427000,0.5,4.9,8.66
20,58732182293000,0.38,4.9,8.77
20,58732232311000,0.34,4.9,8.77
20,58732282299000,0.38,4.9,8.69
20,58732332317000,0.42,4.9,8.73
20,58732382305000,0.42,4.86,8.69
20,58732432293000,0.38,4.86,8.73
20,58732482342000,0.38,4.9,8.77
20,58732532299000,0.38,4.94,8.66
20,58732582378000,0.34,4.86,8.77
20,58732632305000,0.38,4.86,8.81
20,58732682293000,0.38,4.94,8.77
20,58732732311000,0.34,4.86,8.77
20,58732782299000,0.34,4.75,8.81
20,58732832348000,0.31,4.67,8.85
20,58732882305000,0.23,4.67,8.89
20,58732932293000,0.19,4.71,8.89
20,58732982403000,0.15,4.67,8.85
20,58733032330000,0.23,4.63,8.92
20,58733082317000,0.23,4.63,8.85
20,58733132336000,0.15,4.67,8.81
20,58733182354000,0.15,4.71,8.85
20,58733232342000,0.23,4.63,8.89
20,58733282330000,0.15,4.6,8.85
20,58733332348000,0.11,4.6,8.96
20,58733382366000,0.04,4.56,8.92
20,58733432293000,0.04,4.52,8.96
20,58733482372000,0.04,4.6,8.92
20,58733532299000,0.04,4.63,8.92
20,58733582348000,0.11,4.67,8.96
20,58733632305000,0.19,4.67,8.96
20,58733682354000,0.15,4.6,8.85
20,58733732372000,0.04,4.52,8.96
20,58733782330000,0.0,4.4,9.04
20,58733832378000,0.04,4.44,9.04
20,58733882336000,0.08,4.6,9.0
20,58733932293000,0.04,4.6,9.0
20,58733982372000,0.0,4.4,9.04
20,58734032360000,0.04,4.33,8.96
20,58734082378000,0.0,4.37,9.0
20,58734132336000,0.04,4.48,8.92
20,58734182293000,0.04,4.52,9.0
20,58734252361000,0.04,4.48,9.0
20,58734302258000,0.0,4.48,9.04
20,58734302258000,0.0,4.48,9.04
20,58734402233000,0.0,4.52,9.0
20,58734452313000,0.04,4.56,8.96
20,58734502361000,0.0,4.48,9.0
20,58734552319000,0.04,4.44,8.96
20,58734602276000,0.0,4.44,9.0
20,58734652294000,0.0,4.48,9.0
20,58734702313000,0.04,4.56,8.96
20,58734752300000,0.08,4.56,8.96
20,58734802319000,0.0,4.52,8.96
20,58734852306000,0.08,4.48,8.96
20,58734902264000,0.0,4.48,8.96
20,58734952282000,0.04,4.48,8.96
20,58735002361000,0.08,4.56,9.0
20,58735052319000,0.04,4.48,8.96
20,58735102276000,0.04,4.48,9.0
20,58735152264000,0.04,4.44,9.0
20,58735202282000,0.08,4.44,8.96
20,58735252331000,0.11,4.56,8.89
20,58735252331000,0.11,4.56,8.89
20,58735312328000,0.11,4.48,8.96
20,58735362316000,0.11,4.44,8.96
20,58735412304000,0.08,4.48,8.96
20,58735462322000,0.04,4.48,9.04
20,58735512371000,0.08,4.56,8.96
20,58735562328000,0.19,4.56,8.92
20,58735612377000,0.15,4.48,8.96
20,58735662457000,0.04,4.44,9.0
20,58735712292000,0.11,4.44,9.0
20,58735762341000,0.23,4.56,8.96
20,58735812298000,0.19,4.56,8.96
20,58735862316000,0.11,4.56,8.96
20,58735912304000,0.11,4.48,8.96
20,58735962322000,0.11,4.37,9.0
20,58736012280000,0.04,4.4,9.0
20,58736062328000,0.11,4.44,9.0
20,58736112316000,0.08,4.44,9.0
20,58736162304000,0.08,4.44,9.04
20,58736212322000,0.04,4.44,9.0
20,58736262341000,0.04,4.4,9.04
20,58736312298000,0.08,4.4,9.04
20,58736362316000,0.08,4.4,9.0
20,58736412304000,0.08,4.44,8.96
20,58736462292000,0.15,4.48,8.96
20,58736512310000,0.04,4.4,8.96
20,58736562328000,0.04,4.44,9.0
20,58736612316000,0.08,4.48,9.0
20,58736662335000,0.11,4.44,9.04
20,58736712292000,0.11,4.44,8.96
20,58736762310000,0.08,4.44,9.0
20,58736812298000,0.04,4.4,9.0
20,58736862347000,0.04,4.4,8.96
20,58736912335000,0.08,4.44,8.92
20,58736962322000,0.08,4.44,9.04
20,58737012249000,0.08,4.44,9.0
20,58737062298000,0.11,4.44,9.0
20,58737112316000,0.08,4.44,8.96
20,58737162304000,0.08,4.44,9.0
20,58737212292000,0.11,4.44,8.96
20,58737262310000,0.11,4.48,8.92
20,58737312328000,0.08,4.52,8.96
20,58737362347000,0.11,4.48,9.0
20,58737362347000,0.11,4.48,9.0
20,58737462322000,0.08,4.4,8.96
20,58737512310000,0.11,4.52,8.96
20,58737562328000,0.04,4.4,9.0
20,58737612347000,0.08,4.48,9.04
20,58737662304000,0.11,4.48,8.89
20,58737712719000,0.15,4.48,9.04
20,58737762371000,0.08,4.4,9.0
20,58737812298000,0.04,4.4,9.04
20,58737862316000,0.08,4.44,9.04
20,58737912335000,0.11,4.48,8.96
20,58737962353000,0.15,4.52,8.92
20,58738012646000,0.11,4.52,8.96
20,58738062328000,0.11,4.48,9.04
20,58738112316000,0.08,4.48,9.08
20,58738162335000,0.11,4.4,9.0
20,58738212322000,0.15,4.44,8.96
20,58738262310000,0.19,4.44,9.0
20,58738312298000,0.11,4.4,9.0
20,58738362347000,0.08,4.44,9.08
20,58738412335000,0.04,4.25,9.11
20,58738462322000,0.08,4.37,9.15
20,58738512310000,0.19,4.37,8.92
20,58738562328000,0.15,4.44,9.04
20,58738612316000,0.23,4.44,9.0
20,58738662335000,0.08,4.37,9.15
20,58738712292000,0.11,4.37,9.08
20,58738762341000,0.15,4.48,9.04
20,58738812298000,0.15,4.44,9.04
20,58738862316000,0.15,4.4,9.04
20,58738912273000,0.15,4.37,9.04
20,58738962292000,0.11,4.37,9.08
20,58739012310000,0.11,4.4,9.08
20,58739062328000,0.19,4.4,9.04
20,58739112316000,0.19,4.44,9.04
20,58739162304000,0.15,4.4,9.04
20,58739212353000,0.08,4.33,9.11
20,58739262341000,0.15,4.37,9.04
20,58739322277000,0.15,4.48,9.04
20,58739382305000,0.23,4.44,9.0
20,58739432324000,0.11,4.37,9.08
20,58739482311000,0.11,4.4,9.0
20,58739532330000,0.19,4.44,9.04
20,58739582317000,0.19,4.44,9.0
20,58739632305000,0.11,4.37,9.0
20,58739682324000,0.15,4.4,9.04
20,58739732311000,0.19,4.4,9.0
20,58739782299000,0.15,4.4,8.96
20,58739832348000,0.19,4.37,9.08
20,58739882305000,0.15,4.37,9.04
20,58739932293000,0.15,4.44,9.0
20,58739982342000,0.15,4.4,9.04
20,58740032299000,0.11,4.4,9.04
20,58740082317000,0.19,4.37,9.04
20,58740132336000,0.11,4.4,9.08
20,58740182293000,0.11,4.33,9.04
20,58740232342000,0.15,4.4,9.04
20,58740282238000,0.19,4.4,9.08
20,58740332317000,0.15,4.4,9.08
20,58740382336000,0.15,4.37,9.04
20,58740432293000,0.08,4.37,9.08
20,58740482311000,0.15,4.37,9.04
20,58740532299000,0.23,4.4,9.04
20,58740582317000,0.15,4.37,9.04
20,58740632336000,0.19,4.4,9.08
20,58740682293000,0.08,4.4,9.11
20,58740732311000,0.0,4.33,9.11
20,58740782330000,0.11,4.37,9.04
20,58740832317000,0.15,4.37,9.08
20,58740882336000,0.11,4.4,9.04
20,58740932293000,0.19,4.4,9.08
20,58740982311000,0.11,4.4,9.08
20,58741032360000,0.04,4.29,9.15
20,58741082317000,-0.04,4.29,9.15
20,58741132336000,0.04,4.37,9.08
20,58741132336000,0.04,4.37,9.08
20,58741232311000,0.08,4.33,9.08
20,58741282177000,0.08,4.33,9.04
20,58741332317000,0.08,4.37,9.08
20,58741382305000,0.08,4.4,9.04
20,58741432293000,0.08,4.37,9.11
20,58741482342000,0.04,4.4,9.08
20,58741532299000,0.0,4.37,9.08
20,58741582348000,0.04,4.4,9.08
20,58741632305000,0.04,4.4,9.11
20,58741682293000,0.04,4.37,9.08
20,58741682293000,0.04,4.37,9.08
20,58741782269000,0.04,4.37,9.11
20,58741832317000,0.0,4.37,9.11
20,58741882305000,0.04,4.4,9.11
20,58741932263000,0.04,4.4,9.08
20,58741982311000,0.11,4.4,9.08
20,58742032330000,0.08,4.44,9.08
20,58742082317000,0.08,4.33,9.15
20,58742152325000,0.0,4.37,9.15
20,58742202282000,0.0,4.33,9.04
20,58742252331000,0.04,4.37,9.08
20,58742302227000,0.04,4.33,9.08
20,58742352306000,0.0,4.29,9.11
20,58742402264000,0.0,4.33,9.11
20,58742452282000,0.08,4.33,9.11
20,58742502270000,0.0,4.33,9.11
20,58742552288000,0.04,4.33,9.08
20,58742602276000,0.04,4.33,9.11
20,58742652264000,0.04,4.33,9.08
20,58742702313000,-0.04,4.25,9.15
20,58742752300000,0.04,4.29,9.11
20,58742802288000,0.08,4.37,9.11
20,58742852306000,0.11,4.44,9.04
20,58742902264000,0.11,4.4,9.04
20,58742952282000,0.11,4.37,9.08
20,58743002300000,0.04,4.33,9.11
20,58743052319000,0.11,4.4,9.04
20,58743102306000,0.15,4.44,9.08
20,58743152294000,0.11,4.4,9.04
20,58743202313000,0.04,4.33,9.11
20,58743252331000,0.0,4.37,9.11
20,58743302319000,0.08,4.29,9.08
20,58743352276000,0.08,4.29,9.11
20,58743402264000,0.08,4.37,9.0
20,58743452282000,0.08,4.37,9.11
20,58743502300000,0.0,4.33,9.08
20,58743552319000,0.04,4.29,9.11
20,58743602306000,0.04,4.25,9.08
20,58743652264000,0.04,4.4,9.08
20,58743702282000,0.15,4.37,9.08
20,58743752270000,0.15,4.4,9.04
20,58743802319000,0.04,4.37,9.0
20,58743852306000,0.0,4.25,9.08
20,58743902660000,-0.11,4.14,9.19
20,58743952282000,-0.11,4.18,9.23
20,58744002544000,-0.04,4.29,9.15
20,58744052319000,0.04,4.37,9.08
20,58744102276000,0.0,4.29,9.08
20,58744152264000,0.0,4.21,9.15
20,58744202313000,-0.04,4.25,9.11
20,58744252300000,0.04,4.33,9.08
20,58744302319000,0.08,4.37,9.04
20,58744352306000,0.0,4.33,9.11
20,58744402264000,0.0,4.29,9.11
20,58744452282000,0.0,4.25,9.11
20,58744502270000,0.0,4.33,9.19
20,58744552288000,-0.04,4.29,9.19
20,58744602276000,-0.04,4.29,9.08
20,58744652294000,0.0,4.33,9.15
20,58744702313000,-0.04,4.33,9.11
20,58744702313000,-0.04,4.33,9.11
20,58744802319000,0.04,4.29,9.04
20,58744852276000,0.04,4.37,9.11
20,58744852276000,0.04,4.37,9.11
20,58744852276000,0.04,4.37,9.11
20,58744962292000,-0.04,4.29,9.15
20,58745012249000,-0.08,4.29,9.19
20,58745062359000,0.0,4.25,9.11
20,58745112316000,0.0,4.33,9.11
20,58745162335000,-0.04,4.29,9.15
20,58745212292000,-0.04,4.25,9.15
20,58745262280000,0.0,4.25,9.15
20,58745312298000,0.0,4.25,9.11
20,58745362316000,0.04,4.25,9.19
20,58745412304000,0.0,4.33,9.19
20,58745462292000,0.0,4.37,9.11
20,58745512341000,-0.04,4.25,9.19
20,58745562298000,-0.04,4.21,9.11
20,58745612347000,-0.11,4.06,9.23
20,58745662304000,-0.15,4.18,9.23
20,58745712322000,-0.11,4.21,9.19
20,58745762371000,0.0,4.33,9.11
20,58745812298000,0.04,4.29,9.11
20,58745862316000,0.0,4.29,9.11
20,58745912304000,0.0,4.25,9.19
20,58745962322000,-0.04,4.25,9.15
20,58746012280000,-0.04,4.33,9.19
20,58746062298000,-0.04,4.37,9.15
20,58746112347000,0.04,4.33,9.11
20,58746162304000,0.04,4.29,9.11
20,58746162304000,0.04,4.29,9.11
20,58746262310000,0.04,4.33,9.11
20,58746312328000,-0.04,4.25,9.15
20,58746362316000,-0.04,4.29,9.19
20,58746412304000,0.0,4.25,9.19
20,58746462292000,0.0,4.29,9.11
20,58746512310000,-0.04,4.29,9.19
20,58746562298000,0.0,4.29,9.19
20,58746612316000,0.0,4.29,9.15
20,58746662335000,0.04,4.25,9.11
20,58746712322000,0.04,4.21,9.15
20,58746762341000,-0.04,4.25,9.19
20,58746812298000,-0.08,4.14,9.19
20,58746862316000,-0.15,4.14,9.28
20,58746912304000,-0.11,4.14,9.23
20,58746962322000,0.0,4.21,9.15
20,58747012341000,0.04,4.29,9.08
20,58747062267000,0.0,4.29,9.08
20,58747112316000,-0.04,4.29,9.19
20,58747162304000,-0.04,4.29,9.11
20,58747222332000,-0.04,4.33,9.15
20,58747282269000,-0.04,4.29,9.15
20,58747332348000,-0.08,4.33,9.11
20,58747382305000,-0.08,4.25,9.15
20,58747432354000,-0.08,4.25,9.19
20,58747482311000,-0.04,4.25,9.15
20,58747532299000,-0.04,4.29,9.23
20,58747582317000,0.0,4.29,9.15
20,58747632305000,-0.04,4.29,9.19
20,58747682263000,-0.04,4.29,9.15
20,58747732342000,0.04,4.37,9.11
20,58747782299000,0.0,4.29,9.11
20,58747832317000,0.04,4.29,9.15
20,58747882305000,0.0,4.29,9.11
20,58747932293000,0.0,4.29,9.15
20,58747932293000,0.0,4.29,9.15
20,58748032330000,-0.08,4.25,9.19
20,58748082317000,-0.08,4.29,9.19
20,58748132305000,0.04,4.29,9.11
20,58748182324000,0.08,4.33,9.08
20,58748232342000,0.04,4.33,9.15
20,58748282330000,-0.11,4.18,9.19
20,58748332317000,-0.15,4.18,9.19
20,58748382305000,-0.04,4.25,9.19
20,58748432293000,-0.04,4.33,9.11
20,58748482311000,0.04,4.33,9.11
20,58748482311000,0.04,4.33,9.11
20,58748582317000,-0.04,4.29,9.15
20,58748632336000,-0.04,4.33,9.11
20,58748682293000,0.04,4.33,9.11
20,58748732311000,-0.04,4.29,9.11
20,58748782299000,0.0,4.29,9.08
20,58748832348000,0.0,4.33,9.15
20,58748882305000,0.0,4.33,9.11
20,58748932324000,-0.04,4.29,9.19
20,58748982342000,0.04,4.4,9.15
20,58749032330000,0.0,4.33,9.08
20,58749082348000,0.04,4.33,9.11
20,58749132305000,0.04,4.33,9.15
20,58749182293000,0.04,4.33,9.11
20,58749232342000,0.0,4.29,9.15
20,58749282299000,-0.08,4.29,9.15
20,58749332348000,-0.04,4.33,9.19
20,58749382305000,0.0,4.33,9.11
20,58749432293000,0.0,4.25,9.08
20,58749482372000,-0.11,4.21,9.28
20,58749532330000,0.0,4.29,9.15
20,58749582348000,0.04,4.33,9.08
20,58749632336000,0.04,4.33,9.04
20,58749682324000,0.0,4.29,9.11
20,58749732342000,-0.11,4.18,9.28
20,58749782848000,-0.08,4.18,9.19
20,58749832317000,-0.08,4.29,9.15
20,58749882305000,-0.04,4.25,9.15
20,58749932293000,0.0,4.29,9.15
20,58749982311000,0.0,4.33,9.15
20,58750052319000,0.0,4.29,9.15
20,58750102276000,-0.04,4.33,9.11
20,58750152294000,0.0,4.33,9.08
20,58750202252000,0.0,4.33,9.11
20,58750252270000,0.0,4.29,9.15
20,58750252270000,0.0,4.29,9.15
20,58750312298000,0.0,4.29,9.11
20,58750362347000,-0.04,4.33,9.15
20,58750412304000,0.0,4.33,9.11
20,58750462292000,0.0,4.33,9.08
20,58750512310000,-0.04,4.33,9.11
20,58750562328000,-0.04,4.29,9.19
20,58750612316000,-0.04,4.21,9.15
20,58750662304000,-0.04,4.29,9.11
20,58750712383000,-0.08,4.29,9.11
20,58750762310000,-0.04,4.33,9.11
20,58750812298000,-0.04,4.29,9.19
20,58750862347000,-0.08,4.25,9.15
20,58750912335000,0.0,4.29,9.11
20,58750962353000,-0.04,4.25,9.11
20,58751012249000,-0.04,4.29,9.11
20,58751062359000,-0.04,4.33,9.19
20,58751112316000,0.0,4.33,9.08
20,58751162304000,0.0,4.33,9.15
20,58751212292000,0.0,4.29,9.15
20,58751262310000,-0.04,4.33,9.11
20,58751312298000,-0.08,4.29,9.11
20,58751362316000,-0.04,4.29,9.08
20,58751412304000,-0.08,4.29,9.11
20,58751462292000,0.0,4.33,9.11
20,58751512310000,-0.08,4.33,9.15
20,58751562298000,0.0,4.33,9.11
20,58751612316000,0.0,4.37,9.11
20,58751662335000,-0.04,4.33,9.15
20,58751712322000,-0.11,4.29,9.19
20,58751762341000,-0.04,4.33,9.15
20,58751812298000,0.0,4.33,9.15
20,58751862316000,-0.08,4.37,9.15
20,58751912335000,-0.11,4.4,9.19
20,58751962322000,-0.04,4.4,9.08
20,58752012249000,-0.04,4.4,9.11
20,58752062298000,-0.04,4.4,9.08
20,58752112347000,-0.08,4.44,9.11
20,58752162365000,-0.11,4.4,9.15
20,58752212353000,-0.15,4.37,9.19
20,58752262310000,-0.15,4.4,9.0
20,58752312328000,-0.11,4.4,9.08
20,58752362316000,-0.11,4.33,9.11
20,58752412335000,-0.11,4.44,9.19
20,58752462322000,-0.19,4.29,9.23
20,58752512310000,-0.15,4.25,9.23
20,58752562328000,-0.08,4.29,9.15
20,58752612316000,-0.08,4.37,9.11
20,58752662304000,0.0,4.37,9.08
20,58752712292000,-0.08,4.37,9.15
20,58752762310000,-0.15,4.37,9.19
20,58752812328000,-0.04,4.52,9.08
20,58752862347000,0.04,4.44,9.0
20,58752912335000,-0.08,4.37,9.11
20,58752962353000,-0.11,4.33,9.15
20,58753012280000,-0.04,4.37,9.11
20,58753062298000,0.0,4.37,9.08
20,58753112316000,-0.04,4.37,9.19
20,58753162335000,-0.08,4.33,9.15
20,58753212322000,-0.04,4.37,9.11
20,58753212322000,-0.04,4.37,9.11
20,58753312634000,-0.08,4.29,9.11
20,58753362316000,-0.15,4.29,9.23
20,58753412304000,-0.15,4.21,9.19
20,58753462292000,-0.23,4.21,9.28
20,58753512341000,-0.15,4.29,9.11
20,58753562328000,-0.04,4.33,9.15
20,58753612316000,-0.08,4.33,9.19
20,58753662304000,-0.08,4.29,9.11
20,58753712292000,-0.04,4.29,9.11
20,58753762310000,-0.08,4.33,9.11
20,58753812298000,-0.04,4.37,9.11
20,58753862316000,-0.08,4.29,9.11
20,58753912304000,-0.11,4.29,9.15
20,58753962353000,-0.15,4.21,9.23
20,58754012280000,-0.19,4.21,9.28
20,58754062328000,-0.11,4.37,9.08
20,58754112347000,0.0,4.44,9.04
20,58754162304000,0.04,4.48,9.04
20,58754212292000,0.04,4.37,9.08
20,58754262341000,-0.04,4.25,9.11
20,58754312298000,-0.11,4.25,9.23
20,58754362316000,-0.08,4.29,9.23
20,58754412304000,-0.08,4.33,9.11
20,58754462322000,-0.11,4.25,9.19
20,58754512341000,-0.11,4.29,9.15
20,58754562298000,-0.04,4.25,9.15
20,58754612347000,0.04,4.33,9.11
20,58754662304000,0.0,4.29,9.11
20,58754712322000,-0.11,4.14,9.28
20,58754762341000,-0.27,4.06,9.3
20,58754762341000,-0.27,4.06,9.3
20,58754862347000,-0.11,4.18,9.19
20,58754912335000,-0.04,4.33,9.15
20,58754962292000,-0.04,4.29,9.11
20,58755012402000,-0.08,4.21,9.23
20,58755062328000,-0.04,4.25,9.19
20,58755122326000,-0.15,4.33,9.23
20,58755182446000,-0.11,4.29,9.19
20,58755232311000,-0.08,4.25,9.19
20,58755287060000,-0.11,4.21,9.15
20,58755342266000,-0.04,4.29,9.15
20,58755392284000,-0.08,4.29,9.15
20,58755442303000,-0.08,4.33,9.11
20,58755492291000,-0.08,4.29,9.19
20,58755542339000,-0.11,4.25,9.28
20,58755592297000,-0.11,4.21,9.23
20,58755642315000,-0.15,4.21,9.19
20,58755692333000,-0.08,4.25,9.15
20,58755742321000,-0.04,4.37,9.11
20,58755792309000,-0.04,4.25,9.19
20,58755842327000,-0.11,4.14,9.23
20,58755892376000,-0.15,4.06,9.28
20,58755942303000,-0.15,4.14,9.19
20,58755992291000,-0.11,4.14,9.28
20,58756042339000,-0.08,4.18,9.23
20,58756092297000,-0.08,4.25,9.15
20,58756092297000,-0.08,4.25,9.15
20,58756192333000,-0.04,4.21,9.11
20,58756242291000,-0.04,4.25,9.19
20,58756242291000,-0.04,4.25,9.19
20,58756342297000,-0.08,4.29,9.15
20,58756392315000,-0.04,4.21,9.15
20,58756442303000,-0.04,4.25,9.11
20,58756492291000,-0.08,4.29,9.15
20,58756542309000,-0.08,4.33,9.11
20,58756592297000,-0.04,4.33,9.15
20,58756642284000,-0.04,4.29,9.15
20,58756692333000,0.0,4.1,9.19
20,58756742291000,0.0,4.18,9.11
20,58756792309000,-0.04,4.29,9.11
20,58756842297000,-0.04,4.33,9.15
20,58756892315000,-0.08,4.33,9.19
20,58756942272000,-0.08,4.25,9.19
20,58756992321000,0.11,4.33,8.96
20,58757042339000,0.23,4.29,9.0
20,58757092327000,0.11,4.25,9.19
20,58757142346000,-0.11,4.1,9.34
20,58757192333000,-0.46,3.99,9.38
20,58757242321000,-0.23,4.14,9.34
20,58757292370000,0.0,4.29,9.11
20,58757342358000,0.11,4.4,9.04
20,58757392284000,0.11,4.29,9.04
20,58757442364000,0.04,4.18,9.19
20,58757492291000,0.0,4.18,9.11
20,58757542309000,-0.08,4.25,9.11
20,58757592297000,-0.08,4.29,9.15
20,58757642346000,0.0,4.14,9.08
20,58757692303000,0.0,4.25,9.15
20,58757742352000,-0.04,4.25,9.15
20,58757792370000,-0.11,4.29,9.15
20,58757852306000,-0.04,4.29,9.15
20,58757902203000,0.0,4.33,9.15
20,58757952313000,0.0,4.29,9.11
20,58758002270000,-0.08,4.25,9.15
20,58758052319000,-0.04,4.29,9.19
20,58758102306000,-0.04,4.37,9.11
20,58758152264000,-0.04,4.33,9.11
20,58758202313000,0.0,4.29,9.15
20,58758252300000,-0.04,4.25,9.11
20,58758302288000,-0.04,4.29,9.15
20,58758352276000,-0.04,4.25,9.11
20,58758402264000,-0.04,4.21,9.15
20,58758452343000,-0.08,4.18,9.23
20,58758502270000,-0.11,4.25,9.23
20,58758552288000,-0.08,4.25,9.15
20,58758602306000,-0.04,4.29,9.15
20,58758652294000,-0.08,4.18,9.23
20,58758702282000,-0.11,4.21,9.23
20,58758752270000,-0.15,4.21,9.3
20,58758802319000,-0.08,4.25,9.11
20,58758852276000,-0.08,4.25,9.15
20,58758902294000,-0.04,4.29,9.19
20,58758952313000,-0.15,4.25,9.15
20,58759002270000,-0.15,4.25,9.23
20,58759052319000,-0.08,4.33,9.15
20,58759052319000,-0.08,4.33,9.15
20,58759152294000,-0.11,4.29,9.23
20,58759202587000,-0.11,4.29,9.19
20,58759252331000,0.0,4.4,9.0
20,58759302288000,0.0,4.33,9.0
20,58759352306000,-0.04,4.21,9.15
20,58759402294000,-0.23,4.21,9.3
20,58759452313000,-0.38,4.18,9.3
20,58759502300000,-0.23,4.29,9.23
20,58759552319000,-0.04,4.33,9.15
20,58759602276000,-0.04,4.33,9.11
20,58759652264000,-0.08,4.33,9.11
20,58759702313000,-0.15,4.21,9.19
20,58759752300000,-0.19,4.29,9.19
20,58759802319000,-0.11,4.33,9.15
20,58759852306000,-0.15,4.29,9.19
20,58759902294000,-0.19,4.25,9.28
20,58759952282000,-0.23,4.14,9.28
20,58760002728000,-0.23,4.21,9.23
20,58760052319000,-0.11,4.18,9.15
20,58760102306000,-0.11,4.14,9.28
20,58760152294000,-0.08,4.25,9.23
20,58760202313000,0.04,4.14,9.11
20,58760252300000,-0.19,4.1,9.3
20,58760252300000,-0.19,4.1,9.3
20,58760312328000,-0.27,4.14,9.34
20,58760362347000,-0.23,4.25,9.3
20,58760412335000,-0.19,4.14,9.3
20,58760462322000,-0.15,4.18,9.19
20,58760512341000,-0.08,4.37,9.11
20,58760562298000,-0.04,4.37,9.15
20,58760612316000,-0.04,4.29,9.15
20,58760662335000,-0.08,4.18,9.28
20,58760712292000,-0.27,4.18,9.3
20,58760712292000,-0.27,4.18,9.3
20,58760812298000,-0.23,4.25,9.34
20,58760862316000,-0.23,4.14,9.28
20,58760912304000,-0.19,4.14,9.23
20,58760962322000,-0.19,4.21,9.23
20,58761012280000,-0.08,4.25,9.19
20,58761062298000,-0.15,4.25,9.19
20,58761112316000,-0.19,4.25,9.23
20,58761112316000,-0.19,4.25,9.23
20,58761212292000,-0.19,4.21,9.28
20,58761212292000,-0.19,4.21,9.28
20,58761312328000,-0.23,4.18,9.23
20,58761362347000,-0.15,4.25,9.19
20,58761412304000,-0.19,4.25,9.19
20,58761462292000,-0.15,4.25,9.23
20,58761512341000,-0.23,4.21,9.28
20,58761562328000,-0.23,4.25,9.28
20,58761612408000,-0.19,4.18,9.28
20,58761662335000,-0.15,4.25,9.19
20,58761712292000,-0.15,4.29,9.23
20,58761762310000,-0.23,4.25,9.23
20,58761812328000,-0.23,4.21,9.28
20,58761862316000,-0.15,4.21,9.28
20,58761912304000,-0.15,4.29,9.19
20,58761962322000,-0.11,4.29,9.11
20,58762012249000,-0.11,4.29,9.19
20,58762062298000,-0.15,4.29,9.19
20,58762112347000,-0.23,4.25,9.23
20,58762162304000,-0.23,4.18,9.23
20,58762212292000,-0.27,4.18,9.3
20,58762262341000,-0.19,4.25,9.23
20,58762312298000,-0.19,4.29,9.15
20,58762362316000,-0.19,4.25,9.19
20,58762412304000,-0.19,4.21,9.23
20,58762412304000,-0.19,4.21,9.23
20,58762512310000,-0.19,4.18,9.28
20,58762562298000,-0.15,4.25,9.28
20,58762612347000,-0.11,4.29,9.23
20,58762662304000,-0.08,4.29,9.19
20,58762712292000,-0.11,4.21,9.19
20,58762762341000,-0.15,4.21,9.28
20,58762812328000,-0.19,4.14,9.23
20,58762862347000,-0.23,4.06,9.3
20,58762922283000,-0.23,4.02,9.28
20,58762982281000,-0.19,4.14,9.28
20,58763032330000,-0.11,4.21,9.23
20,58763082317000,-0.11,4.25,9.19
20,58763132305000,-0.08,4.21,9.19
20,58763182293000,-0.04,4.18,9.19
20,58763232342000,-0.08,4.18,9.23
20,58763282299000,-0.19,4.18,9.3
20,58763332348000,-0.15,4.21,9.28
20,58763382336000,-0.11,4.25,9.23
20,58763432324000,-0.08,4.14,9.19
20,58763482342000,-0.11,4.18,9.23
20,58763532330000,-0.15,4.14,9.28
20,58763582317000,-0.19,4.14,9.23
20,58763632336000,-0.08,4.25,9.3
20,58763682293000,-0.04,4.25,9.19
20,58763732342000,-0.08,4.18,9.19
20,58763782299000,-0.04,4.18,9.23
20,58763832348000,-0.11,4.14,9.3
20,58763882336000,-0.15,4.21,9.23
20,58763932324000,-0.19,4.18,9.23
20,58763982342000,-0.15,4.14,9.28
20,58764032299000,-0.15,4.21,9.19
20,58764082317000,-0.11,4.25,9.19
20,58764132336000,-0.08,4.21,9.28
20,58764182293000,-0.15,4.1,9.28
20,58764232342000,-0.27,4.06,9.34
20,58764282330000,-0.19,4.14,9.3
20,58764332348000,-0.11,4.21,9.23
20,58764382305000,-0.11,4.21,9.19
20,58764432293000,-0.15,4.14,9.19
20,58764482342000,-0.23,4.06,9.3
20,58764532299000,-0.23,4.14,9.34
20,58764582317000,-0.19,4.14,9.23
20,58764632305000,-0.19,4.14,9.28
20,58764682324000,-0.15,4.18,9.23
20,58764732342000,-0.11,4.21,9.19
20,58764782299000,-0.08,4.25,9.19
20,58764832348000,-0.19,4.14,9.28
20,58764832348000,-0.19,4.14,9.28
20,58764932293000,-0.15,4.18,9.23
20,58764982342000,-0.08,4.33,9.11
20,58765032330000,-0.11,4.29,9.15
20,58765082867000,-0.19,4.18,9.28
20,58765132305000,-0.23,4.18,9.34
20,58765182324000,-0.08,4.21,9.23
20,58765232342000,-0.04,4.33,9.15
20,58765282238000,-0.08,4.25,9.15
20,58765332348000,-0.15,4.18,9.23
20,58765382305000,-0.15,4.21,9.28
20,58765452343000,-0.11,4.21,9.23
20,58765452343000,-0.11,4.21,9.23
20,58765552319000,-0.15,4.21,9.28
20,58765602276000,-0.11,4.25,9.19
20,58765652264000,-0.08,4.18,9.19
20,58765702282000,-0.08,4.18,9.23
20,58765752300000,-0.11,4.21,9.19
20,58765802319000,-0.08,4.29,9.15
20,58765852276000,-0.11,4.14,9.15
20,58765902294000,-0.19,4.18,9.23
20,58765952282000,-0.11,4.18,9.28
20,58766002422000,-0.11,4.18,9.19
20,58766002422000,-0.11,4.18,9.19
20,58766102306000,-0.11,4.21,9.28
20,58766152294000,-0.04,4.33,9.19
20,58766202313000,0.0,4.29,9.15
20,58766252300000,-0.08,4.25,9.11
20,58766302288000,-0.08,4.37,9.11
20,58766352306000,-0.04,4.4,9.15
20,58766402294000,-0.15,4.21,9.19
20,58766452313000,-0.23,4.21,9.23
20,58766502300000,-0.15,4.33,9.23
20,58766552288000,-0.15,4.37,9.23
20,58766602306000,-0.11,4.44,9.11
20,58766652294000,0.0,4.48,9.04
20,58766702313000,-0.04,4.37,9.15
20,58766752300000,-0.19,4.25,9.23
20,58766802319000,-0.11,4.21,9.19
20,58766852276000,0.0,4.29,9.19
20,58766902294000,-0.08,4.33,9.15
20,58766952313000,-0.11,4.33,9.04
20,58767002300000,-0.04,4.44,9.04
20,58767052319000,0.11,4.48,8.96
20,58767102306000,-0.04,4.33,9.08
20,58767152325000,-0.38,4.18,9.28
20,58767202313000,-0.42,4.29,9.23
20,58767252300000,-0.38,4.37,9.28
20,58767302288000,-0.11,4.37,9.15
20,58767352276000,0.08,4.37,9.04
20,58767402294000,0.04,4.4,9.08
20,58767452374000,-0.08,4.37,9.11
20,58767502270000,-0.04,4.37,9.11
20,58767552319000,-0.08,4.29,9.19
20,58767602306000,-0.08,4.44,9.11
20,58767652264000,-0.08,4.37,9.19
20,58767702313000,-0.04,4.4,9.11
20,58767752300000,0.11,4.44,9.04
20,58767802319000,-0.11,4.37,9.08
20,58767852306000,-0.3,4.33,9.11
20,58767902294000,-0.34,4.29,9.19
20,58767952282000,-0.11,4.29,9.15
20,58768002606000,-0.08,4.33,9.19
20,58768052319000,-0.08,4.4,9.11
20,58768102276000,-0.04,4.4,9.11
20,58768152264000,-0.04,4.37,9.08
20,58768202313000,0.08,4.37,9.08
20,58768252300000,-0.19,4.25,9.28
20,58768302319000,-0.15,4.37,9.23
20,58768352276000,0.04,4.37,9.11
20,58768402264000,-0.08,4.25,9.11
20,58768452313000,-0.11,4.29,9.15
20,58768502270000,-0.15,4.29,9.19
20,58768552319000,-0.23,4.18,9.28
20,58768602306000,-0.11,4.29,9.19
20,58768652294000,0.31,4.4,9.04
20,58768702313000,0.19,4.33,9.08
20,58768752300000,-0.08,4.37,9.15
20,58768802319000,-0.3,4.18,9.28
20,58768852306000,-0.42,4.06,9.34
20,58768902294000,-0.19,4.14,9.3
20,58768952313000,0.08,4.29,9.15
20,58769002300000,0.11,4.29,9.04
20,58769052319000,-0.08,4.25,9.15
20,58769102306000,-0.23,4.18,9.3
20,58769152264000,-0.38,4.14,9.3
20,58769202313000,-0.15,4.21,9.19
20,58769252300000,0.11,4.29,9.08
20,58769302319000,0.0,4.25,9.11
20,58769352337000,-0.15,4.21,9.23
20,58769402294000,-0.34,4.1,9.28
20,58769452313000,-0.3,4.14,9.34
20,58769502300000,-0.04,4.25,9.19
20,58769552319000,0.04,4.29,9.11
20,58769602306000,-0.08,4.25,9.23
20,58769652294000,-0.19,4.18,9.28
20,58769652294000,-0.19,4.18,9.28
20,58769752300000,-0.11,4.21,9.15
20,58769802349000,0.04,4.33,9.11
20,58769852306000,-0.04,4.29,9.19
20,58769852306000,-0.04,4.29,9.19
20,58769911816000,-0.11,4.18,9.28
20,58769972363000,-0.19,4.21,9.28
20,58770022350000,-0.15,4.21,9.28
20,58770072308000,-0.08,4.21,9.23
20,58770132244000,-0.08,4.18,9.23
20,58770182293000,-0.08,4.21,9.28
20,58770232342000,-0.11,4.25,9.19
20,58770282238000,-0.15,4.25,9.23
20,58770332317000,-0.11,4.25,9.23
20,58770382305000,-0.08,4.18,9.23
20,58770432324000,-0.08,4.21,9.15
20,58770500286000,-0.08,4.25,9.23
20,58770552319000,-0.11,4.21,9.28
20,58770602306000,-0.08,4.21,9.19
20,58770652264000,-0.04,4.29,9.19
20,58770702282000,-0.08,4.25,9.19
20,58770752270000,-0.08,4.21,9.23
20,58770802319000,-0.19,4.18,9.28
20,58770852306000,-0.11,4.21,9.23
20,58770902294000,-0.04,4.25,9.19
20,58770952282000,-0.04,4.25,9.23
20,58771002270000,-0.08,4.25,9.23
20,58771002270000,-0.08,4.25,9.23
20,58771102276000,-0.08,4.25,9.19
20,58771152264000,-0.08,4.25,9.28
20,58771202282000,-0.11,4.25,9.28
20,58771252300000,0.0,4.29,9.15
20,58771302288000,0.04,4.25,9.15
20,58771352276000,0.04,4.21,9.23
20,58771402264000,-0.15,4.21,9.28
20,58771452282000,-0.15,4.25,9.3
20,58771502331000,-0.04,4.18,9.23
20,58771552288000,-0.04,4.21,9.11
20,58771602306000,0.0,4.21,9.19
20,58771652264000,0.0,4.29,9.15
20,58771702343000,-0.08,4.33,9.15
20,58771752270000,-0.08,4.21,9.23
20,58771802319000,-0.04,4.18,9.28
20,58771852306000,-0.08,4.21,9.15
20,58771902264000,-0.08,4.21,9.23
20,58771952313000,-0.04,4.25,9.19
20,58772002606000,-0.04,4.21,9.28
20,58772052288000,-0.08,4.18,9.28
20,58772102306000,-0.04,4.25,9.28
20,58772152294000,-0.04,4.29,9.23
20,58772202282000,-0.04,4.29,9.19
20,58772252270000,-0.04,4.21,9.15
20,58772302288000,-0.08,4.21,9.23
20,58772352306000,-0.04,4.25,9.11
20,58772402294000,0.08,4.21,9.19
20,58772452313000,-0.19,4.18,9.34
20,58772502300000,-0.23,4.21,9.28
20,58772552319000,-0.04,4.29,9.15
20,58772602306000,0.04,4.33,9.08
20,58772652294000,-0.08,4.25,9.23
20,58772702313000,-0.19,4.1,9.34
20,58772752270000,-0.19,4.18,9.3
20,58772802319000,-0.11,4.21,9.23
20,58772852306000,-0.08,4.25,9.19
20,58772902264000,-0.04,4.25,9.23
20,58772952282000,-0.04,4.25,9.15
20,58773002270000,-0.08,4.25,9.23
20,58773052288000,-0.11,4.25,9.28
20,58773102337000,-0.11,4.29,9.19
20,58773152264000,-0.11,4.25,9.15
20,58773152264000,-0.11,4.25,9.15
20,58773252270000,-0.11,4.25,9.23
20,58773302288000,-0.11,4.29,9.15
20,58773352306000,-0.08,4.25,9.23
20,58773402294000,-0.11,4.21,9.19
20,58773452282000,-0.11,4.25,9.15
20,58773502270000,-0.15,4.29,9.15
20,58773552319000,-0.08,4.25,9.19
20,58773602337000,-0.15,4.21,9.28
20,58773652294000,-0.11,4.25,9.23
20,58773702313000,-0.11,4.29,9.23
20,58773752270000,-0.08,4.29,9.19
20,58773802319000,-0.11,4.25,9.19
20,58773852276000,-0.11,4.25,9.23
20,58773902294000,-0.15,4.21,9.23
20,58773952282000,-0.11,4.21,9.15
20,58774002544000,-0.08,4.25,9.19
20,58774052288000,-0.08,4.25,9.23
20,58774102337000,-0.15,4.21,9.19
20,58774152264000,-0.11,4.21,9.28
20,58774202343000,-0.15,4.18,9.19
20,58774252270000,-0.08,4.25,9.19
20,58774302288000,-0.11,4.25,9.15
20,58774352276000,-0.11,4.21,9.23
20,58774402264000,-0.08,4.21,9.28
20,58774452282000,-0.08,4.21,9.19
20,58774502575000,-0.08,4.21,9.28
20,58774552288000,-0.08,4.21,9.19
20,58774602306000,-0.11,4.25,9.19
20,58774652264000,-0.11,4.29,9.19
20,58774702313000,0.0,4.21,9.11
20,58774752270000,0.0,4.18,9.19
20,58774802288000,-0.04,4.21,9.19
20,58774852306000,-0.04,4.25,9.11
20,58774902264000,-0.04,4.29,9.23
20,58774952313000,-0.11,4.21,9.28
20,58775002300000,-0.08,4.18,9.23
20,58775052319000,-0.11,4.14,9.28
20,58775102276000,-0.11,4.14,9.23
20,58775152294000,-0.08,4.21,9.19
20,58775202313000,-0.04,4.25,9.15
20,58775252300000,-0.08,4.21,9.23
20,58775302288000,-0.08,4.18,9.28
20,58775352306000,-0.08,4.18,9.23
20,58775402264000,-0.04,4.21,9.23
20,58775452282000,-0.04,4.21,9.19
20,58775502270000,-0.11,4.21,9.23
20,58775552288000,-0.11,4.18,9.19
20,58775602306000,-0.04,4.21,9.19
20,58775652264000,-0.04,4.25,9.23
20,58775702282000,-0.08,4.21,9.23
20,58775752270000,-0.04,4.21,9.28
20,58775802319000,-0.11,4.18,9.3
20,58775852276000,-0.11,4.21,9.23
20,58775902264000,-0.11,4.21,9.28
20,58775952313000,-0.04,4.25,9.19
20,58775952313000,-0.04,4.25,9.19
20,58776052319000,0.0,4.21,9.23
20,58776102276000,-0.04,4.21,9.23
20,58776152264000,-0.11,4.21,9.28
20,58776202313000,-0.08,4.25,9.23
20,58776252300000,-0.04,4.18,9.19
20,58776302288000,-0.11,4.18,9.15
20,58776352276000,-0.08,4.21,9.15
20,58776402294000,-0.11,4.18,9.19
20,58776452282000,-0.08,4.18,9.19
20,58776502300000,-0.04,4.25,9.15
20,58776552288000,-0.08,4.21,9.15
20,58776602276000,-0.08,4.21,9.28
20,58776652264000,-0.08,4.18,9.23
20,58776702313000,-0.19,4.1,9.38
20,58776752270000,-0.23,4.1,9.34
20,58776802319000,-0.15,4.18,9.28
20,58776852306000,-0.08,4.25,9.15
20,58776902294000,-0.04,4.25,9.23
20,58776952282000,-0.08,4.25,9.19
20,58777002300000,-0.04,4.25,9.15
20,58777052288000,-0.08,4.37,9.15
20,58777102306000,0.0,4.33,9.15
20,58777152264000,-0.08,4.33,9.15
20,58777202343000,-0.11,4.25,9.19
20,58777252270000,-0.08,4.29,9.19
20,58777302288000,-0.08,4.25,9.23
20,58777352276000,-0.08,4.29,9.28
20,58777402264000,-0.08,4.33,9.15
20,58777452282000,-0.04,4.33,9.15
20,58777502300000,-0.08,4.21,9.19
20,58777552319000,-0.15,4.18,9.23
20,58777602306000,-0.11,4.21,9.23
20,58777652294000,-0.08,4.29,9.15
20,58777702282000,-0.04,4.29,9.15
20,58777752300000,-0.08,4.21,9.19
20,58777802319000,-0.11,4.25,9.23
20,58777852306000,-0.08,4.18,9.15
20,58777902294000,-0.11,4.21,9.23
20,58777952282000,-0.11,4.21,9.19
20,58778002483000,-0.11,4.21,9.28
20,58778052319000,-0.11,4.21,9.23
20,58778102306000,-0.08,4.25,9.19
20,58778160320000,0.0,4.29,9.15
20,58778160320000,0.0,4.29,9.15
20,58778212261000,-0.04,4.25,9.15
20,58778262341000,-0.08,4.33,9.15
20,58778312328000,-0.04,4.21,9.19
20,58778362377000,-0.11,4.06,9.28
20,58778412304000,-0.15,4.14,9.28
20,58778462322000,-0.11,4.21,9.23
20,58778512310000,-0.08,4.25,9.23
20,58778562298000,-0.04,4.21,9.23
20,58778612316000,-0.04,4.21,9.19
20,58778662335000,-0.11,4.14,9.3
20,58778712322000,-0.08,4.18,9.19
20,58778762310000,-0.11,4.18,9.28
20,58778812328000,-0.08,4.14,9.28
20,58778862316000,-0.08,4.18,9.28
20,58778862316000,-0.08,4.18,9.28
20,58778962292000,-0.11,4.18,9.19
20,58779012310000,-0.11,4.18,9.28
20,58779062420000,-0.11,4.18,9.19
20,58779112347000,-0.08,4.18,9.23
20,58779162304000,-0.04,4.18,9.19
20,58779212353000,-0.08,4.18,9.3
20,58779262341000,-0.19,4.1,9.3
20,58779312328000,-0.11,4.14,9.28
20,58779362347000,-0.04,4.25,9.15
20,58779412335000,-0.04,4.21,9.23
20,58779462353000,-0.11,4.14,9.28
20,58779512310000,-0.15,4.14,9.23
20,58779562298000,-0.15,4.14,9.28
20,58779612347000,-0.11,4.14,9.15
20,58779662304000,-0.08,4.14,9.28
20,58779662304000,-0.08,4.14,9.28
20,58779762310000,-0.11,4.14,9.23
20,58779812389000,-0.11,4.18,9.23
20,58779862652000,-0.08,4.18,9.23
20,58779912335000,-0.04,4.21,9.3
20,58779962322000,-0.15,4.25,9.3
20,58780012280000,-0.11,4.37,9.3
20,58780062328000,-0.15,4.18,9.23
20,58780112347000,0.19,4.33,9.0
20,58780162335000,0.5,3.95,8.89
20,58780212322000,0.23,3.99,9.04
20,58780262310000,0.19,4.06,9.11
20,58780312328000,0.11,4.06,9.15
20,58780362347000,-0.04,3.99,9.3
20,58780412304000,-0.15,4.06,9.3
20,58780462322000,-0.53,4.1,9.51
20,58780512371000,-0.84,3.95,9.47
20,58780562298000,-0.95,3.72,9.47
20,58780612347000,-0.72,3.76,9.47
20,58780662335000,-0.76,3.87,9.43
20,58780712322000,-0.61,3.99,9.43
20,58780822125000,-0.23,3.99,9.43
20,58780822125000,-0.23,3.99,9.43
20,58780872265000,-0.34,3.95,9.51
20,58780922436000,-0.23,3.91,9.3
20,58780972302000,-0.34,3.57,9.34
20,58781022350000,-0.42,3.3,9.43
20,58781082256000,-0.46,3.17,9.43
20,58781132336000,-0.72,3.15,9.81
20,58781182324000,-0.57,3.21,9.66
20,58781232342000,-0.72,3.49,9.58
20,58781282238000,-0.65,3.64,9.62
20,58781332317000,-0.53,3.64,9.47
20,58781382275000,-0.42,3.64,9.47
20,58781432324000,-0.5,3.68,9.51
20,58781482342000,-0.38,3.79,9.43
20,58781532299000,-0.38,3.76,9.47
20,58781582317000,-0.38,3.83,9.51
20,58781632305000,-0.38,3.83,9.47
20,58781682324000,-0.3,3.83,9.43
20,58781732311000,-0.3,3.76,9.3
20,58781782330000,-0.34,3.64,9.47
20,58781832378000,-0.38,3.68,9.43
20,58781882336000,-0.46,3.72,9.47
20,58781932293000,-0.42,3.83,9.47
20,58781982342000,-0.38,3.87,9.47
20,58782032330000,-0.3,3.83,9.43
20,58782082287000,-0.34,3.87,9.43
20,58782132336000,-0.3,3.83,9.38
20,58782182324000,-0.38,3.72,9.47
20,58782232342000,-0.3,3.64,9.43
20,58782282299000,-0.38,3.72,9.43
20,58782332348000,-0.42,3.79,9.47
20,58782382336000,-0.34,3.91,9.38
20,58782432324000,-0.3,3.99,9.43
20,58782482311000,-0.3,4.06,9.43
20,58782532330000,-0.38,4.18,9.53
20,58782582287000,-0.04,4.52,9.53
20,58782632336000,0.23,4.33,9.23
20,58782682324000,0.15,3.91,8.81
20,58782732342000,0.0,3.64,8.89
20,58782782330000,0.23,3.3,9.04
20,58782832348000,0.11,3.06,9.11
20,58782882336000,-0.99,2.53,10.61
20,58782932324000,-0.34,3.64,9.7
20,58782982342000,-0.04,3.72,9.34
20,58783032330000,-0.42,3.68,9.58
20,58783082348000,-0.89,4.02,9.43
20,58783132336000,-0.91,3.91,9.38
20,58783182324000,-1.12,3.57,9.34
20,58783232342000,-1.46,3.38,9.53
20,58783282330000,-1.8,3.34,9.62
20,58783332378000,-1.92,3.26,9.7
20,58783382336000,-1.65,3.41,9.38
20,58783432324000,-1.95,2.98,9.58
20,58783482342000,-2.18,2.96,9.72
20,58783532330000,-1.65,3.76,9.62
20,58783592236000,-0.76,3.76,9.34
20,58783642315000,-0.53,3.76,9.43
20,58783692333000,-0.42,3.83,9.28
20,58783742352000,-0.84,3.91,9.19
20,58783792309000,-0.76,4.14,9.19
20,58783842327000,-0.76,3.91,9.34
20,58783892346000,-1.31,3.79,9.43
20,58783942303000,-1.5,3.57,9.43
20,58783992291000,-1.65,3.41,9.47
20,58784042339000,-1.69,3.34,9.62
20,58784092297000,-1.5,3.38,9.53
20,58784142346000,-1.18,3.49,9.47
20,58784192303000,-1.04,3.57,9.47
20,58784242321000,-0.99,3.6,9.38
20,58784292309000,-1.14,3.6,9.43
20,58784342327000,-1.27,3.57,9.53
20,58784392315000,-1.42,3.49,9.47
20,58784442272000,-1.42,3.49,9.51
20,58784492291000,-1.33,3.57,9.51
20,58784542309000,-1.27,3.57,9.43
20,58784592297000,-1.23,3.53,9.47
20,58784642315000,-1.27,3.53,9.51
20,58784642315000,-1.27,3.53,9.51
20,58784742260000,-1.27,3.49,9.51
20,58784792309000,-1.31,3.53,9.47
20,58784842297000,-1.31,3.57,9.43
20,58784892346000,-1.27,3.53,9.47
20,58784892346000,-1.27,3.53,9.47
20,58784992291000,-1.31,3.49,9.43
20,58785042339000,-1.27,3.53,9.51
20,58785092480000,-1.27,3.53,9.47
20,58785142315000,-1.31,3.53,9.43
20,58785142315000,-1.31,3.53,9.43
20,58785242291000,-1.27,3.57,9.43
20,58785302258000,-1.27,3.53,9.47
20,58785302258000,-1.27,3.53,9.47
20,58785402264000,-1.27,3.6,9.43
20,58785452313000,-1.31,3.53,9.51
20,58785502270000,-1.27,3.57,9.51
20,58785552319000,-1.33,3.53,9.47
20,58785602306000,-1.33,3.49,9.43
20,58785652294000,-1.31,3.53,9.47
20,58785702282000,-1.31,3.57,9.43
20,58785752270000,-1.31,3.57,9.51
20,58785802319000,-1.42,3.53,9.47
20,58785802319000,-1.42,3.53,9.47
20,58785872326000,-1.33,3.57,9.38
20,58785922314000,-1.5,3.53,9.51
20,58785972332000,-1.46,3.53,9.43
20,58786032269000,-1.46,3.53,9.47
20,58786082317000,-1.33,3.57,9.51
20,58786132305000,-1.33,3.49,9.47
20,58786182293000,-1.27,3.49,9.43
20,58786232342000,-1.38,3.45,9.38
20,58786282452000,-1.46,3.57,9.43
20,58786332317000,-1.57,3.45,9.43
20,58786382366000,-2.07,3.34,9.47
20,58786432324000,-1.99,3.53,9.38
20,58786482342000,-1.61,3.49,9.43
20,58786532330000,-1.5,3.64,9.51
20,58786582317000,-1.23,3.53,9.43
20,58786632305000,-1.23,3.41,9.43
20,58786682293000,-1.14,3.41,9.51
20,58786732342000,-1.18,3.45,9.47
20,58786782299000,-1.27,3.49,9.47
20,58786832348000,-1.33,3.57,9.43
20,58786882336000,-1.42,3.53,9.43
20,58786882336000,-1.42,3.53,9.43
20,58786982311000,-1.5,3.45,9.47
20,58787032299000,-1.46,3.49,9.47
20,58787082287000,-1.5,3.53,9.47
20,58787132336000,-1.38,3.49,9.43
20,58787182293000,-1.33,3.53,9.43
20,58787232311000,-1.31,3.45,9.43
20,58787282299000,-1.31,3.49,9.47
20,58787332317000,-1.31,3.49,9.43
20,58787382305000,-1.31,3.49,9.47
20,58787432263000,-1.33,3.49,9.47
20,58787482281000,-1.33,3.49,9.43
20,58787532330000,-1.42,3.49,9.47
20,58787582287000,-1.38,3.49,9.43
20,58787632305000,-1.42,3.49,9.51
20,58787682293000,-1.33,3.49,9.43
20,58787732342000,-1.31,3.45,9.51
20,58787782299000,-1.31,3.49,9.47
20,58787832317000,-1.38,3.49,9.43
20,58787882336000,-1.31,3.53,9.51
20,58787932324000,-1.33,3.49,9.43
20,58787932324000,-1.33,3.49,9.43
20,58788032269000,-1.33,3.49,9.51
20,58788082287000,-1.31,3.49,9.43
20,58788132305000,-1.38,3.53,9.43
20,58788182354000,-1.33,3.49,9.47
20,58788232342000,-1.31,3.53,9.51
20,58788282330000,-1.38,3.49,9.47
20,58788332317000,-1.38,3.45,9.43
20,58788382305000,-1.38,3.49,9.47
20,58788432293000,-1.38,3.53,9.47
20,58788482342000,-1.31,3.49,9.47
20,58788552288000,-1.31,3.49,9.47
20,58788602276000,-1.38,3.45,9.51
20,58788652325000,-1.38,3.53,9.47
20,58788702221000,-1.31,3.53,9.47
20,58788702221000,-1.31,3.53,9.47
20,58788802288000,-1.33,3.49,9.47
20,58788852276000,-1.33,3.49,9.43
20,58788852276000,-1.33,3.49,9.43
20,58788952282000,-1.33,3.53,9.38
20,58789002270000,-1.33,3.45,9.47
20,58789052288000,-1.31,3.53,9.47
20,58789102306000,-1.38,3.53,9.53
20,58789152264000,-1.33,3.53,9.47
20,58789202313000,-1.31,3.57,9.47
20,58789252300000,-1.27,3.53,9.38
20,58789302288000,-1.31,3.53,9.47
20,58789352306000,-1.33,3.49,9.51
20,58789402264000,-1.33,3.53,9.43
20,58789452313000,-1.38,3.49,9.51
20,58789502270000,-1.33,3.49,9.47
20,58789552288000,-1.38,3.49,9.47
20,58789602306000,-1.33,3.45,9.47
20,58789652264000,-1.31,3.53,9.47
20,58789702282000,-1.33,3.53,9.47
20,58789752300000,-1.33,3.49,9.47
20,58789802532000,-1.33,3.49,9.43
20,58789852276000,-1.33,3.49,9.47
20,58789852276000,-1.33,3.49,9.47
20,58789952282000,-1.31,3.53,9.43
20,58790002422000,-1.33,3.53,9.43
20,58790052288000,-1.33,3.53,9.47
20,58790102276000,-1.33,3.53,9.51
20,58790152264000,-1.33,3.49,9.47
20,58790202282000,-1.31,3.49,9.47
20,58790252270000,-1.31,3.57,9.51
20,58790252270000,-1.31,3.57,9.51
20,58790352276000,-1.33,3.49,9.51
20,58790402264000,-1.33,3.49,9.47
20,58790452313000,-1.31,3.53,9.47
20,58790502270000,-1.31,3.53,9.43
20,58790552258000,-1.31,3.53,9.47
20,58790602306000,-1.33,3.49,9.47
20,58790652264000,-1.33,3.49,9.43
20,58790702282000,-1.38,3.49,9.47
20,58790752300000,-1.31,3.57,9.43
20,58790752300000,-1.31,3.57,9.43
20,58790852276000,-1.27,3.53,9.51
20,58790902294000,-1.33,3.49,9.51
20,58790952282000,-1.33,3.53,9.38
20,58791002331000,-1.31,3.49,9.43
20,58791052288000,-1.31,3.53,9.47
20,58791102306000,-1.31,3.53,9.43
20,58791152294000,-1.38,3.49,9.47
20,58791202282000,-1.33,3.53,9.47
20,58791252239000,-1.33,3.53,9.51
20,58791302288000,-1.33,3.49,9.47
20,58791352276000,-1.31,3.53,9.47
20,58791352276000,-1.31,3.53,9.47
20,58791452282000,-1.33,3.49,9.47
20,58791502270000,-1.33,3.53,9.51
20,58791552288000,-1.33,3.49,9.47
20,58791602337000,-1.31,3.53,9.43
20,58791652233000,-1.31,3.53,9.38
20,58791702282000,-1.33,3.53,9.47
20,58791752300000,-1.31,3.57,9.51
20,58791802319000,-1.33,3.53,9.47
20,58791852276000,-1.31,3.53,9.47
20,58791902294000,-1.27,3.6,9.51
20,58791952282000,-1.31,3.53,9.51
20,58792002575000,-1.31,3.53,9.47
20,58792052288000,-1.33,3.53,9.51
20,58792102306000,-1.31,3.53,9.51
20,58792152264000,-1.31,3.53,9.47
20,58792202343000,-1.27,3.6,9.43
20,58792252300000,-1.38,3.53,9.47
20,58792302319000,-1.33,3.49,9.51
20,58792352306000,-1.31,3.49,9.43
20,58792402264000,-1.31,3.53,9.43
20,58792452282000,-1.33,3.53,9.43
20,58792502300000,-1.31,3.57,9.43
20,58792552288000,-1.33,3.53,9.43
20,58792602306000,-1.33,3.49,9.47
20,58792652264000,-1.33,3.57,9.47
20,58792702313000,-1.27,3.57,9.43
20,58792752300000,-1.33,3.49,9.47
20,58792802288000,-1.33,3.49,9.43
20,58792852276000,-1.33,3.53,9.43
20,58792902264000,-1.33,3.57,9.47
20,58792952282000,-1.33,3.57,9.51
20,58793002300000,-1.33,3.64,9.53
20,58793052319000,-1.27,3.72,9.08
20,58793102306000,-1.61,3.64,9.53
20,58793152264000,-1.5,3.38,9.53
20,58793202313000,-1.42,3.41,9.58
20,58793252300000,-1.46,3.49,9.51
20,58793302319000,-1.38,3.6,9.43
20,58793352337000,-1.69,3.64,9.7
20,58793402294000,-1.73,3.26,9.89
20,58793452313000,-1.38,3.02,9.53
20,58793502300000,-1.08,3.21,9.51
20,58793552319000,-0.3,3.72,9.15
20,58793552319000,-0.3,3.72,9.15
20,58793622295000,-0.3,3.64,9.11
20,58793672314000,-0.57,4.37,9.34
20,58793722332000,-1.04,4.25,9.81
20,58793782269000,-1.12,3.53,9.3
20,58793832348000,-0.91,2.87,9.51
20,58793882336000,-1.12,2.68,9.7
20,58793932324000,-1.18,2.96,9.72
20,58793982342000,-1.53,3.15,9.77
20,58794032330000,-1.31,3.06,9.62
20,58794082317000,-0.65,3.26,9.53
20,58794132336000,-0.84,3.45,9.81
20,58794182293000,-0.76,3.3,9.11
20,58794232342000,-0.91,3.72,9.58
20,58794282330000,-2.03,4.33,11.14
20,58794332348000,-1.33,3.99,11.96
20,58794382336000,0.72,6.7,10.46
20,58794432324000,1.23,5.9,9.53
20,58794482311000,1.23,6.36,8.54
20,58794532360000,0.93,6.28,8.16
20,58794582348000,1.12,7.12,7.82
20,58794632336000,0.99,8.08,6.93
20,58794682324000,0.76,7.89,6.44
20,58794732342000,0.69,6.78,5.05
20,58794782330000,1.14,5.79,4.75
20,58794832348000,2.6,7.67,4.02
20,58794882336000,-0.34,8.96,4.14
20,58794882336000,-0.34,8.96,4.14
20,58794984173000,0.61,8.96,3.34
20,58795042278000,1.5,9.23,3.76
20,58795092602000,0.99,9.89,3.95
20,58795142346000,2.11,9.47,3.45
20,58795192364000,2.49,9.58,3.49
20,58795242321000,0.72,8.66,4.18
20,58795292339000,0.34,7.63,4.06
20,58795342327000,1.92,7.89,2.79
20,58795392346000,1.33,8.01,3.21
20,58795442333000,0.31,9.04,3.64
20,58795492321000,1.04,9.72,3.53
20,58795542339000,2.07,9.96,3.99
20,58795592297000,1.31,9.34,3.21
20,58795642346000,0.65,9.08,2.49
20,58795692364000,0.93,9.34,3.38
20,58795742291000,0.93,9.77,3.6
20,58795792309000,0.72,9.77,3.76
20,58795842358000,0.93,9.38,3.68
20,58795892346000,1.12,9.15,3.72
20,58795942333000,1.04,9.08,3.45
20,58795992291000,0.93,8.92,3.76
20,58796042400000,0.69,9.3,4.1
20,58796092266000,0.69,9.43,4.18
20,58796142346000,0.72,9.34,3.87
20,58796192333000,0.76,9.34,3.87
20,58796242321000,0.69,9.15,3.68
20,58796292339000,0.89,9.23,3.53
20,58796342327000,0.69,9.28,3.41
20,58796392284000,0.42,9.38,3.95
20,58796452313000,0.42,9.38,3.95
20,58796502209000,0.42,9.3,3.95
20,58796552319000,0.57,9.3,3.79
20,58796602245000,0.57,9.28,3.76
20,58796652294000,0.46,9.23,3.68
20,58796702282000,0.53,9.3,3.68
20,58796752300000,0.65,9.34,3.64
20,58796802319000,0.57,9.43,3.64
20,58796852306000,0.53,9.51,3.83
20,58796902294000,0.61,9.34,3.79
20,58796952313000,0.5,9.08,3.79
20,58797002300000,0.76,9.15,3.49
20,58797052319000,0.72,9.15,3.76
20,58797102306000,0.38,9.11,4.18
20,58797152294000,0.42,9.08,3.87
20,58797202313000,0.61,8.89,3.06
20,58797252300000,1.08,8.96,2.76
20,58797302319000,1.12,9.81,2.87
20,58797352306000,1.33,11.56,3.6
20,58797402264000,1.23,10.99,3.6
20,58797452313000,0.11,8.5,2.72
20,58797502300000,-1.88,11.03,2.64
20,58797552319000,-2.41,9.0,1.54
20,58797602306000,-2.98,10.12,0.46
20,58797652294000,-1.92,10.08,2.76
20,58797702313000,-1.95,9.34,0.84
20,58797752300000,-2.34,9.04,1.27
20,58797802319000,-2.96,9.47,1.31
20,58797852306000,-3.02,9.38,1.69
20,58797902264000,-2.22,9.38,0.69
20,58797952313000,-2.14,9.3,1.08
20,58798002483000,-4.02,9.19,0.99
20,58798002483000,-4.02,9.19,0.99
20,58798062359000,-3.49,9.62,1.38
20,58798112408000,-1.65,9.47,1.14
20,58798162335000,-1.33,9.51,1.38
20,58798212322000,-2.64,9.66,0.95
20,58798262341000,-3.36,9.3,0.8
20,58798312328000,-2.49,9.19,0.5
20,58798362316000,-1.99,9.19,1.46
20,58798412335000,-3.3,10.12,0.38
20,58798462322000,-2.72,10.19,-0.95
20,58798512341000,-1.27,11.3,-0.72
20,58798562328000,-2.56,10.61,-1.12
20,58798612347000,-1.42,9.58,0.15
20,58798662335000,-2.22,8.47,0.65
20,58798712322000,-2.41,9.7,1.12
20,58798762341000,-1.88,11.26,0.69
20,58798812328000,-0.11,10.88,1.88
20,58798862347000,-0.19,9.43,2.83
20,58798912335000,-0.04,8.5,2.15
20,58798962353000,0.08,8.2,2.45
20,58799012280000,0.15,8.39,2.45
20,58799062328000,-0.04,9.15,2.03
20,58799112347000,0.38,10.42,2.07
20,58799162335000,1.8,10.95,1.5
20,58799212536000,0.61,9.96,7.89
20,58799262341000,-2.41,9.47,-0.15
20,58799312328000,-1.46,11.3,2.07
20,58799362347000,4.21,12.72,1.65
20,58799412335000,0.23,7.82,2.22
20,58799462322000,-2.56,10.95,0.31
20,58799512341000,-0.99,9.3,-2.34
20,58799562328000,-2.96,10.23,-1.23
20,58799612347000,-3.34,9.7,0.76
20,58799662335000,-2.53,9.23,-0.04
20,58799712292000,-1.46,9.04,-0.04
20,58799762341000,-2.03,9.28,-0.95
20,58799812328000,-2.87,10.53,1.14
20,58799862347000,-3.72,9.34,0.69
20,58799912335000,-2.91,9.51,-0.76
20,58799962353000,-2.64,9.62,0.5
20,58800012280000,-3.17,9.53,0.23
20,58800062328000,-3.26,9.38,-0.04
20,58800112347000,-1.65,9.43,0.15
20,58800162335000,-2.56,9.04,-0.15
20,58800212322000,-3.36,9.34,0.84
20,58800262310000,-3.26,8.89,0.99
20,58800312328000,-4.59,9.51,0.76
20,58800362347000,-4.75,11.35,-0.3
20,58800412365000,-4.18,10.76,-0.99
20,58800462322000,0.84,11.41,-0.19
20,58800512341000,0.08,7.74,-0.23
20,58800562328000,-1.33,11.37,0.93
20,58800612347000,-1.38,10.84,-1.04
20,58800662335000,-4.14,10.42,2.03
20,58800712322000,-2.14,10.27,2.49
20,58800762310000,0.27,7.44,2.49
20,58800812328000,-1.14,7.74,2.37
20,58800862347000,-0.5,7.67,3.34
20,58800912335000,-0.84,7.89,4.06
20,58800962322000,-0.69,8.31,5.41
20,58801012280000,-2.68,11.54,6.32
20,58801062328000,-1.61,9.38,5.6
20,58801112347000,-1.27,9.43,3.99
20,58801162335000,1.12,14.63,1.08
20,58801212322000,0.84,7.78,0.15
20,58801262310000,-1.5,10.5,-2.72
20,58801312328000,-2.49,9.77,1.27
20,58801362347000,-2.11,9.66,1.33
20,58801412335000,-1.8,8.96,0.19
20,58801462292000,-1.12,9.58,0.19
20,58801522320000,-2.98,9.34,2.03
20,58801582348000,-2.49,9.77,-0.5
20,58801632336000,-1.65,9.23,1.12
20,58801682873000,-2.49,9.15,1.04
20,58801732342000,-3.79,9.89,-0.04
20,58801782330000,-2.72,9.7,0.38
20,58801832653000,-1.73,10.23,1.27
20,58801882366000,-3.91,10.53,0.15
20,58801932324000,-5.9,12.15,-1.12
20,58801982372000,-1.23,12.07,-0.57
20,58802032360000,3.68,8.16,0.27
20,58802082348000,0.11,10.65,0.69
20,58802132397000,-5.13,13.72,2.37
20,58802182324000,-1.18,8.5,3.99
20,58802232342000,0.61,6.24,3.06
20,58802282330000,-0.38,6.21,2.98
20,58802332348000,0.23,6.13,3.45
20,58802382336000,-0.46,8.24,4.29
20,58802432324000,-0.95,12.6,6.51
20,58802482342000,-2.41,8.12,4.44
20,58802532330000,-2.07,13.18,3.6
20,58802582348000,2.87,10.15,1.08
20,58802632336000,-0.95,10.19,-1.69
20,58802682324000,-2.45,9.34,0.27
20,58802732342000,-2.53,10.15,1.76
20,58802782330000,-2.37,9.7,1.61
20,58802832348000,-2.22,8.89,0.8
20,58802882336000,-2.75,9.11,0.8
20,58802932324000,-3.02,9.7,1.04
20,58802982342000,-2.3,9.38,0.99
20,58803032330000,-2.75,10.04,-0.89
20,58803082348000,-2.03,10.0,0.72
20,58803132336000,-1.5,9.7,0.72
20,58803182324000,-1.14,9.66,0.15
20,58803232342000,-2.14,10.0,-0.15
20,58803282330000,-1.53,9.72,0.8
20,58803332348000,-1.42,9.77,0.34
20,58803382336000,-2.34,10.04,0.19
20,58803432324000,-1.73,9.85,0.38
20,58803482342000,-1.46,9.89,0.5
20,58803532330000,-1.84,9.85,0.46
20,58803582348000,-1.73,9.77,0.42
20,58803632336000,-1.57,9.81,0.19
20,58803682354000,-1.42,9.85,0.15
20,58803732342000,-1.46,9.81,0.15
20,58803782330000,-1.5,9.85,0.31
20,58803832348000,-1.57,9.81,0.38
20,58803882366000,-1.88,9.81,0.46
20,58803932354000,-1.76,9.89,0.46
20,58803982372000,-1.73,9.81,0.38
20,58804052380000,-1.73,9.89,0.34
20,58804102276000,-1.61,9.81,0.23
20,58804152325000,-1.65,9.89,0.19
20,58804202313000,-1.61,9.85,0.23
20,58804252300000,-1.61,9.77,0.15
20,58804302319000,-1.61,9.81,0.19
20,58804352306000,-1.69,9.77,0.15
20,58804402294000,-1.69,9.81,0.19
20,58804452313000,-1.61,9.77,0.23
20,58804502300000,-1.61,9.92,0.19
20,58804552319000,-1.57,9.81,0.19
20,58804602337000,-1.61,9.85,0.15
20,58804652294000,-1.57,9.81,0.15
20,58804702313000,-1.46,9.89,0.15
20,58804752270000,-1.5,9.89,0.15
20,58804802319000,-1.61,9.89,0.11
20,58804852306000,-1.5,9.85,0.27
20,58804902294000,-1.5,9.89,0.23
20,58804952282000,-1.5,9.85,0.23
20,58805002300000,-1.38,9.81,0.31
20,58805052319000,-1.38,9.77,0.38
20,58805102551000,-1.42,9.89,0.5
20,58805152294000,-1.31,9.92,0.69
20,58805202252000,-1.18,9.72,0.8
20,58805252300000,-1.04,9.7,1.18
20,58805252300000,-1.04,9.7,1.18
20,58805312359000,-0.84,9.38,1.92
20,58805362347000,-1.5,10.12,1.69
20,58805412365000,-1.12,9.89,3.15
20,58805462322000,-0.69,9.66,2.53
20,58805512341000,-0.53,9.62,2.22
20,58805562359000,-0.65,9.58,1.76
20,58805612347000,-0.57,9.7,1.76
20,58805662335000,-0.76,10.04,2.15
20,58805712322000,-1.04,10.08,2.03
20,58805762371000,-1.12,9.92,1.99
20,58805812328000,-0.99,9.81,1.92
20,58805862347000,-0.95,9.77,1.8
20,58805912335000,-1.31,9.81,1.57
20,58805962353000,-0.99,9.72,1.95
20,58806012310000,-0.76,9.62,1.84
20,58806062328000,-1.08,9.53,1.88
20,58806112377000,-1.27,9.77,1.8
20,58806162335000,-1.04,9.96,1.8
20,58806212322000,-0.84,10.0,1.69
20,58806262371000,-1.04,9.85,1.65
20,58806312328000,-1.18,9.77,1.54
20,58806362377000,-1.14,9.72,1.46
20,58806412335000,-1.38,10.19,1.57
20,58806462353000,-1.23,9.85,1.73
20,58806512341000,-1.23,9.62,1.31
20,58806562328000,-1.38,9.77,1.08
20,58806612377000,-1.31,9.81,1.46
20,58806662335000,-1.38,9.77,1.14
20,58806712414000,-1.33,9.81,1.23
20,58806762341000,-1.33,9.77,1.31
20,58806812359000,-1.33,9.72,1.18
20,58806862347000,-1.33,9.85,1.27
20,58806912335000,-1.42,9.81,1.23
20,58806962353000,-1.42,9.89,1.18
20,58807012310000,-1.38,9.85,1.12
20,58807062359000,-1.31,9.81,1.08
20,58807112347000,-1.27,9.81,1.18
20,58807162426000,-1.38,9.81,1.14
20,58807212322000,-1.38,9.81,1.18
20,58807262341000,-1.42,9.89,1.23
20,58807312328000,-1.31,9.92,1.14
20,58807362347000,-1.14,9.96,1.12
20,58807412365000,-1.12,9.96,1.08
20,58807462322000,-0.89,9.96,0.93
20,58807512341000,-0.76,9.81,0.89
20,58807562328000,-0.76,10.08,0.5
20,58807612377000,-1.04,10.04,0.84
20,58807662365000,-1.23,9.7,0.89
20,58807712383000,-1.5,10.0,0.8
20,58807762371000,-1.31,10.04,0.95
20,58807812328000,-1.08,10.04,1.38
20,58807862347000,-1.04,9.89,1.54
20,58807912396000,-1.27,9.77,1.12
20,58807962353000,-0.76,9.81,1.23
20,58808012341000,-0.04,10.04,1.61
20,58808062359000,0.0,9.89,0.89
20,58808112408000,0.31,9.7,0.93
20,58808162396000,0.11,9.72,0.69
20,58808212383000,0.23,9.77,0.65
20,58808262371000,0.27,9.89,0.8
20,58808312359000,0.27,10.19,0.65
20,58808362377000,0.15,10.08,0.53
20,58808412396000,0.27,9.92,0.38
20,58808462353000,0.27,9.89,0.31
20,58808512341000,-0.04,9.96,0.5
20,58808562359000,0.11,10.12,0.42
20,58808612347000,0.19,10.08,0.42
20,58808662365000,0.19,10.0,0.31
20,58808712383000,0.08,9.85,0.53
20,58808762310000,-0.04,9.85,0.53
20,58808812573000,0.0,9.92,0.69
20,58808862347000,0.08,10.04,0.69
20,58808912335000,0.04,9.92,0.72
20,58808962353000,0.08,9.81,0.69
20,58809012280000,-0.08,9.89,0.89
20,58809062328000,-0.08,9.92,0.84
20,58809122326000,-0.11,10.04,0.89
20,58809182293000,0.0,10.15,0.93
20,58809232342000,0.19,10.04,1.54
20,58809282330000,-0.15,9.72,0.93
20,58809332348000,-0.11,9.89,1.99
20,58809382336000,0.53,9.51,1.73
20,58809432324000,-0.15,9.7,1.84
20,58809482342000,0.0,10.08,1.57
20,58809532360000,-0.42,9.81,3.21
20,58809582348000,-0.84,10.0,1.69
20,58809632336000,-1.04,10.12,1.12
20,58809682324000,-0.08,9.81,1.65
20,58809732342000,-0.08,9.7,1.5
20,58809782330000,-0.72,9.77,0.95
20,58809832378000,-0.84,9.96,1.61
20,58809882336000,-0.65,10.0,1.61
20,58809932324000,-0.42,9.92,1.54
20,58809982372000,-0.61,9.85,1.57
20,58810032330000,-0.76,9.89,1.57
20,58810082317000,-0.76,9.85,1.57
20,58810132366000,-0.69,9.77,1.76
20,58810182354000,-0.84,9.7,1.8
20,58810232342000,-0.89,9.72,1.88
20,58810282269000,-0.89,9.81,1.8
20,58810332348000,-0.8,9.89,1.95
20,58810382305000,-0.8,9.81,1.95
20,58810432293000,-0.84,9.81,1.95
20,58810482372000,-0.76,9.77,1.99
20,58810532299000,-0.76,9.72,1.99
20,58810582348000,-0.8,9.7,1.95
20,58810632336000,-0.84,9.85,1.95
20,58810632336000,-0.84,9.85,1.95
20,58810732342000,-0.8,9.72,2.03
20,58810782330000,-0.72,9.81,1.95
20,58810832378000,-0.8,9.77,1.95
20,58810882305000,-0.8,9.77,1.99
20,58810932324000,-0.84,9.77,2.03
20,58810982311000,-0.76,9.77,1.95
20,58811032299000,-0.84,9.77,1.88
20,58811082317000,-0.76,9.77,1.95
20,58811132305000,-0.8,9.81,1.95
20,58811182690000,-0.72,9.85,1.92
20,58811232342000,-0.76,9.77,1.95
20,58811282238000,-0.89,9.72,1.99
20,58811332317000,-0.89,9.72,1.92
20,58811382336000,-0.84,9.81,1.95
20,58811432293000,-0.8,9.81,1.99
20,58811482311000,-0.84,9.77,1.99
20,58811532330000,-0.89,9.81,1.92
20,58811582317000,-0.89,9.77,1.95
20,58811632305000,-0.84,9.77,1.99
20,58811682263000,-0.84,9.81,1.99
20,58811752300000,-0.89,9.77,1.99
20,58811802258000,-0.89,9.77,2.03
20,58811852306000,-0.91,9.77,2.07
20,58811902233000,-0.91,9.81,1.99
20,58811952282000,-0.91,9.81,2.03
20,58812002483000,-0.95,9.81,2.03
20,58812052288000,-0.95,9.89,1.99
20,58812102306000,-0.91,9.89,1.95
20,58812152264000,-0.8,9.58,1.95
20,58812202313000,-0.76,9.47,1.84
20,58812252300000,-0.72,9.43,1.99
20,58812302319000,-0.99,9.58,2.34
20,58812352306000,-0.76,9.96,2.3
20,58812402264000,-0.8,9.96,2.22
20,58812452313000,-0.89,10.04,2.18
20,58812502300000,-0.72,9.89,2.26
20,58812552288000,-0.72,9.7,2.22
20,58812602337000,-1.08,9.66,2.18
20,58812652294000,-0.91,9.72,2.11
20,58812702313000,-0.69,9.51,2.45
20,58812752300000,-0.95,9.77,2.79
20,58812802319000,-0.89,9.81,2.53
20,58812852306000,-0.91,9.43,2.41
20,58812902325000,-0.5,9.19,1.92
20,58812952313000,-0.76,9.47,1.99
20,58813002300000,-1.04,9.77,1.69
20,58813052319000,-0.72,10.31,1.12
20,58813102337000,-0.89,10.57,1.46
20,58813152294000,-1.5,10.15,1.88
20,58813202313000,-1.18,9.62,0.93
20,58813252300000,-1.65,9.7,1.27
20,58813302349000,-2.03,10.31,0.15
20,58813352306000,-1.99,9.89,0.93
20,58813402294000,-1.04,9.47,0.27
20,58813452313000,-1.38,9.7,0.31
20,58813502300000,-1.88,9.47,0.53
20,58813552349000,-1.76,9.51,0.61
20,58813602459000,-2.37,9.92,0.69
20,58813652264000,-2.45,9.92,0.5
20,58813702313000,-2.96,10.15,1.08
20,58813752300000,-3.17,9.7,0.46
20,58813802319000,-2.53,9.38,0.23
20,58813852306000,-2.11,9.58,0.65
20,58813902294000,-2.6,9.53,0.38
20,58813952313000,-2.64,9.53,0.15
20,58814002544000,-2.11,9.47,0.11
20,58814052319000,-1.88,9.53,-0.38
20,58814102337000,-2.18,10.08,0.0
20,58814152294000,-1.14,9.89,0.46
20,58814202313000,-0.27,8.85,1.33
20,58814252300000,-2.41,9.43,3.3
20,58814302319000,-3.53,10.27,3.72
20,58814352306000,-0.15,10.04,3.38
20,58814402325000,-0.53,9.23,3.26
20,58814452313000,-0.91,8.66,3.53
20,58814502300000,-2.53,9.47,5.05
20,58814552319000,-1.57,9.23,5.22
20,58814602337000,0.69,8.12,3.6
20,58814652264000,0.69,8.2,2.87
20,58814702313000,0.27,9.58,3.45
20,58814752300000,1.42,9.81,3.3
20,58814802319000,0.8,10.04,3.41
20,58814852306000,0.04,13.06,2.76
20,58814902294000,-1.95,7.74,4.86
20,58814952313000,-1.5,10.42,-0.53
20,58815002300000,-0.69,9.58,-0.08
20,58815052319000,-1.42,9.28,-0.42
20,58815102612000,-1.31,10.8,-1.14
20,58815152294000,-3.34,9.96,2.45
20,58815202313000,-3.17,9.11,0.46
20,58815252300000,-1.84,9.51,0.34
20,58815302319000,-1.18,9.81,1.38
20,58815352306000,-1.95,9.77,1.73
20,58815402294000,-2.75,9.58,1.14
20,58815452343000,-2.34,9.53,1.42
20,58815502300000,-2.07,9.72,1.88
20,58815552319000,-2.26,9.66,1.99
20,58815602306000,-3.02,9.3,2.22
20,58815652294000,-2.75,9.7,0.04
20,58815702313000,-2.03,11.88,-1.92
20,58815752300000,-0.19,11.54,-0.84
20,58815802319000,-0.46,8.85,0.65
20,58815852306000,-2.26,7.86,1.08
20,58815852306000,-2.26,7.86,1.08
20,58815912304000,-1.73,10.99,1.69
20,58815962322000,-1.33,10.99,1.73
20,58816012280000,-1.73,10.0,2.72
20,58816062328000,-1.08,9.28,2.41
20,58816112591000,0.08,8.31,2.76
20,58816162335000,0.04,9.11,2.96
20,58816212322000,0.0,9.19,3.06
20,58816262310000,-0.04,8.81,3.11
20,58816312328000,-0.38,7.97,3.53
20,58816362347000,-1.23,8.35,2.98
20,58816412335000,-0.34,11.75,2.87
20,58816462322000,0.42,11.5,2.26
20,58816512341000,-0.8,10.27,0.31
20,58816562328000,-2.53,10.19,-0.08
20,58816612347000,-1.73,9.53,0.38
20,58816662335000,-2.26,9.08,-0.23
20,58816712322000,-0.61,9.0,-1.99
20,58816762341000,0.15,11.88,0.76
20,58816822369000,-4.33,9.53,2.18
20,58816882305000,-2.6,9.77,-0.91
20,58816932324000,-1.99,9.62,0.53
20,58816982342000,-1.42,9.89,1.23
20,58817032330000,-1.92,9.96,0.5
20,58817082378000,-2.45,9.85,0.04
20,58817132305000,-2.3,9.85,0.34
20,58817182324000,-1.73,9.53,0.31
20,58817232311000,-2.3,9.89,0.31
20,58817282330000,-1.88,9.77,0.15
20,58817332317000,-1.88,9.58,0.34
20,58817382336000,-2.14,9.92,1.46
20,58817432293000,-1.95,9.92,0.93
20,58817482342000,-1.99,9.66,0.5
20,58817532330000,-1.53,9.58,0.19
20,58817582348000,-1.04,9.23,0.89
20,58817632336000,-0.57,9.38,1.5
20,58817682293000,-0.53,11.92,1.73
20,58817732342000,-1.73,11.41,2.96
20,58817782330000,-1.57,10.34,3.57
20,58817832348000,-0.76,9.15,2.37
20,58817882336000,-0.46,8.12,1.65
20,58817932324000,-0.3,8.69,2.96
20,58817982342000,-1.18,9.04,3.64
20,58818032299000,-1.18,8.81,4.02
20,58818082348000,-0.84,8.89,3.95
20,58818132336000,-1.04,9.11,4.1
20,58818182324000,-1.27,8.73,4.25
20,58818232342000,-0.95,8.77,4.37
20,58818282330000,-0.57,8.5,4.44
20,58818332348000,-0.5,12.79,2.64
20,58818382366000,-1.18,12.07,1.57
20,58818432324000,-0.42,6.63,-1.31
20,58818482342000,-1.65,11.07,-0.53
20,58818532330000,-2.26,9.43,0.93
20,58818582348000,-1.23,10.23,0.72
20,58818632366000,-2.68,9.96,0.89
20,58818682324000,-2.91,9.23,0.38
20,58818732311000,-1.73,9.28,0.38
20,58818782330000,-1.38,9.58,0.27
20,58818832348000,-1.65,9.81,0.65
20,58818882336000,-2.79,9.72,1.33
20,58818932324000,-3.15,9.58,1.04
20,58818982342000,-2.64,9.81,0.69
20,58819032330000,-1.33,10.34,-0.08
20,58819082378000,-1.8,10.08,-0.84
20,58819132336000,-1.76,10.38,-0.72
20,58819182324000,-1.99,9.77,0.53
20,58819232342000,-1.61,9.51,0.57
20,58819282330000,-0.15,9.34,2.11
20,58819402325000,-1.88,10.08,4.02
20,58819402325000,-1.88,10.08,4.02
20,58819452282000,-0.57,8.2,2.15
20,58819502331000,-0.61,7.63,2.18
20,58819552288000,-1.14,8.96,2.96
20,58819602306000,-2.22,10.92,2.79
20,58819652294000,-1.38,10.15,1.14
20,58819702313000,0.23,10.46,-0.27
20,58819752331000,-0.04,10.12,0.27
20,58819802319000,-1.23,10.57,0.0
20,58819852306000,-1.95,9.0,1.31
20,58819902294000,-3.06,9.43,-0.04
20,58819952313000,-2.3,10.23,0.93
20,58820002667000,-1.95,9.47,0.76
20,58820052319000,-2.11,9.92,0.08
20,58820102306000,-2.87,9.96,1.8
20,58820152294000,-3.57,9.34,1.38
20,58820202313000,-3.15,9.43,-0.34
20,58820252300000,-2.68,9.28,0.19
20,58820302319000,-3.15,9.15,0.27
20,58820352276000,-3.15,9.47,-0.27
20,58820402294000,-3.06,9.58,-0.04
20,58820452282000,-2.75,9.58,-0.3
20,58820502300000,-2.26,9.53,-0.23
20,58820552319000,-2.91,9.72,0.19
20,58820602337000,-3.91,10.73,-0.19
20,58820652294000,-3.26,10.0,0.57
20,58820702343000,-1.5,9.23,1.31
20,58820752300000,-0.91,9.7,2.11
20,58820802319000,-3.15,13.14,1.73
20,58820852306000,-3.06,10.57,2.91
20,58820902294000,-1.57,8.39,1.33
20,58820952313000,-1.14,7.16,1.88
20,58821002300000,-0.3,8.35,2.76
20,58821052349000,-0.5,8.62,2.87
20,58821102306000,-0.15,8.2,2.96
20,58821152294000,0.42,8.2,4.4
20,58821202313000,-2.45,9.15,6.47
20,58821252300000,-5.05,10.92,6.28
20,58821302319000,-0.91,6.85,5.63
20,58821352306000,0.61,11.6,2.56
20,58821402294000,1.12,18.35,1.54
20,58821452313000,-0.42,3.17,-1.69
20,58821502300000,-3.06,9.28,-3.76
20,58821552319000,-4.14,11.65,1.73
20,58821602337000,1.31,9.7,0.8
20,58821652294000,-1.76,8.08,1.23
20,58821702313000,-3.6,9.0,0.27
20,58821752300000,-1.57,8.73,0.89
20,58821802319000,-1.23,9.08,0.89
20,58821852306000,-2.41,9.58,0.93
20,58821902294000,-3.3,9.92,0.38
20,58821952343000,-3.76,10.19,0.0
20,58822002544000,-5.6,11.3,0.84
20,58822052319000,-5.24,12.68,-0.23
20,58822102306000,-3.21,11.65,-1.27
20,58822152294000,3.57,9.43,-0.38
20,58822202343000,0.72,10.95,-0.5
20,58822252331000,-5.01,12.76,1.99
20,58822302319000,-1.84,8.81,2.03
20,58822352306000,1.57,5.71,2.72
20,58822402294000,0.34,5.6,2.76
20,58822452343000,-0.04,5.22,3.64
20,58822502331000,-0.57,7.35,5.6
20,58822552349000,-1.5,12.26,8.2
20,58822602337000,0.0,11.54,7.12
20,58822652294000,-0.23,11.03,3.64
20,58822702343000,4.25,13.63,-0.23
20,58822752300000,-2.79,7.89,-1.08
20,58822802319000,-3.83,12.07,-1.92
20,58822852367000,-1.46,11.6,2.76
20,58822902325000,-2.11,8.58,0.53
20,58822952892000,-0.91,7.5,2.45
20,58823002331000,-2.37,8.28,1.04
20,58823052380000,-3.49,7.89,2.22
20,58823102306000,-2.98,8.08,0.89
20,58823152294000,-3.64,8.58,1.65
20,58823202313000,-4.4,10.5,2.15
20,58823252331000,-2.96,9.3,2.45
20,58823302319000,-3.98,11.07,2.22
20,58823352306000,-3.64,9.66,1.54
20,58823402325000,-3.57,9.04,1.57
20,58823452313000,-3.6,8.31,0.93
20,58823502300000,-2.72,8.69,0.0
20,58823552319000,-1.53,12.34,-0.04
20,58823602306000,5.28,16.09,6.59
20,58823652294000,4.21,9.11,3.3
20,58823702221000,2.56,8.2,2.07
20,58823752300000,2.41,7.31,2.26
20,58823802319000,-0.19,7.63,3.57
20,58823852306000,0.89,7.4,3.17
20,58823902294000,1.33,8.12,3.21
20,58823952313000,1.54,5.37,2.49
20,58824002636000,1.18,7.12,4.52
20,58824052319000,0.46,7.74,4.75
20,58824102306000,1.08,7.4,6.59
20,58824152325000,0.89,8.31,6.21
20,58824202313000,2.07,8.81,8.16
20,58824252300000,2.79,9.43,9.92
20,58824302319000,3.02,8.01,9.81
20,58824352306000,2.56,5.37,10.5
20,58824402294000,0.34,2.87,9.92
20,58824402294000,0.34,2.87,9.92
20,58824472332000,-1.33,1.23,10.12
20,58824522289000,-1.27,2.03,10.19
20,58824572369000,-1.53,3.11,10.0
20,58824632305000,-1.57,3.83,9.72
20,58824682324000,-1.18,3.79,9.3
20,58824732342000,-0.72,3.91,9.53
20,58824782330000,-0.11,3.83,9.3
20,58824832348000,-0.08,3.64,9.34
20,58824882336000,-0.23,3.41,9.53
20,58824932324000,-0.46,3.38,9.62
20,58824982342000,-0.5,3.26,9.62
20,58825032330000,-0.46,3.21,9.53
20,58825082317000,-0.46,3.45,9.51
20,58825132336000,-0.23,3.79,9.47
20,58825182293000,-0.23,4.14,9.19
20,58825232342000,-0.04,4.4,8.92
20,58825282269000,-0.08,4.33,9.04
20,58825332348000,0.0,4.14,9.19
20,58825382336000,-0.04,4.02,9.23
20,58825432324000,-0.15,3.91,9.34
20,58825482311000,-0.3,3.91,9.43
20,58825532330000,-0.34,3.76,9.47
20,58825582317000,-0.34,3.76,9.34
20,58825632336000,-0.38,3.64,9.47
20,58825682293000,-0.3,3.68,9.47
20,58825732311000,-0.27,3.53,9.47
20,58825782299000,-0.27,3.57,9.43
20,58825832348000,-0.34,3.6,9.51
20,58825882305000,-0.27,3.6,9.47
20,58825932324000,-0.34,3.57,9.47
20,58825982342000,-0.3,3.57,9.43
20,58826032330000,-0.34,3.53,9.47
20,58826082317000,-0.23,3.64,9.47
20,58826132305000,-0.23,3.64,9.43
20,58826182293000,-0.3,3.72,9.43
20,58826232342000,-0.27,3.79,9.47
20,58826282238000,-0.34,3.72,9.43
20,58826332348000,-0.27,3.72,9.47
20,58826382305000,-0.27,3.68,9.47
20,58826432293000,-0.19,3.68,9.43
20,58826482647000,-0.15,3.72,9.38
20,58826532330000,-0.19,3.91,9.34
20,58826582317000,-0.23,3.91,9.3
20,58826632336000,-0.15,3.83,9.34
20,58826682324000,-0.19,3.76,9.47
20,58826732342000,-0.27,3.83,9.38
20,58826782299000,-0.23,3.87,9.38
20,58826832317000,-0.27,3.87,9.38
20,58826882336000,-0.15,3.95,9.34
20,58826932293000,-0.15,3.95,9.28
20,58826982342000,-0.11,3.95,9.34
20,58827052319000,-0.08,3.95,9.28
20,58827102245000,-0.08,4.02,9.23
20,58827152294000,-0.08,3.99,9.28
20,58827202221000,-0.08,3.91,9.28
20,58827252270000,-0.15,3.91,9.28
20,58827252270000,-0.15,3.91,9.28
20,58827252270000,-0.15,3.91,9.28
20,58827402264000,-0.11,3.99,9.28
20,58827452343000,-0.15,3.95,9.3
20,58827502270000,-0.11,3.95,9.3
20,58827552319000,-0.08,3.87,9.34
20,58827602276000,-0.19,3.87,9.3
20,58827652264000,-0.27,3.87,9.34
20,58827702282000,-0.23,3.79,9.34
20,58827752300000,-0.19,3.87,9.43
20,58827802319000,-0.3,3.99,9.38
20,58827802319000,-0.3,3.99,9.38
20,58827902294000,-0.04,4.02,9.3
20,58827952313000,0.11,4.14,9.15
20,58828002544000,0.15,4.14,9.04
20,58828052349000,0.27,4.25,9.08
20,58828102276000,0.27,4.21,9.0
20,58828152294000,0.38,4.33,8.92
20,58828202313000,0.53,4.52,8.92
20,58828252270000,0.38,4.52,8.89
20,58828302288000,0.31,4.52,8.92
20,58828352306000,0.42,4.44,9.0
20,58828402264000,0.42,4.4,9.0
20,58828452282000,0.27,4.4,9.0
20,58828502300000,0.23,4.33,9.0
20,58828552319000,0.15,4.21,9.15
20,58828602276000,0.08,4.18,9.15
20,58828652264000,0.08,4.25,9.15
20,58828702282000,0.15,4.25,9.15
20,58828752331000,0.23,4.29,9.08
20,58828802288000,0.31,4.29,9.11
20,58828852337000,0.27,4.25,8.96
20,58828902264000,0.31,4.25,8.96
20,58828952282000,0.15,4.25,9.08
20,58829002300000,0.0,4.25,9.15
20,58829052288000,0.04,4.29,9.15
20,58829102306000,0.19,4.33,9.08
20,58829152294000,0.15,4.21,9.04
20,58829202282000,0.19,4.21,9.11
20,58829252270000,0.19,4.14,9.11
20,58829302319000,0.0,3.99,9.28
20,58829352337000,-0.23,3.87,9.38
20,58829402264000,-0.3,3.83,9.38
20,58829452282000,-0.3,3.76,9.47
20,58829502270000,-0.23,3.76,9.43
20,58829552288000,-0.19,3.76,9.34
20,58829602306000,-0.15,3.76,9.38
20,58829652264000,-0.15,3.83,9.34
20,58829702282000,-0.19,3.83,9.47
20,58829752270000,-0.15,3.87,9.47
20,58829802319000,-0.34,3.95,9.47
20,58829852276000,-0.38,3.95,9.38
20,58829852276000,-0.38,3.95,9.38
20,58829911877000,-0.23,3.95,9.38
20,58829972363000,0.08,4.06,9.04
20,58830022411000,0.42,4.33,8.96
20,58830072369000,0.53,4.33,8.92
20,58830132305000,0.72,4.48,8.89
20,58830182324000,0.8,4.63,8.73
20,58830232311000,0.93,4.82,8.73
20,58830284680000,0.89,4.9,8.77
20,58830342266000,0.84,4.79,8.69
20,58830392315000,0.95,4.79,8.77
20,58830442303000,0.8,4.75,8.77
20,58830492321000,0.69,4.71,8.89
20,58830542339000,0.65,4.6,8.85
20,58830592327000,0.72,4.67,8.81
20,58830642315000,0.72,4.71,8.77
20,58830692303000,0.72,4.67,8.89
20,58830742291000,0.69,4.63,8.89
20,58830792339000,0.61,4.6,8.92
20,58830842327000,0.53,4.56,8.96
20,58830892346000,0.46,4.48,8.89
20,58830942333000,0.5,4.52,9.04
20,58830992291000,0.53,4.48,9.0
20,58831042309000,0.53,4.56,8.92
20,58831092266000,0.57,4.56,8.92
20,58831142315000,0.61,4.56,8.92
20,58831192669000,0.57,4.56,8.85
20,58831242291000,0.57,4.6,8.92
20,58831292217000,0.69,4.6,8.81
20,58831342297000,0.65,4.6,8.85
20,58831392315000,0.65,4.6,8.96
20,58831442333000,0.53,4.56,8.96
20,58831492260000,0.53,4.56,8.89
20,58831542339000,0.69,4.6,8.85
20,58831592297000,0.76,4.6,8.77
20,58831642346000,0.65,4.63,8.81
20,58831692333000,0.53,4.67,8.89
20,58831742291000,0.53,4.6,8.85
20,58831792309000,0.69,4.6,8.81
20,58831842266000,0.76,4.6,8.81
20,58831892315000,0.65,4.6,8.85
20,58831942303000,0.46,4.6,8.92
