timestamp,accX,accY,accZ,class
90380.0,1807,2267,1857,5
90381.0,1803,2267,1853,5
90382.0,1801,2265,1854,5
90383.0,1796,2264,1855,5
90384.0,1803,2269,1854,5
90385.0,1797,2265,1846,5
90386.0,1799,2266,1852,5
90387.0,1803,2265,1847,5
90388.0,1803,2268,1851,5
90389.0,1801,2265,1852,5
90390.0,1803,2264,1853,5
90391.0,1806,2263,1853,5
90392.0,1803,2267,1850,5
90393.0,1807,2265,1850,5
90394.0,1806,2272,1854,5
90395.0,1805,2269,1853,5
90396.0,1801,2269,1856,5
90397.0,1804,2265,1854,5
90398.0,1809,2261,1855,5
90399.0,1801,2267,1854,5
90400.0,1805,2266,1846,5
90401.0,1801,2266,1853,5
90402.0,1798,2269,1856,5
90403.0,1803,2271,1858,5
90404.0,1798,2265,1855,5
90405.0,1797,2268,1859,5
90406.0,1804,2264,1853,5
90407.0,1798,2260,1853,5
90408.0,1805,2260,1851,5
90409.0,1799,2260,1855,5
90410.0,1801,2262,1857,5
90411.0,1796,2259,1848,5
90412.0,1793,2268,1850,5
90413.0,1798,2265,1847,5
90414.0,1801,2256,1849,5
90415.0,1800,2255,1846,5
90416.0,1798,2256,1851,5
90417.0,1805,2260,1855,5
90418.0,1801,2262,1851,5
90419.0,1806,2261,1856,5
90420.0,1808,2258,1855,5
90421.0,1796,2263,1852,5
90422.0,1798,2267,1855,5
90423.0,1798,2272,1854,5
90424.0,1803,2270,1852,5
90425.0,1801,2269,1849,5
90426.0,1810,2260,1852,5
90427.0,1806,2260,1856,5
90428.0,1808,2263,1859,5
90429.0,1798,2265,1858,5
90430.0,1802,2261,1856,5
90431.0,1803,2259,1854,5
90432.0,1800,2266,1854,5
90433.0,1803,2266,1855,5
90434.0,1803,2265,1857,5
90435.0,1803,2269,1854,5
90436.0,1807,2273,1856,5
90437.0,1803,2267,1857,5
90438.0,1802,2267,1853,5
90439.0,1806,2267,1849,5
90440.0,1802,2260,1848,5
90441.0,1801,2265,1851,5
90442.0,1802,2270,1851,5
90443.0,1807,2270,1853,5
90444.0,1802,2271,1854,5
90445.0,1808,2264,1855,5
90446.0,1800,2270,1861,5
90447.0,1807,2267,1855,5
90448.0,1805,2263,1855,5
90449.0,1801,2261,1855,5
90450.0,1805,2268,1855,5
90451.0,1808,2264,1851,5
90452.0,1800,2266,1849,5
90453.0,1807,2269,1847,5
90454.0,1803,2274,1848,5
90455.0,1801,2272,1847,5
90456.0,1805,2270,1849,5
90457.0,1810,2268,1845,5
90458.0,1803,2271,1851,5
90459.0,1809,2269,1854,5
90460.0,1808,2266,1858,5
90461.0,1807,2266,1853,5
90462.0,1810,2263,1853,5
90463.0,1809,2262,1851,5
90464.0,1804,2264,1847,5
90465.0,1812,2264,1837,5
90466.0,1803,2265,1836,5
90467.0,1808,2264,1835,5
90468.0,1807,2267,1838,5
90469.0,1811,2263,1834,5
90470.0,1808,2264,1838,5
90471.0,1813,2266,1839,5
90472.0,1811,2260,1839,5
90473.0,1811,2260,1840,5
90474.0,1805,2263,1838,5
90475.0,1809,2259,1840,5
90476.0,1808,2265,1842,5
90477.0,1821,2270,1845,5
90478.0,1806,2255,1846,5
90479.0,1809,2264,1841,5
90480.0,1813,2269,1840,5
90481.0,1812,2261,1840,5
90482.0,1808,2266,1838,5
90483.0,1813,2271,1843,5
90484.0,1810,2272,1848,5
90485.0,1813,2266,1847,5
90486.0,1813,2270,1846,5
90487.0,1809,2267,1845,5
90488.0,1810,2266,1847,5
90489.0,1814,2267,1843,5
90490.0,1814,2263,1844,5
90491.0,1808,2266,1844,5
90492.0,1804,2265,1843,5
90493.0,1811,2269,1843,5
90494.0,1808,2268,1842,5
90495.0,1803,2265,1846,5
90496.0,1813,2268,1851,5
90497.0,1803,2260,1850,5
90498.0,1813,2264,1850,5
90499.0,1809,2263,1852,5
90500.0,1801,2267,1847,5
90501.0,1810,2268,1852,5
90502.0,1801,2265,1847,5
90503.0,1805,2267,1856,5
90504.0,1811,2268,1847,5
90505.0,1810,2263,1851,5
90506.0,1804,2267,1848,5
90507.0,1804,2265,1848,5
90508.0,1803,2266,1843,5
90509.0,1807,2269,1847,5
90510.0,1806,2263,1854,5
90511.0,1807,2266,1845,5
90512.0,1807,2273,1842,5
90513.0,1805,2270,1846,5
90514.0,1809,2269,1852,5
90515.0,1809,2261,1847,5
90516.0,1810,2260,1849,5
90517.0,1807,2262,1847,5
90518.0,1806,2267,1852,5
90519.0,1813,2263,1849,5
90520.0,1805,2263,1847,5
90521.0,1806,2266,1851,5
90522.0,1804,2266,1852,5
90523.0,1803,2265,1847,5
90524.0,1807,2267,1851,5
90525.0,1808,2265,1848,5
90526.0,1814,2265,1846,5
90527.0,1805,2262,1852,5
90528.0,1803,2265,1846,5
90529.0,1800,2266,1850,5
90530.0,1800,2265,1846,5
90531.0,1795,2266,1852,5
90532.0,1803,2264,1849,5
90533.0,1806,2258,1849,5
90534.0,1804,2260,1841,5
90535.0,1805,2261,1847,5
90536.0,1806,2271,1850,5
90537.0,1808,2267,1850,5
90538.0,1804,2258,1847,5
90539.0,1801,2269,1851,5
90540.0,1806,2263,1846,5
90541.0,1798,2262,1850,5
90542.0,1804,2260,1849,5
90543.0,1808,2260,1854,5
90544.0,1808,2260,1848,5
90545.0,1807,2264,1846,5
90546.0,1808,2261,1855,5
90547.0,1802,2263,1850,5
90548.0,1807,2266,1852,5
90549.0,1804,2260,1854,5
90550.0,1809,2262,1848,5
90551.0,1807,2264,1854,5
90552.0,1800,2268,1852,5
90553.0,1804,2265,1848,5
90554.0,1811,2267,1850,5
90555.0,1807,2267,1847,5
90556.0,1810,2259,1851,5
90557.0,1806,2257,1850,5
90558.0,1804,2260,1853,5
90559.0,1800,2268,1855,5
90560.0,1807,2269,1850,5
90561.0,1807,2265,1850,5
90562.0,1803,2265,1847,5
90563.0,1798,2261,1848,5
90564.0,1803,2261,1849,5
90565.0,1809,2266,1849,5
90566.0,1799,2263,1851,5
90567.0,1802,2262,1843,5
90568.0,1800,2266,1847,5
90569.0,1799,2264,1847,5
90570.0,1801,2262,1842,5
90571.0,1805,2261,1843,5
90572.0,1801,2268,1848,5
90573.0,1804,2265,1845,5
90574.0,1801,2260,1847,5
90575.0,1800,2255,1850,5
90576.0,1803,2263,1848,5
90577.0,1800,2265,1845,5
90578.0,1803,2258,1849,5
90579.0,1804,2260,1847,5
90580.0,1799,2263,1849,5
90581.0,1809,2267,1852,5
90582.0,1805,2267,1849,5
90583.0,1810,2263,1854,5
90584.0,1801,2263,1847,5
90585.0,1794,2264,1853,5
90586.0,1806,2264,1847,5
90587.0,1803,2265,1850,5
90588.0,1806,2263,1851,5
90589.0,1805,2261,1851,5
90590.0,1810,2261,1846,5
90591.0,1808,2262,1851,5
90592.0,1802,2267,1853,5
90593.0,1807,2261,1849,5
90594.0,1801,2265,1848,5
90595.0,1809,2267,1850,5
90596.0,1800,2265,1851,5
90597.0,1807,2263,1849,5
90598.0,1807,2268,1849,5
90599.0,1807,2266,1850,5
90600.0,1813,2266,1848,5
90601.0,1808,2266,1851,5
90602.0,1805,2259,1844,5
90603.0,1800,2265,1845,5
90604.0,1802,2262,1846,5
90605.0,1800,2259,1846,5
90606.0,1803,2260,1846,5
90607.0,1803,2267,1844,5
90608.0,1803,2270,1847,5
90609.0,1800,2264,1850,5
90610.0,1818,2271,1849,5
90611.0,1813,2268,1848,5
90612.0,1806,2260,1851,5
90613.0,1806,2261,1852,5
90614.0,1812,2265,1843,5
90615.0,1803,2261,1849,5
90616.0,1801,2265,1845,5
90617.0,1806,2259,1846,5
90618.0,1804,2263,1851,5
90619.0,1804,2262,1850,5
90620.0,1807,2264,1852,5
90621.0,1806,2264,1849,5
90622.0,1803,2264,1846,5
90623.0,1804,2263,1849,5
90624.0,1802,2262,1846,5
90625.0,1804,2256,1851,5
90626.0,1810,2264,1847,5
90627.0,1804,2264,1850,5
90628.0,1805,2262,1846,5
90629.0,1802,2259,1844,5
90630.0,1808,2260,1843,5
90631.0,1803,2259,1845,5
90632.0,1799,2261,1842,5
90633.0,1802,2259,1848,5
90634.0,1802,2263,1846,5
90635.0,1800,2258,1848,5
90636.0,1796,2259,1840,5
90637.0,1802,2262,1837,5
90638.0,1807,2267,1843,5
90639.0,1804,2265,1847,5
90640.0,1807,2266,1844,5
90641.0,1805,2259,1848,5
90642.0,1808,2263,1845,5
90643.0,1803,2259,1840,5
90644.0,1801,2260,1845,5
90645.0,1806,2260,1841,5
90646.0,1810,2260,1849,5
90647.0,1808,2263,1842,5
90648.0,1803,2268,1845,5
90649.0,1806,2263,1845,5
90650.0,1801,2265,1848,5
90651.0,1805,2265,1847,5
90652.0,1804,2265,1850,5
90653.0,1800,2265,1846,5
90654.0,1803,2267,1853,5
90655.0,1806,2266,1849,5
90656.0,1808,2269,1845,5
90657.0,1803,2270,1851,5
90658.0,1811,2260,1845,5
90659.0,1807,2264,1843,5
90660.0,1804,2262,1854,5
90661.0,1804,2268,1846,5
90662.0,1804,2263,1854,5
90663.0,1800,2265,1848,5
90664.0,1807,2262,1843,5
90665.0,1807,2267,1846,5
90666.0,1808,2263,1845,5
90667.0,1813,2260,1848,5
90668.0,1805,2265,1843,5
90669.0,1802,2262,1844,5
90670.0,1811,2264,1842,5
90671.0,1811,2262,1841,5
90672.0,1804,2263,1844,5
90673.0,1807,2267,1847,5
90674.0,1807,2264,1843,5
90675.0,1803,2264,1846,5
90676.0,1805,2261,1843,5
90677.0,1814,2264,1842,5
90678.0,1803,2262,1844,5
90679.0,1808,2261,1844,5
90680.0,1806,2258,1847,5
90681.0,1810,2270,1847,5
90682.0,1802,2262,1849,5
90683.0,1806,2262,1843,5
90684.0,1802,2261,1843,5
90685.0,1806,2259,1853,5
90686.0,1803,2257,1847,5
90687.0,1804,2260,1845,5
90688.0,1802,2264,1847,5
90689.0,1805,2269,1848,5
90690.0,1803,2259,1849,5
90691.0,1801,2264,1849,5
90692.0,1808,2266,1847,5
90693.0,1805,2262,1848,5
90694.0,1800,2261,1850,5
90695.0,1805,2259,1852,5
90696.0,1804,2256,1850,5
90697.0,1807,2263,1850,5
90698.0,1808,2266,1849,5
90699.0,1807,2260,1844,5
90700.0,1804,2267,1846,5
90701.0,1802,2266,1845,5
90702.0,1801,2256,1844,5
90703.0,1799,2261,1843,5
90704.0,1800,2266,1844,5
90705.0,1799,2258,1851,5
90706.0,1805,2259,1848,5
90707.0,1804,2256,1850,5
90708.0,1799,2260,1844,5
90709.0,1804,2258,1847,5
90710.0,1802,2263,1851,5
90711.0,1811,2262,1844,5
90712.0,1803,2260,1844,5
90713.0,1803,2261,1844,5
90714.0,1804,2263,1848,5
90715.0,1801,2266,1852,5
90716.0,1802,2261,1850,5
90717.0,1809,2264,1849,5
90718.0,1798,2264,1851,5
90719.0,1803,2264,1849,5
90720.0,1800,2262,1843,5
90721.0,1802,2261,1846,5
90722.0,1802,2263,1847,5
90723.0,1805,2261,1852,5
90724.0,1801,2257,1846,5
90725.0,1805,2268,1849,5
90726.0,1802,2266,1853,5
90727.0,1800,2263,1846,5
90728.0,1801,2262,1844,5
90729.0,1796,2260,1849,5
90730.0,1801,2259,1849,5
90731.0,1811,2260,1847,5
90732.0,1806,2259,1847,5
90733.0,1808,2263,1845,5
90734.0,1804,2259,1848,5
90735.0,1803,2259,1842,5
90736.0,1803,2260,1848,5
90737.0,1808,2259,1845,5
90738.0,1805,2261,1847,5
90739.0,1799,2258,1851,5
90740.0,1802,2262,1848,5
90741.0,1809,2266,1850,5
90742.0,1800,2261,1844,5
90743.0,1801,2263,1848,5
90744.0,1801,2260,1847,5
90745.0,1801,2261,1848,5
90746.0,1813,2259,1847,5
90747.0,1807,2261,1849,5
90748.0,1805,2263,1847,5
90749.0,1797,2260,1845,5
90750.0,1806,2259,1851,5
90751.0,1806,2263,1847,5
90752.0,1806,2264,1854,5
90753.0,1811,2263,1850,5
90754.0,1807,2259,1847,5
90755.0,1806,2257,1851,5
90756.0,1801,2261,1845,5
90757.0,1806,2259,1839,5
90758.0,1809,2264,1839,5
90759.0,1807,2258,1843,5
90760.0,1799,2264,1844,5
90761.0,1803,2264,1846,5
90762.0,1806,2261,1847,5
90763.0,1805,2261,1846,5
90764.0,1801,2260,1847,5
90765.0,1803,2259,1846,5
90766.0,1805,2262,1845,5
90767.0,1801,2261,1850,5
90768.0,1803,2265,1848,5
90769.0,1805,2266,1848,5
90770.0,1800,2267,1851,5
90771.0,1793,2267,1843,5
90772.0,1802,2260,1852,5
90773.0,1804,2259,1850,5
90774.0,1799,2260,1853,5
90775.0,1808,2263,1852,5
90776.0,1803,2264,1856,5
90777.0,1804,2267,1853,5
90778.0,1802,2266,1858,5
90779.0,1802,2270,1859,5
90780.0,1816,2266,1851,5
90781.0,1810,2263,1851,5
90782.0,1803,2264,1853,5
90783.0,1799,2263,1853,5
90784.0,1799,2258,1860,5
90785.0,1801,2269,1858,5
90786.0,1800,2268,1853,5
90787.0,1794,2270,1855,5
90788.0,1805,2268,1852,5
90789.0,1800,2260,1857,5
90790.0,1807,2264,1850,5
90791.0,1804,2264,1855,5
90792.0,1810,2262,1854,5
90793.0,1813,2262,1855,5
90794.0,1801,2258,1852,5
90795.0,1800,2262,1847,5
90796.0,1799,2267,1848,5
90797.0,1797,2257,1843,5
90798.0,1805,2262,1848,5
90799.0,1807,2264,1846,5
90800.0,1805,2255,1841,5
90801.0,1806,2264,1847,5
90802.0,1803,2261,1849,5
90803.0,1803,2263,1847,5
90804.0,1803,2258,1848,5
90805.0,1801,2264,1843,5
90806.0,1798,2258,1847,5
90807.0,1802,2258,1846,5
90808.0,1804,2258,1844,5
90809.0,1807,2260,1843,5
90810.0,1798,2262,1852,5
90811.0,1805,2261,1852,5
90812.0,1797,2265,1848,5
90813.0,1794,2263,1851,5
90814.0,1793,2255,1848,5
90815.0,1800,2262,1846,5
90816.0,1800,2259,1850,5
90817.0,1803,2261,1847,5
90818.0,1800,2259,1850,5
90819.0,1798,2262,1855,5
90820.0,1797,2259,1853,5
90821.0,1797,2258,1851,5
90822.0,1800,2259,1855,5
90823.0,1803,2263,1852,5
90824.0,1796,2259,1854,5
90825.0,1801,2257,1858,5
90826.0,1798,2262,1856,5
90827.0,1799,2257,1851,5
90828.0,1797,2259,1847,5
90829.0,1799,2261,1848,5
90830.0,1794,2259,1855,5
90831.0,1802,2263,1851,5
90832.0,1805,2258,1853,5
90833.0,1800,2262,1856,5
90834.0,1800,2260,1851,5
90835.0,1799,2259,1854,5
90836.0,1797,2263,1847,5
90837.0,1803,2263,1844,5
90838.0,1805,2260,1848,5
90839.0,1802,2256,1851,5
90840.0,1803,2260,1846,5
90841.0,1802,2266,1851,5
90842.0,1802,2259,1849,5
90843.0,1796,2257,1853,5
90844.0,1804,2259,1850,5
90845.0,1801,2255,1849,5
90846.0,1804,2259,1848,5
90847.0,1795,2258,1852,5
90848.0,1795,2263,1845,5
90849.0,1792,2261,1847,5
90850.0,1795,2262,1851,5
90851.0,1795,2261,1847,5
90852.0,1797,2253,1855,5
90853.0,1799,2254,1848,5
90854.0,1802,2257,1852,5
90855.0,1794,2258,1848,5
90856.0,1793,2260,1854,5
90857.0,1804,2263,1854,5
90858.0,1803,2256,1853,5
90859.0,1796,2258,1852,5
90860.0,1793,2255,1853,5
90861.0,1801,2258,1849,5
90862.0,1799,2255,1850,5
90863.0,1793,2259,1852,5
90864.0,1799,2259,1854,5
90865.0,1790,2259,1847,5
90866.0,1796,2253,1853,5
90867.0,1806,2255,1855,5
90868.0,1797,2254,1857,5
90869.0,1797,2262,1855,5
90870.0,1803,2260,1852,5
90871.0,1795,2267,1848,5
90872.0,1807,2257,1849,5
90873.0,1795,2261,1853,5
90874.0,1800,2256,1851,5
90875.0,1794,2257,1855,5
90876.0,1797,2258,1852,5
90877.0,1800,2263,1849,5
90878.0,1798,2259,1850,5
90879.0,1796,2257,1847,5
90880.0,1799,2258,1847,5
90881.0,1802,2263,1850,5
90882.0,1797,2265,1847,5
90883.0,1805,2257,1849,5
90884.0,1801,2260,1846,5
90885.0,1800,2264,1851,5
90886.0,1803,2261,1851,5
90887.0,1795,2259,1851,5
90888.0,1803,2259,1853,5
90889.0,1803,2257,1849,5
90890.0,1800,2259,1850,5
90891.0,1797,2264,1855,5
90892.0,1797,2260,1851,5
90893.0,1803,2260,1846,5
90894.0,1798,2267,1849,5
90895.0,1805,2258,1853,5
90896.0,1799,2261,1850,5
90897.0,1798,2262,1851,5
90898.0,1797,2267,1848,5
90899.0,1793,2265,1849,5
90900.0,1807,2263,1847,5
90901.0,1805,2260,1854,5
90902.0,1796,2260,1851,5
90903.0,1800,2258,1853,5
90904.0,1800,2258,1849,5
90905.0,1799,2264,1849,5
90906.0,1796,2258,1847,5
90907.0,1804,2265,1848,5
90908.0,1802,2263,1846,5
90909.0,1800,2260,1851,5
90910.0,1800,2256,1850,5
90911.0,1803,2259,1846,5
90912.0,1808,2263,1849,5
90913.0,1808,2260,1855,5
90914.0,1803,2265,1848,5
90915.0,1806,2264,1847,5
90916.0,1805,2267,1845,5
90917.0,1799,2263,1848,5
90918.0,1805,2259,1842,5
90919.0,1807,2260,1847,5
90920.0,1799,2266,1851,5
90921.0,1811,2259,1847,5
90922.0,1802,2263,1848,5
90923.0,1804,2263,1847,5
90924.0,1805,2266,1852,5
90925.0,1803,2261,1844,5
90926.0,1800,2255,1849,5
90927.0,1805,2262,1845,5
90928.0,1803,2261,1840,5
90929.0,1803,2264,1848,5
90930.0,1803,2262,1850,5
90931.0,1804,2265,1848,5
90932.0,1805,2258,1847,5
90933.0,1801,2254,1843,5
90934.0,1803,2264,1845,5
90935.0,1805,2263,1847,5
90936.0,1815,2256,1852,5
90937.0,1805,2265,1849,5
90938.0,1807,2268,1849,5
90939.0,1803,2265,1847,5
90940.0,1809,2264,1851,5
90941.0,1803,2264,1849,5
90942.0,1806,2258,1850,5
90943.0,1804,2263,1850,5
90944.0,1801,2267,1849,5
90945.0,1798,2266,1851,5
90946.0,1806,2262,1848,5
90947.0,1801,2263,1851,5
90948.0,1802,2263,1847,5
90949.0,1806,2265,1846,5
90950.0,1804,2262,1851,5
90951.0,1803,2263,1849,5
90952.0,1815,2261,1851,5
90953.0,1808,2260,1849,5
90954.0,1802,2258,1850,5
90955.0,1803,2262,1848,5
90956.0,1803,2264,1847,5
90957.0,1804,2262,1848,5
90958.0,1808,2263,1848,5
90959.0,1808,2263,1845,5
90960.0,1806,2265,1847,5
90961.0,1797,2261,1847,5
90962.0,1805,2263,1846,5
90963.0,1804,2263,1849,5
90964.0,1809,2259,1851,5
90965.0,1804,2263,1847,5
90966.0,1806,2260,1844,5
90967.0,1803,2263,1851,5
90968.0,1806,2264,1848,5
90969.0,1799,2260,1844,5
90970.0,1810,2269,1839,5
90971.0,1801,2268,1841,5
90972.0,1801,2261,1855,5
90973.0,1804,2257,1851,5
90974.0,1800,2263,1850,5
90975.0,1802,2262,1851,5
90976.0,1799,2263,1855,5
90977.0,1800,2269,1847,5
90978.0,1799,2261,1852,5
90979.0,1799,2260,1853,5
90980.0,1803,2260,1850,5
90981.0,1802,2257,1851,5
90982.0,1802,2258,1853,5
90983.0,1801,2258,1849,5
90984.0,1806,2265,1845,5
90985.0,1804,2263,1845,5
90986.0,1803,2261,1847,5
90987.0,1803,2263,1844,5
90988.0,1807,2263,1844,5
90989.0,1801,2258,1845,5
90990.0,1803,2262,1839,5
90991.0,1800,2265,1847,5
90992.0,1803,2263,1849,5
90993.0,1796,2267,1850,5
90994.0,1795,2265,1848,5
90995.0,1798,2267,1859,5
90996.0,1802,2264,1856,5
90997.0,1800,2262,1854,5
90998.0,1803,2265,1859,5
90999.0,1796,2268,1857,5
91000.0,1801,2267,1858,5
91001.0,1800,2266,1863,5
91002.0,1798,2263,1858,5
91003.0,1798,2265,1856,5
91004.0,1802,2267,1859,5
91005.0,1804,2266,1857,5
91006.0,1801,2270,1857,5
91007.0,1807,2273,1857,5
91008.0,1798,2268,1854,5
91009.0,1803,2269,1851,5
91010.0,1803,2264,1849,5
91011.0,1805,2263,1856,5
91012.0,1804,2267,1854,5
91013.0,1802,2267,1857,5
91014.0,1794,2265,1854,5
91015.0,1805,2264,1852,5
91016.0,1801,2266,1844,5
91017.0,1799,2269,1842,5
91018.0,1800,2262,1845,5
91019.0,1808,2266,1847,5
91020.0,1808,2265,1848,5
91021.0,1811,2266,1845,5
91022.0,1811,2262,1845,5
91023.0,1807,2265,1849,5
91024.0,1802,2267,1857,5
91025.0,1804,2268,1849,5
91026.0,1806,2267,1853,5
91027.0,1809,2263,1854,5
91028.0,1800,2270,1856,5
91029.0,1803,2268,1853,5
91030.0,1806,2267,1846,5
91031.0,1801,2264,1846,5
91032.0,1799,2265,1841,5
91033.0,1809,2262,1849,5
91034.0,1809,2264,1847,5
91035.0,1802,2262,1844,5
91036.0,1808,2267,1841,5
91037.0,1798,2260,1844,5
91038.0,1806,2265,1843,5
91039.0,1803,2263,1847,5
91040.0,1805,2265,1847,5
91041.0,1801,2266,1845,5
91042.0,1808,2265,1848,5
91043.0,1805,2262,1848,5
91044.0,1806,2264,1848,5
91045.0,1806,2260,1846,5
91046.0,1806,2268,1846,5
91047.0,1807,2263,1851,5
91048.0,1812,2264,1846,5
91049.0,1799,2261,1848,5
91050.0,1810,2267,1854,5
91051.0,1810,2263,1843,5
91052.0,1809,2271,1852,5
91053.0,1806,2267,1847,5
91054.0,1809,2270,1847,5
91055.0,1807,2268,1852,5
91056.0,1806,2264,1845,5
91057.0,1806,2267,1851,5
91058.0,1807,2265,1850,5
91059.0,1807,2261,1851,5
91060.0,1801,2266,1844,5
91061.0,1802,2267,1847,5
91062.0,1812,2265,1846,5
91063.0,1813,2264,1840,5
91064.0,1805,2266,1847,5
91065.0,1806,2267,1847,5
91066.0,1801,2261,1845,5
91067.0,1810,2269,1851,5
91068.0,1807,2267,1853,5
91069.0,1800,2263,1851,5
91070.0,1802,2264,1849,5
91071.0,1804,2259,1848,5
91072.0,1807,2269,1844,5
91073.0,1811,2266,1847,5
91074.0,1806,2269,1848,5
91075.0,1805,2262,1846,5
91076.0,1806,2266,1850,5
91077.0,1810,2267,1844,5
91078.0,1809,2259,1851,5
91079.0,1802,2263,1849,5
91080.0,1807,2265,1848,5
91081.0,1802,2265,1848,5
91082.0,1803,2262,1848,5
91083.0,1799,2265,1844,5
91084.0,1805,2264,1846,5
91085.0,1809,2270,1847,5
91086.0,1808,2261,1847,5
91087.0,1803,2263,1847,5
91088.0,1805,2260,1851,5
91089.0,1806,2261,1849,5
91090.0,1807,2271,1850,5
91091.0,1810,2266,1849,5
91092.0,1805,2259,1852,5
91093.0,1809,2261,1849,5
91094.0,1801,2264,1850,5
91095.0,1811,2264,1847,5
91096.0,1804,2264,1852,5
91097.0,1803,2260,1848,5
91098.0,1804,2263,1853,5
91099.0,1799,2260,1849,5
91100.0,1803,2266,1859,5
91101.0,1806,2262,1857,5
91102.0,1798,2256,1852,5
91103.0,1795,2259,1848,5
91104.0,1801,2263,1850,5
91105.0,1807,2262,1853,5
91106.0,1800,2261,1854,5
91107.0,1805,2263,1853,5
91108.0,1800,2264,1853,5
91109.0,1799,2263,1844,5
91110.0,1802,2258,1849,5
91111.0,1796,2260,1844,5
91112.0,1803,2263,1851,5
91113.0,1802,2269,1858,5
91114.0,1803,2263,1849,5
91115.0,1803,2255,1851,5
91116.0,1802,2269,1853,5
91117.0,1811,2266,1851,5
91118.0,1801,2263,1845,5
91119.0,1798,2260,1853,5
91120.0,1803,2252,1848,5
91121.0,1804,2253,1848,5
91122.0,1803,2264,1847,5
91123.0,1803,2259,1847,5
91124.0,1801,2259,1847,5
91125.0,1800,2259,1845,5
91126.0,1801,2259,1851,5
91127.0,1803,2262,1847,5
91128.0,1804,2263,1845,5
91129.0,1803,2257,1854,5
91130.0,1801,2265,1847,5
91131.0,1799,2262,1848,5
91132.0,1805,2264,1847,5
91133.0,1803,2263,1851,5
91134.0,1806,2265,1848,5
91135.0,1805,2263,1852,5
91136.0,1797,2262,1849,5
91137.0,1799,2268,1847,5
91138.0,1807,2259,1849,5
91139.0,1802,2263,1851,5
91140.0,1801,2259,1847,5
91141.0,1800,2259,1851,5
91142.0,1801,2259,1849,5
91143.0,1803,2263,1849,5
91144.0,1805,2261,1850,5
91145.0,1800,2264,1849,5
91146.0,1802,2260,1848,5
91147.0,1799,2265,1846,5
91148.0,1806,2263,1850,5
91149.0,1807,2267,1850,5
91150.0,1801,2259,1850,5
91151.0,1800,2260,1851,5
91152.0,1810,2263,1848,5
91153.0,1801,2263,1851,5
91154.0,1802,2265,1854,5
91155.0,1804,2266,1853,5
91156.0,1804,2268,1851,5
91157.0,1802,2262,1848,5
91158.0,1807,2264,1850,5
91159.0,1801,2264,1849,5
91160.0,1803,2262,1846,5
91161.0,1807,2267,1849,5
91162.0,1805,2266,1847,5
91163.0,1803,2260,1848,5
91164.0,1804,2266,1850,5
91165.0,1804,2262,1850,5
91166.0,1799,2266,1852,5
91167.0,1805,2262,1845,5
91168.0,1805,2264,1847,5
91169.0,1801,2264,1845,5
91170.0,1805,2265,1850,5
91171.0,1799,2267,1850,5
91172.0,1804,2259,1849,5
91173.0,1805,2265,1848,5
91174.0,1804,2264,1849,5
91175.0,1810,2264,1848,5
91176.0,1807,2265,1848,5
91177.0,1804,2261,1848,5
91178.0,1797,2264,1846,5
91179.0,1805,2265,1845,5
91180.0,1801,2264,1849,5
91181.0,1810,2263,1850,5
91182.0,1810,2266,1848,5
91183.0,1805,2269,1853,5
91184.0,1803,2271,1846,5
91185.0,1802,2261,1848,5
91186.0,1805,2267,1852,5
91187.0,1809,2261,1845,5
91188.0,1801,2255,1850,5
91189.0,1805,2265,1847,5
91190.0,1802,2261,1847,5
91191.0,1802,2270,1844,5
91192.0,1808,2259,1846,5
91193.0,1801,2266,1849,5
91194.0,1808,2265,1847,5
91195.0,1808,2267,1850,5
91196.0,1803,2264,1850,5
91197.0,1806,2262,1850,5
91198.0,1807,2259,1850,5
91199.0,1805,2264,1851,5
91200.0,1804,2260,1850,5
91201.0,1800,2265,1849,5
91202.0,1807,2268,1849,5
91203.0,1801,2265,1851,5
91204.0,1811,2261,1846,5
91205.0,1814,2268,1849,5
91206.0,1805,2270,1849,5
91207.0,1808,2261,1849,5
91208.0,1805,2266,1850,5
91209.0,1809,2263,1843,5
91210.0,1802,2262,1848,5
91211.0,1797,2262,1845,5
91212.0,1808,2262,1850,5
91213.0,1805,2271,1847,5
91214.0,1803,2269,1845,5
91215.0,1802,2263,1851,5
91216.0,1806,2259,1845,5
91217.0,1801,2263,1848,5
91218.0,1810,2263,1848,5
91219.0,1805,2261,1850,5
91220.0,1805,2261,1851,5
91221.0,1803,2265,1850,5
91222.0,1806,2264,1852,5
91223.0,1808,2259,1850,5
91224.0,1805,2270,1847,5
91225.0,1802,2262,1842,5
91226.0,1804,2266,1846,5
91227.0,1807,2264,1844,5
91228.0,1806,2261,1846,5
91229.0,1809,2266,1855,5
91230.0,1806,2267,1854,5
91231.0,1811,2265,1850,5
91232.0,1804,2261,1847,5
91233.0,1811,2261,1849,5
91234.0,1806,2268,1847,5
91235.0,1804,2266,1850,5
91236.0,1802,2260,1847,5
91237.0,1806,2268,1843,5
91238.0,1803,2264,1847,5
91239.0,1811,2265,1845,5
91240.0,1812,2269,1849,5
91241.0,1806,2269,1848,5
91242.0,1803,2261,1852,5
91243.0,1805,2259,1851,5
91244.0,1810,2262,1849,5
91245.0,1806,2269,1852,5
91246.0,1807,2270,1841,5
91247.0,1808,2267,1847,5
91248.0,1804,2268,1840,5
91249.0,1800,2265,1844,5
91250.0,1810,2269,1849,5
91251.0,1805,2256,1846,5
91252.0,1807,2264,1851,5
91253.0,1803,2262,1848,5
91254.0,1807,2269,1844,5
91255.0,1804,2267,1847,5
91256.0,1810,2267,1845,5
91257.0,1808,2263,1843,5
91258.0,1803,2257,1850,5
91259.0,1808,2269,1847,5
91260.0,1803,2267,1849,5
91261.0,1808,2266,1849,5
91262.0,1809,2262,1847,5
91263.0,1810,2263,1845,5
91264.0,1805,2266,1847,5
91265.0,1807,2268,1851,5
91266.0,1805,2262,1850,5
91267.0,1800,2267,1850,5
91268.0,1808,2266,1850,5
91269.0,1804,2267,1845,5
91270.0,1806,2266,1845,5
91271.0,1807,2264,1845,5
91272.0,1807,2264,1849,5
91273.0,1807,2265,1852,5
91274.0,1809,2267,1842,5
91275.0,1806,2263,1850,5
91276.0,1805,2263,1846,5
91277.0,1802,2261,1845,5
91278.0,1805,2261,1849,5
91279.0,1809,2269,1850,5
91280.0,1809,2271,1851,5
91281.0,1806,2264,1852,5
91282.0,1805,2264,1853,5
91283.0,1811,2263,1846,5
91284.0,1810,2268,1849,5
91285.0,1806,2263,1852,5
91286.0,1809,2265,1848,5
91287.0,1805,2269,1850,5
91288.0,1812,2263,1847,5
91289.0,1807,2261,1848,5
91290.0,1794,2263,1853,5
91291.0,1795,2262,1855,5
91292.0,1805,2265,1847,5
91293.0,1805,2267,1845,5
91294.0,1805,2267,1847,5
91295.0,1805,2261,1853,5
91296.0,1807,2263,1846,5
91297.0,1804,2266,1848,5
91298.0,1806,2267,1845,5
91299.0,1807,2267,1847,5
91300.0,1798,2261,1847,5
91301.0,1804,2260,1850,5
91302.0,1805,2262,1850,5
91303.0,1802,2265,1847,5
91304.0,1808,2264,1849,5
91305.0,1812,2267,1852,5
91306.0,1804,2261,1851,5
91307.0,1806,2263,1853,5
91308.0,1804,2262,1851,5
91309.0,1804,2258,1851,5
91310.0,1802,2264,1852,5
91311.0,1803,2263,1851,5
91312.0,1801,2262,1846,5
91313.0,1807,2263,1845,5
91314.0,1802,2263,1845,5
91315.0,1802,2265,1850,5
91316.0,1806,2265,1858,5
91317.0,1802,2263,1853,5
91318.0,1804,2262,1846,5
91319.0,1803,2270,1846,5
91320.0,1803,2266,1840,5
91321.0,1803,2257,1854,5
91322.0,1808,2264,1851,5
91323.0,1804,2261,1845,5
91324.0,1806,2259,1851,5
91325.0,1798,2265,1847,5
91326.0,1809,2264,1849,5
91327.0,1804,2259,1855,5
91328.0,1804,2260,1849,5
91329.0,1805,2261,1846,5
91330.0,1803,2267,1850,5
91331.0,1802,2266,1853,5
91332.0,1802,2265,1849,5
91333.0,1805,2261,1849,5
91334.0,1806,2261,1851,5
91335.0,1805,2269,1853,5
91336.0,1809,2264,1849,5
91337.0,1802,2265,1852,5
91338.0,1807,2263,1848,5
91339.0,1808,2266,1852,5
91340.0,1800,2269,1848,5
91341.0,1806,2267,1851,5
91342.0,1807,2260,1850,5
91343.0,1803,2265,1849,5
91344.0,1809,2269,1847,5
91345.0,1810,2264,1849,5
91346.0,1802,2258,1849,5
91347.0,1805,2266,1847,5
91348.0,1806,2271,1854,5
91349.0,1805,2266,1846,5
91350.0,1810,2261,1847,5
91351.0,1803,2263,1849,5
91352.0,1799,2265,1850,5
91353.0,1806,2264,1850,5
91354.0,1803,2265,1844,5
91355.0,1805,2266,1851,5
91356.0,1805,2265,1845,5
91357.0,1805,2267,1846,5
91358.0,1804,2261,1852,5
91359.0,1805,2260,1845,5
91360.0,1803,2263,1853,5
91361.0,1807,2266,1850,5
91362.0,1804,2269,1851,5
91363.0,1811,2263,1847,5
91364.0,1803,2260,1851,5
91365.0,1800,2260,1853,5
91366.0,1808,2261,1851,5
91367.0,1804,2268,1845,5
91368.0,1807,2269,1843,5
91369.0,1799,2267,1844,5
91370.0,1805,2265,1850,5
91371.0,1802,2260,1844,5
91372.0,1799,2259,1847,5
91373.0,1804,2269,1851,5
91374.0,1801,2264,1849,5
91375.0,1800,2271,1847,5
91376.0,1808,2266,1847,5
91377.0,1804,2262,1844,5
91378.0,1809,2266,1853,5
91379.0,1811,2260,1846,5
91380.0,1801,2262,1851,5
91381.0,1799,2269,1847,5
91382.0,1804,2259,1849,5
91383.0,1805,2264,1845,5
91384.0,1802,2265,1849,5
91385.0,1802,2259,1851,5
91386.0,1807,2261,1849,5
91387.0,1805,2263,1852,5
91388.0,1804,2260,1851,5
91389.0,1806,2260,1852,5
91390.0,1807,2264,1853,5
91391.0,1801,2261,1846,5
91392.0,1796,2263,1847,5
91393.0,1804,2271,1850,5
91394.0,1805,2268,1852,5
91395.0,1803,2254,1851,5
91396.0,1803,2263,1850,5
91397.0,1804,2260,1847,5
91398.0,1805,2261,1849,5
91399.0,1802,2261,1847,5
91400.0,1803,2264,1850,5
91401.0,1804,2263,1852,5
91402.0,1801,2262,1849,5
91403.0,1802,2263,1848,5
91404.0,1807,2263,1845,5
91405.0,1805,2261,1849,5
91406.0,1802,2266,1850,5
91407.0,1802,2260,1853,5
91408.0,1806,2265,1845,5
91409.0,1805,2270,1850,5
91410.0,1804,2266,1849,5
91411.0,1810,2262,1849,5
91412.0,1808,2265,1845,5
91413.0,1807,2262,1850,5
91414.0,1808,2259,1850,5
91415.0,1803,2261,1848,5
91416.0,1805,2261,1852,5
91417.0,1803,2267,1848,5
91418.0,1809,2264,1846,5
91419.0,1800,2263,1849,5
91420.0,1802,2264,1847,5
91421.0,1804,2256,1855,5
91422.0,1801,2263,1850,5
91423.0,1802,2263,1855,5
91424.0,1806,2261,1850,5
91425.0,1800,2262,1849,5
91426.0,1800,2263,1851,5
91427.0,1801,2262,1853,5
91428.0,1799,2266,1853,5
91429.0,1797,2271,1849,5
91430.0,1802,2267,1849,5
91431.0,1800,2262,1856,5
91432.0,1809,2264,1853,5
91433.0,1801,2259,1855,5
91434.0,1800,2260,1852,5
91435.0,1805,2264,1852,5
91436.0,1806,2265,1848,5
91437.0,1806,2263,1855,5
91438.0,1800,2258,1853,5
91439.0,1801,2263,1851,5
91440.0,1804,2267,1855,5
91441.0,1809,2261,1858,5
91442.0,1809,2265,1844,5
91443.0,1805,2261,1846,5
91444.0,1803,2271,1856,5
91445.0,1797,2267,1852,5
91446.0,1804,2263,1853,5
91447.0,1803,2264,1848,5
91448.0,1801,2262,1845,5
91449.0,1803,2265,1851,5
91450.0,1805,2263,1854,5
91451.0,1806,2264,1850,5
91452.0,1802,2270,1845,5
91453.0,1802,2263,1842,5
91454.0,1806,2257,1852,5
91455.0,1803,2263,1845,5
91456.0,1797,2261,1850,5
91457.0,1807,2262,1848,5
91458.0,1803,2266,1847,5
91459.0,1803,2268,1849,5
91460.0,1802,2265,1848,5
91461.0,1803,2266,1851,5
91462.0,1806,2259,1847,5
91463.0,1807,2263,1850,5
91464.0,1804,2260,1847,5
91465.0,1802,2261,1848,5
91466.0,1805,2267,1850,5
91467.0,1804,2267,1852,5
91468.0,1801,2262,1843,5
91469.0,1808,2267,1846,5
91470.0,1799,2267,1847,5
91471.0,1801,2264,1851,5
91472.0,1802,2266,1847,5
91473.0,1806,2263,1847,5
91474.0,1804,2264,1849,5
91475.0,1799,2263,1849,5
91476.0,1803,2264,1853,5
91477.0,1809,2265,1849,5
91478.0,1804,2271,1851,5
91479.0,1806,2262,1845,5
91480.0,1806,2266,1850,5
91481.0,1807,2263,1853,5
91482.0,1804,2266,1854,5
91483.0,1804,2265,1850,5
91484.0,1801,2263,1849,5
91485.0,1801,2263,1847,5
91486.0,1806,2260,1848,5
91487.0,1800,2264,1847,5
91488.0,1804,2258,1849,5
91489.0,1803,2265,1846,5
91490.0,1803,2261,1852,5
91491.0,1797,2263,1853,5
91492.0,1806,2271,1846,5
91493.0,1803,2263,1849,5
91494.0,1806,2263,1847,5
91495.0,1801,2270,1850,5
91496.0,1806,2267,1851,5
91497.0,1806,2258,1849,5
91498.0,1810,2264,1850,5
91499.0,1802,2270,1848,5
91500.0,1799,2266,1848,5
91501.0,1798,2266,1847,5
91502.0,1804,2266,1847,5
91503.0,1809,2267,1847,5
91504.0,1809,2263,1850,5
91505.0,1805,2265,1854,5
91506.0,1807,2264,1848,5
91507.0,1808,2267,1852,5
91508.0,1800,2262,1853,5
91509.0,1807,2262,1848,5
91510.0,1800,2263,1848,5
91511.0,1804,2262,1843,5
91512.0,1807,2263,1851,5
91513.0,1808,2261,1854,5
91514.0,1809,2267,1845,5
91515.0,1813,2263,1849,5
91516.0,1807,2263,1848,5
91517.0,1804,2266,1853,5
91518.0,1803,2265,1852,5
91519.0,1805,2265,1851,5
91520.0,1809,2269,1844,5
91521.0,1806,2263,1842,5
91522.0,1805,2262,1848,5
91523.0,1808,2265,1848,5
91524.0,1811,2264,1849,5
91525.0,1803,2263,1842,5
91526.0,1806,2265,1851,5
91527.0,1807,2263,1850,5
91528.0,1802,2262,1853,5
91529.0,1807,2263,1850,5
91530.0,1804,2258,1848,5
91531.0,1805,2262,1851,5
91532.0,1803,2265,1846,5
91533.0,1804,2261,1851,5
91534.0,1809,2267,1849,5
91535.0,1806,2269,1852,5
91536.0,1803,2265,1856,5
91537.0,1803,2262,1850,5
91538.0,1805,2265,1854,5
91539.0,1804,2261,1847,5
91540.0,1801,2262,1850,5
91541.0,1805,2265,1845,5
91542.0,1803,2268,1846,5
91543.0,1804,2265,1851,5
91544.0,1805,2265,1851,5
91545.0,1803,2266,1848,5
91546.0,1809,2265,1847,5
91547.0,1804,2267,1853,5
91548.0,1807,2267,1848,5
91549.0,1807,2267,1845,5
91550.0,1810,2264,1850,5
91551.0,1809,2259,1844,5
91552.0,1811,2264,1851,5
91553.0,1806,2266,1849,5
91554.0,1797,2261,1853,5
91555.0,1804,2259,1847,5
91556.0,1801,2260,1850,5
91557.0,1807,2264,1848,5
91558.0,1806,2262,1855,5
91559.0,1802,2263,1845,5
91560.0,1804,2260,1847,5
91561.0,1804,2265,1851,5
91562.0,1800,2261,1847,5
91563.0,1804,2265,1848,5
91564.0,1807,2265,1848,5
91565.0,1801,2261,1845,5
91566.0,1808,2262,1846,5
91567.0,1803,2255,1847,5
91568.0,1803,2262,1851,5
91569.0,1807,2268,1850,5
91570.0,1809,2265,1852,5
91571.0,1806,2265,1854,5
91572.0,1800,2262,1848,5
91573.0,1805,2271,1849,5
91574.0,1804,2268,1849,5
91575.0,1799,2266,1851,5
91576.0,1806,2269,1853,5
91577.0,1802,2272,1849,5
91578.0,1802,2266,1847,5
91579.0,1809,2267,1849,5
91580.0,1798,2264,1852,5
91581.0,1800,2263,1852,5
91582.0,1797,2264,1851,5
91583.0,1803,2265,1853,5
91584.0,1807,2265,1846,5
91585.0,1804,2265,1847,5
91586.0,1808,2263,1846,5
91587.0,1804,2266,1852,5
91588.0,1804,2265,1851,5
91589.0,1808,2266,1845,5
91590.0,1809,2264,1850,5
91591.0,1806,2263,1850,5
91592.0,1804,2262,1846,5
91593.0,1803,2269,1853,5
91594.0,1801,2263,1851,5
91595.0,1803,2265,1847,5
91596.0,1805,2264,1851,5
91597.0,1807,2263,1848,5
91598.0,1805,2266,1849,5
91599.0,1806,2266,1852,5
91600.0,1810,2262,1847,5
91601.0,1812,2265,1845,5
91602.0,1800,2265,1844,5
91603.0,1804,2263,1850,5
91604.0,1805,2265,1847,5
91605.0,1807,2266,1843,5
91606.0,1813,2268,1849,5
91607.0,1808,2269,1847,5
91608.0,1805,2267,1849,5
91609.0,1813,2267,1848,5
91610.0,1802,2263,1847,5
91611.0,1805,2267,1847,5
91612.0,1799,2263,1847,5
91613.0,1805,2267,1847,5
91614.0,1805,2265,1850,5
91615.0,1807,2261,1842,5
91616.0,1807,2270,1849,5
91617.0,1807,2265,1847,5
91618.0,1802,2263,1851,5
91619.0,1803,2266,1847,5
91620.0,1802,2267,1853,5
91621.0,1809,2264,1845,5
91622.0,1807,2267,1848,5
91623.0,1808,2263,1846,5
91624.0,1798,2269,1846,5
91625.0,1807,2263,1844,5
91626.0,1804,2269,1842,5
91627.0,1803,2261,1839,5
91628.0,1812,2263,1848,5
91629.0,1806,2265,1853,5
91630.0,1800,2260,1845,5
91631.0,1805,2262,1845,5
91632.0,1800,2267,1845,5
91633.0,1807,2261,1851,5
91634.0,1811,2265,1846,5
91635.0,1804,2259,1849,5
91636.0,1805,2263,1849,5
91637.0,1805,2267,1850,5
91638.0,1809,2267,1848,5
91639.0,1802,2265,1843,5
91640.0,1809,2268,1849,5
91641.0,1800,2271,1844,5
91642.0,1801,2262,1839,5
91643.0,1807,2271,1842,5
91644.0,1802,2269,1852,5
91645.0,1810,2262,1843,5
91646.0,1806,2265,1851,5
91647.0,1805,2263,1847,5
91648.0,1805,2260,1844,5
91649.0,1805,2264,1849,5
91650.0,1805,2264,1851,5
91651.0,1806,2263,1846,5
91652.0,1808,2267,1853,5
91653.0,1803,2265,1851,5
91654.0,1806,2271,1847,5
91655.0,1807,2264,1848,5
91656.0,1804,2266,1849,5
91657.0,1799,2267,1848,5
91658.0,1799,2270,1851,5
91659.0,1811,2265,1851,5
91660.0,1805,2268,1853,5
91661.0,1807,2268,1853,5
91662.0,1809,2268,1849,5
91663.0,1806,2266,1849,5
91664.0,1802,2266,1849,5
91665.0,1800,2266,1852,5
91666.0,1803,2266,1851,5
91667.0,1803,2265,1850,5
91668.0,1805,2259,1851,5
91669.0,1799,2263,1850,5
91670.0,1796,2272,1851,5
91671.0,1803,2261,1844,5
91672.0,1805,2257,1839,5
91673.0,1807,2265,1847,5
91674.0,1803,2260,1843,5
91675.0,1801,2262,1841,5
91676.0,1801,2261,1842,5
91677.0,1799,2258,1845,5
91678.0,1807,2263,1850,5
91679.0,1807,2268,1850,5
91680.0,1808,2265,1844,5
91681.0,1802,2265,1846,5
91682.0,1808,2259,1844,5
91683.0,1803,2265,1849,5
91684.0,1807,2258,1848,5
91685.0,1799,2263,1851,5
91686.0,1803,2262,1851,5
91687.0,1797,2261,1846,5
91688.0,1802,2276,1847,5
91689.0,1803,2267,1843,5
91690.0,1806,2262,1852,5
91691.0,1803,2266,1846,5
91692.0,1801,2264,1847,5
91693.0,1806,2263,1850,5
91694.0,1804,2265,1856,5
91695.0,1804,2265,1857,5
91696.0,1803,2264,1855,5
91697.0,1808,2255,1855,5
91698.0,1809,2264,1852,5
91699.0,1801,2267,1858,5
91700.0,1807,2266,1849,5
91701.0,1808,2265,1850,5
91702.0,1800,2266,1841,5
91703.0,1803,2267,1846,5
91704.0,1807,2259,1853,5
91705.0,1806,2265,1853,5
91706.0,1805,2260,1847,5
91707.0,1809,2265,1845,5
91708.0,1812,2267,1849,5
91709.0,1806,2265,1848,5
91710.0,1801,2259,1849,5
91711.0,1808,2263,1840,5
91712.0,1797,2261,1847,5
91713.0,1806,2269,1846,5
91714.0,1798,2266,1842,5
91715.0,1801,2261,1845,5
91716.0,1805,2260,1848,5
91717.0,1809,2263,1845,5
91718.0,1808,2262,1850,5
91719.0,1813,2262,1842,5
91720.0,1805,2265,1846,5
91721.0,1806,2261,1850,5
91722.0,1807,2261,1844,5
91723.0,1803,2262,1846,5
91724.0,1803,2267,1849,5
91725.0,1805,2264,1844,5
91726.0,1805,2261,1845,5
91727.0,1802,2261,1849,5
91728.0,1812,2263,1849,5
91729.0,1804,2265,1847,5
91730.0,1806,2259,1849,5
91731.0,1812,2266,1849,5
91732.0,1802,2259,1844,5
91733.0,1808,2266,1853,5
91734.0,1797,2269,1847,5
91735.0,1802,2270,1850,5
91736.0,1806,2269,1847,5
91737.0,1805,2264,1848,5
91738.0,1799,2264,1847,5
91739.0,1807,2267,1848,5
91740.0,1807,2269,1849,5
91741.0,1805,2264,1851,5
91742.0,1799,2264,1851,5
91743.0,1807,2266,1849,5
91744.0,1800,2263,1846,5
91745.0,1802,2268,1844,5
91746.0,1806,2268,1847,5
91747.0,1809,2261,1844,5
91748.0,1801,2259,1850,5
91749.0,1798,2266,1852,5
91750.0,1799,2262,1845,5
91751.0,1808,2266,1848,5
91752.0,1804,2261,1848,5
91753.0,1808,2265,1845,5
91754.0,1803,2260,1847,5
91755.0,1810,2265,1845,5
91756.0,1809,2264,1851,5
91757.0,1802,2268,1847,5
91758.0,1803,2262,1847,5
91759.0,1803,2267,1853,5
91760.0,1808,2262,1849,5
91761.0,1803,2263,1843,5
91762.0,1811,2264,1848,5
91763.0,1807,2260,1850,5
91764.0,1805,2261,1845,5
91765.0,1803,2263,1852,5
91766.0,1807,2267,1846,5
91767.0,1803,2263,1847,5
91768.0,1803,2260,1847,5
91769.0,1805,2266,1845,5
91770.0,1809,2268,1852,5
91771.0,1807,2260,1847,5
91772.0,1805,2266,1850,5
91773.0,1809,2261,1848,5
91774.0,1809,2264,1850,5
91775.0,1804,2260,1848,5
91776.0,1798,2259,1843,5
91777.0,1804,2270,1846,5
91778.0,1804,2262,1849,5
91779.0,1809,2266,1849,5
91780.0,1808,2261,1848,5
91781.0,1808,2262,1845,5
91782.0,1809,2266,1843,5
91783.0,1808,2265,1848,5
91784.0,1811,2267,1847,5
91785.0,1805,2266,1848,5
91786.0,1803,2259,1850,5
91787.0,1810,2268,1848,5
91788.0,1808,2270,1847,5
91789.0,1811,2264,1851,5
91790.0,1810,2270,1847,5
91791.0,1807,2261,1846,5
91792.0,1809,2264,1847,5
91793.0,1806,2263,1855,5
91794.0,1807,2263,1847,5
91795.0,1810,2267,1849,5
91796.0,1811,2261,1847,5
91797.0,1806,2261,1846,5
91798.0,1806,2265,1844,5
91799.0,1809,2272,1843,5
91800.0,1802,2262,1838,5
91801.0,1805,2263,1841,5
91802.0,1811,2267,1845,5
91803.0,1810,2266,1849,5
91804.0,1810,2266,1850,5
91805.0,1809,2270,1849,5
91806.0,1809,2270,1845,5
91807.0,1810,2263,1850,5
91808.0,1810,2266,1848,5
91809.0,1807,2271,1846,5
91810.0,1811,2264,1844,5
91811.0,1810,2268,1850,5
91812.0,1809,2267,1845,5
91813.0,1809,2270,1845,5
91814.0,1810,2267,1848,5
91815.0,1812,2263,1852,5
91816.0,1807,2269,1846,5
91817.0,1808,2261,1846,5
91818.0,1806,2267,1843,5
91819.0,1814,2267,1845,5
91820.0,1814,2271,1845,5
91821.0,1812,2268,1844,5
91822.0,1805,2268,1847,5
91823.0,1802,2265,1846,5
91824.0,1807,2266,1843,5
91825.0,1807,2263,1846,5
91826.0,1811,2263,1847,5
91827.0,1804,2261,1847,5
91828.0,1808,2263,1848,5
91829.0,1810,2263,1844,5
91830.0,1810,2263,1851,5
91831.0,1813,2261,1848,5
91832.0,1803,2261,1844,5
91833.0,1807,2262,1848,5
91834.0,1806,2270,1846,5
91835.0,1806,2268,1853,5
91836.0,1807,2263,1848,5
91837.0,1803,2265,1847,5
91838.0,1807,2263,1852,5
91839.0,1811,2260,1846,5
91840.0,1808,2260,1852,5
91841.0,1804,2259,1848,5
91842.0,1812,2262,1847,5
91843.0,1805,2260,1845,5
91844.0,1810,2262,1851,5
91845.0,1805,2267,1846,5
91846.0,1805,2259,1847,5
91847.0,1805,2264,1848,5
91848.0,1811,2258,1851,5
91849.0,1804,2259,1848,5
91850.0,1811,2264,1846,5
91851.0,1803,2261,1853,5
91852.0,1805,2266,1851,5
91853.0,1799,2268,1853,5
91854.0,1804,2267,1846,5
91855.0,1803,2263,1847,5
91856.0,1804,2274,1847,5
91857.0,1808,2267,1851,5
91858.0,1803,2259,1851,5
91859.0,1801,2266,1851,5
91860.0,1803,2267,1848,5
91861.0,1803,2262,1852,5
91862.0,1805,2258,1847,5
91863.0,1809,2262,1848,5
91864.0,1802,2263,1850,5
91865.0,1803,2266,1848,5
91866.0,1805,2259,1847,5
91867.0,1798,2260,1846,5
91868.0,1800,2264,1848,5
91869.0,1801,2262,1846,5
91870.0,1804,2270,1847,5
91871.0,1803,2266,1847,5
91872.0,1805,2261,1846,5
91873.0,1804,2263,1849,5
91874.0,1809,2261,1850,5
91875.0,1810,2260,1849,5
91876.0,1804,2262,1847,5
91877.0,1811,2265,1851,5
91878.0,1808,2263,1845,5
91879.0,1802,2263,1846,5
91880.0,1799,2259,1846,5
91881.0,1803,2261,1846,5
91882.0,1805,2265,1850,5
91883.0,1806,2269,1851,5
91884.0,1807,2268,1847,5
91885.0,1807,2261,1849,5
91886.0,1802,2265,1845,5
91887.0,1806,2263,1849,5
91888.0,1800,2266,1844,5
91889.0,1804,2259,1851,5
91890.0,1813,2267,1847,5
91891.0,1802,2264,1849,5
91892.0,1803,2261,1848,5
91893.0,1806,2263,1850,5
91894.0,1804,2263,1847,5
91895.0,1804,2267,1841,5
91896.0,1807,2267,1845,5
91897.0,1806,2265,1845,5
91898.0,1801,2265,1852,5
91899.0,1806,2265,1854,5
91900.0,1798,2256,1844,5
91901.0,1809,2257,1848,5
91902.0,1807,2259,1841,5
91903.0,1803,2261,1846,5
91904.0,1807,2265,1844,5
91905.0,1811,2261,1850,5
91906.0,1801,2267,1847,5
91907.0,1806,2267,1846,5
91908.0,1805,2264,1846,5
91909.0,1803,2267,1846,5
91910.0,1806,2267,1847,5
91911.0,1808,2263,1850,5
91912.0,1805,2264,1848,5
91913.0,1807,2263,1849,5
91914.0,1808,2264,1849,5
91915.0,1810,2266,1850,5
91916.0,1805,2271,1850,5
91917.0,1812,2265,1852,5
91918.0,1808,2266,1845,5
91919.0,1809,2267,1848,5
91920.0,1804,2268,1845,5
91921.0,1805,2265,1849,5
91922.0,1812,2265,1843,5
91923.0,1812,2265,1846,5
91924.0,1810,2263,1845,5
91925.0,1807,2262,1840,5
91926.0,1810,2263,1846,5
91927.0,1807,2262,1847,5
91928.0,1811,2275,1844,5
91929.0,1805,2263,1843,5
91930.0,1809,2271,1846,5
91931.0,1809,2266,1847,5
91932.0,1808,2266,1848,5
91933.0,1805,2268,1844,5
91934.0,1803,2263,1846,5
91935.0,1811,2263,1844,5
91936.0,1803,2265,1844,5
91937.0,1810,2267,1848,5
91938.0,1804,2260,1848,5
91939.0,1799,2263,1849,5
91940.0,1807,2267,1846,5
91941.0,1803,2265,1843,5
91942.0,1808,2264,1847,5
91943.0,1815,2259,1849,5
91944.0,1809,2264,1846,5
91945.0,1810,2263,1849,5
91946.0,1806,2263,1843,5
91947.0,1813,2266,1846,5
91948.0,1809,2266,1843,5
91949.0,1805,2272,1847,5
91950.0,1809,2269,1842,5
91951.0,1805,2261,1849,5
91952.0,1802,2263,1848,5
91953.0,1803,2261,1847,5
91954.0,1801,2264,1850,5
91955.0,1803,2262,1847,5
91956.0,1806,2261,1848,5
91957.0,1804,2267,1845,5
91958.0,1800,2262,1851,5
91959.0,1803,2266,1847,5
91960.0,1797,2265,1852,5
91961.0,1800,2262,1846,5
91962.0,1805,2263,1846,5
91963.0,1804,2260,1851,5
91964.0,1811,2260,1847,5
91965.0,1807,2262,1849,5
91966.0,1810,2260,1846,5
91967.0,1807,2267,1844,5
91968.0,1806,2265,1850,5
91969.0,1809,2267,1851,5
91970.0,1801,2260,1845,5
91971.0,1803,2262,1844,5
91972.0,1803,2259,1851,5
91973.0,1808,2261,1850,5
91974.0,1806,2261,1854,5
91975.0,1805,2268,1849,5
91976.0,1806,2264,1841,5
91977.0,1806,2266,1846,5
91978.0,1804,2265,1849,5
91979.0,1800,2266,1850,5
91980.0,1805,2260,1846,5
91981.0,1808,2260,1850,5
91982.0,1800,2265,1845,5
91983.0,1804,2271,1853,5
91984.0,1803,2269,1846,5
91985.0,1806,2266,1848,5
91986.0,1808,2265,1839,5
91987.0,1808,2270,1850,5
91988.0,1815,2267,1847,5
91989.0,1810,2266,1847,5
91990.0,1802,2265,1845,5
91991.0,1805,2263,1849,5
91992.0,1809,2259,1851,5
91993.0,1813,2259,1847,5
91994.0,1814,2267,1845,5
91995.0,1809,2265,1840,5
91996.0,1811,2262,1845,5
91997.0,1811,2264,1845,5
91998.0,1812,2263,1846,5
91999.0,1809,2264,1846,5
92000.0,1808,2255,1843,5
92001.0,1811,2258,1844,5
92002.0,1813,2265,1846,5
92003.0,1811,2268,1849,5
92004.0,1815,2265,1847,5
92005.0,1814,2262,1845,5
92006.0,1813,2269,1847,5
92007.0,1809,2265,1849,5
92008.0,1811,2266,1843,5
92009.0,1804,2269,1844,5
92010.0,1808,2269,1845,5
92011.0,1813,2272,1843,5
92012.0,1806,2263,1843,5
92013.0,1803,2268,1852,5
92014.0,1808,2269,1852,5
92015.0,1806,2264,1847,5
92016.0,1810,2269,1847,5
92017.0,1808,2266,1845,5
92018.0,1808,2271,1848,5
92019.0,1809,2268,1843,5
92020.0,1804,2271,1842,5
92021.0,1805,2270,1845,5
92022.0,1811,2270,1849,5
92023.0,1812,2266,1849,5
92024.0,1805,2268,1856,5
92025.0,1808,2269,1849,5
92026.0,1807,2270,1843,5
92027.0,1811,2270,1840,5
92028.0,1810,2271,1848,5
92029.0,1810,2265,1847,5
92030.0,1807,2265,1843,5
92031.0,1809,2264,1850,5
92032.0,1808,2267,1847,5
92033.0,1804,2269,1849,5
92034.0,1814,2269,1847,5
92035.0,1807,2266,1850,5
92036.0,1807,2264,1843,5
92037.0,1809,2268,1845,5
92038.0,1814,2272,1848,5
92039.0,1807,2260,1854,5
92040.0,1810,2264,1850,5
92041.0,1814,2265,1849,5
92042.0,1812,2260,1846,5
92043.0,1808,2268,1842,5
92044.0,1811,2266,1845,5
92045.0,1803,2262,1847,5
92046.0,1810,2269,1850,5
92047.0,1813,2268,1845,5
92048.0,1812,2270,1844,5
92049.0,1809,2267,1844,5
92050.0,1812,2260,1844,5
92051.0,1805,2266,1849,5
92052.0,1805,2259,1844,5
92053.0,1810,2266,1840,5
92054.0,1806,2268,1845,5
92055.0,1808,2258,1847,5
92056.0,1810,2267,1844,5
92057.0,1808,2262,1844,5
92058.0,1807,2264,1846,5
92059.0,1806,2264,1847,5
92060.0,1811,2264,1845,5
92061.0,1809,2265,1846,5
92062.0,1812,2261,1850,5
92063.0,1808,2261,1849,5
92064.0,1808,2264,1850,5
92065.0,1801,2260,1851,5
92066.0,1814,2269,1845,5
92067.0,1808,2269,1850,5
92068.0,1816,2266,1847,5
92069.0,1810,2266,1845,5
92070.0,1804,2261,1847,5
92071.0,1805,2264,1851,5
92072.0,1811,2266,1848,5
92073.0,1808,2267,1847,5
92074.0,1810,2267,1846,5
92075.0,1809,2265,1845,5
92076.0,1808,2265,1850,5
92077.0,1810,2265,1850,5
92078.0,1808,2261,1848,5
92079.0,1803,2263,1845,5
92080.0,1810,2266,1844,5
92081.0,1805,2263,1843,5
92082.0,1800,2259,1842,5
92083.0,1801,2262,1839,5
92084.0,1810,2262,1845,5
92085.0,1811,2264,1846,5
92086.0,1805,2267,1847,5
92087.0,1807,2266,1847,5
92088.0,1815,2263,1849,5
92089.0,1807,2266,1846,5
92090.0,1809,2267,1837,5
92091.0,1807,2271,1844,5
92092.0,1807,2271,1840,5
92093.0,1803,2270,1846,5
92094.0,1813,2264,1846,5
92095.0,1806,2267,1845,5
92096.0,1808,2263,1842,5
92097.0,1816,2264,1845,5
92098.0,1812,2270,1846,5
92099.0,1813,2266,1846,5
92100.0,1809,2268,1847,5
92101.0,1809,2257,1843,5
92102.0,1817,2263,1847,5
92103.0,1814,2262,1850,5
92104.0,1804,2264,1853,5
92105.0,1809,2271,1852,5
92106.0,1809,2270,1850,5
92107.0,1804,2273,1847,5
92108.0,1811,2269,1846,5
92109.0,1808,2270,1852,5
92110.0,1809,2266,1851,5
92111.0,1810,2271,1848,5
92112.0,1810,2263,1848,5
92113.0,1811,2263,1849,5
92114.0,1812,2271,1848,5
92115.0,1813,2267,1850,5
92116.0,1811,2264,1848,5
92117.0,1814,2266,1854,5
92118.0,1811,2268,1855,5
92119.0,1809,2266,1848,5
92120.0,1808,2268,1844,5
92121.0,1805,2265,1844,5
92122.0,1808,2270,1843,5
92123.0,1813,2268,1838,5
92124.0,1809,2262,1840,5
92125.0,1811,2263,1842,5
92126.0,1809,2269,1841,5
92127.0,1810,2263,1840,5
92128.0,1808,2270,1839,5
92129.0,1810,2263,1840,5
92130.0,1805,2269,1835,5
92131.0,1812,2266,1838,5
92132.0,1817,2263,1842,5
92133.0,1814,2267,1850,5
92134.0,1810,2262,1850,5
92135.0,1810,2258,1839,5
92136.0,1811,2263,1847,5
92137.0,1810,2267,1848,5
92138.0,1808,2262,1848,5
92139.0,1811,2263,1846,5
92140.0,1812,2267,1847,5
92141.0,1808,2264,1846,5
92142.0,1810,2267,1841,5
92143.0,1813,2266,1847,5
92144.0,1809,2265,1850,5
92145.0,1805,2268,1851,5
92146.0,1804,2265,1848,5
92147.0,1811,2269,1850,5
92148.0,1808,2270,1851,5
92149.0,1811,2265,1849,5
92150.0,1805,2270,1852,5
92151.0,1804,2271,1847,5
92152.0,1799,2266,1844,5
92153.0,1810,2265,1849,5
92154.0,1807,2264,1849,5
92155.0,1805,2263,1852,5
92156.0,1805,2263,1846,5
92157.0,1805,2263,1847,5
92158.0,1805,2261,1850,5
92159.0,1806,2265,1852,5
92160.0,1807,2259,1848,5
92161.0,1808,2266,1844,5
92162.0,1810,2265,1841,5
92163.0,1808,2259,1842,5
92164.0,1807,2262,1847,5
92165.0,1806,2263,1851,5
92166.0,1812,2265,1849,5
92167.0,1807,2268,1850,5
92168.0,1809,2266,1850,5
92169.0,1806,2268,1845,5
92170.0,1809,2267,1843,5
92171.0,1811,2264,1851,5
92172.0,1807,2266,1844,5
92173.0,1806,2269,1845,5
92174.0,1804,2267,1845,5
92175.0,1810,2260,1844,5
92176.0,1808,2260,1846,5
92177.0,1805,2269,1850,5
92178.0,1807,2264,1848,5
92179.0,1809,2267,1848,5
92180.0,1805,2258,1844,5
92181.0,1811,2266,1851,5
92182.0,1811,2260,1846,5
92183.0,1807,2265,1848,5
92184.0,1807,2269,1845,5
92185.0,1809,2267,1844,5
92186.0,1810,2266,1850,5
92187.0,1814,2268,1849,5
92188.0,1812,2266,1848,5
92189.0,1810,2266,1846,5
92190.0,1813,2264,1848,5
92191.0,1809,2268,1848,5
92192.0,1810,2266,1846,5
92193.0,1809,2266,1845,5
92194.0,1813,2267,1844,5
92195.0,1806,2263,1849,5
92196.0,1805,2270,1851,5
92197.0,1810,2260,1836,5
92198.0,1806,2271,1841,5
92199.0,1805,2268,1850,5
92200.0,1810,2263,1842,5
92201.0,1805,2264,1844,5
92202.0,1807,2265,1841,5
92203.0,1811,2259,1849,5
92204.0,1805,2267,1844,5
92205.0,1813,2262,1842,5
92206.0,1808,2267,1845,5
92207.0,1805,2268,1847,5
92208.0,1801,2265,1847,5
92209.0,1807,2261,1847,5
92210.0,1806,2265,1846,5
92211.0,1811,2271,1841,5
92212.0,1810,2269,1843,5
92213.0,1811,2271,1839,5
92214.0,1807,2260,1848,5
92215.0,1809,2263,1845,5
92216.0,1806,2264,1850,5
92217.0,1812,2264,1847,5
92218.0,1803,2268,1843,5
92219.0,1810,2265,1845,5
92220.0,1802,2259,1843,5
92221.0,1812,2268,1844,5
92222.0,1811,2267,1851,5
92223.0,1804,2266,1848,5
92224.0,1806,2259,1847,5
92225.0,1808,2266,1845,5
92226.0,1808,2265,1845,5
92227.0,1812,2263,1842,5
92228.0,1809,2261,1848,5
92229.0,1812,2269,1844,5
92230.0,1811,2262,1847,5
92231.0,1813,2266,1846,5
92232.0,1807,2263,1846,5
92233.0,1814,2261,1845,5
92234.0,1809,2263,1845,5
92235.0,1803,2264,1849,5
92236.0,1811,2264,1846,5
92237.0,1815,2259,1840,5
92238.0,1804,2261,1842,5
92239.0,1807,2273,1845,5
92240.0,1805,2269,1847,5
92241.0,1811,2264,1842,5
92242.0,1807,2266,1845,5
92243.0,1811,2262,1848,5
92244.0,1801,2263,1848,5
92245.0,1802,2255,1846,5
92246.0,1802,2266,1848,5
92247.0,1809,2263,1849,5
92248.0,1809,2267,1849,5
92249.0,1813,2264,1847,5
92250.0,1807,2267,1849,5
92251.0,1806,2263,1843,5
92252.0,1804,2264,1846,5
92253.0,1805,2267,1852,5
92254.0,1807,2266,1847,5
92255.0,1801,2262,1843,5
92256.0,1807,2267,1847,5
92257.0,1815,2268,1845,5
92258.0,1808,2261,1848,5
92259.0,1808,2265,1851,5
92260.0,1814,2267,1847,5
92261.0,1814,2263,1843,5
92262.0,1810,2262,1844,5
92263.0,1811,2269,1843,5
92264.0,1806,2262,1849,5
92265.0,1811,2260,1843,5
92266.0,1804,2266,1843,5
92267.0,1811,2265,1848,5
92268.0,1810,2267,1848,5
92269.0,1810,2262,1845,5
92270.0,1805,2260,1842,5
92271.0,1812,2267,1842,5
92272.0,1808,2265,1844,5
92273.0,1810,2266,1847,5
92274.0,1809,2274,1843,5
92275.0,1812,2259,1839,5
92276.0,1813,2264,1845,5
92277.0,1811,2264,1849,5
92278.0,1806,2256,1846,5
92279.0,1808,2262,1843,5
92280.0,1808,2266,1840,5
92281.0,1808,2268,1846,5
92282.0,1807,2266,1841,5
92283.0,1811,2264,1847,5
92284.0,1809,2263,1848,5
92285.0,1812,2262,1847,5
92286.0,1808,2265,1846,5
92287.0,1812,2264,1846,5
92288.0,1807,2265,1845,5
92289.0,1813,2267,1846,5
92290.0,1807,2266,1843,5
92291.0,1802,2263,1847,5
92292.0,1806,2263,1850,5
92293.0,1812,2259,1844,5
92294.0,1805,2264,1849,5
92295.0,1812,2263,1847,5
92296.0,1804,2264,1847,5
92297.0,1808,2272,1845,5
92298.0,1807,2267,1846,5
92299.0,1801,2272,1847,5
92300.0,1810,2270,1846,5
92301.0,1807,2263,1841,5
92302.0,1814,2265,1850,5
92303.0,1807,2266,1851,5
92304.0,1809,2261,1849,5
92305.0,1808,2270,1846,5
92306.0,1813,2263,1847,5
92307.0,1806,2268,1847,5
92308.0,1806,2265,1845,5
92309.0,1808,2270,1846,5
92310.0,1807,2260,1841,5
92311.0,1807,2262,1842,5
92312.0,1809,2263,1849,5
92313.0,1807,2261,1844,5
92314.0,1810,2262,1846,5
92315.0,1808,2267,1849,5
92316.0,1807,2262,1845,5
92317.0,1809,2261,1847,5
92318.0,1811,2266,1844,5
92319.0,1805,2267,1838,5
92320.0,1807,2261,1846,5
92321.0,1810,2265,1842,5
92322.0,1812,2265,1846,5
92323.0,1806,2263,1846,5
92324.0,1808,2267,1848,5
92325.0,1805,2263,1845,5
92326.0,1809,2263,1849,5
92327.0,1811,2255,1846,5
92328.0,1806,2267,1844,5
92329.0,1806,2264,1845,5
92330.0,1807,2263,1847,5
92331.0,1809,2267,1842,5
92332.0,1811,2266,1847,5
92333.0,1807,2270,1847,5
92334.0,1811,2268,1848,5
92335.0,1807,2265,1846,5
92336.0,1814,2269,1849,5
92337.0,1808,2262,1847,5
92338.0,1804,2265,1846,5
92339.0,1810,2267,1842,5
92340.0,1805,2264,1843,5
92341.0,1812,2265,1840,5
92342.0,1809,2263,1845,5
92343.0,1813,2265,1847,5
92344.0,1802,2263,1846,5
92345.0,1805,2267,1845,5
92346.0,1812,2265,1847,5
92347.0,1809,2265,1847,5
92348.0,1811,2264,1843,5
92349.0,1807,2267,1840,5
92350.0,1807,2265,1846,5
92351.0,1807,2266,1851,5
92352.0,1812,2265,1850,5
92353.0,1804,2263,1846,5
92354.0,1809,2266,1849,5
92355.0,1811,2263,1846,5
92356.0,1806,2267,1847,5
92357.0,1809,2264,1846,5
92358.0,1810,2265,1841,5
92359.0,1805,2265,1851,5
92360.0,1809,2265,1842,5
92361.0,1808,2264,1849,5
92362.0,1810,2272,1845,5
92363.0,1811,2264,1847,5
92364.0,1808,2269,1844,5
92365.0,1808,2267,1845,5
92366.0,1809,2263,1847,5
92367.0,1807,2269,1848,5
92368.0,1812,2267,1847,5
92369.0,1805,2262,1849,5
92370.0,1810,2266,1843,5
92371.0,1809,2267,1849,5
92372.0,1806,2264,1846,5
92373.0,1811,2265,1847,5
92374.0,1815,2263,1849,5
92375.0,1807,2261,1846,5
92376.0,1808,2264,1847,5
92377.0,1811,2265,1849,5
92378.0,1809,2267,1842,5
92379.0,1807,2268,1838,5
92380.0,1808,2268,1841,5
92381.0,1811,2260,1849,5
92382.0,1807,2261,1852,5
92383.0,1810,2267,1847,5
92384.0,1809,2261,1850,5
92385.0,1811,2268,1847,5
92386.0,1809,2267,1840,5
92387.0,1804,2274,1844,5
92388.0,1810,2266,1841,5
92389.0,1808,2263,1845,5
92390.0,1807,2263,1847,5
92391.0,1806,2262,1844,5
92392.0,1811,2265,1845,5
92393.0,1809,2270,1844,5
92394.0,1812,2262,1843,5
92395.0,1806,2267,1845,5
92396.0,1816,2264,1848,5
92397.0,1808,2266,1845,5
92398.0,1809,2266,1844,5
92399.0,1808,2262,1843,5
92400.0,1812,2267,1846,5
92401.0,1811,2265,1845,5
92402.0,1807,2263,1843,5
92403.0,1809,2265,1846,5
92404.0,1804,2267,1844,5
92405.0,1810,2264,1844,5
92406.0,1807,2266,1846,5
92407.0,1807,2259,1844,5
92408.0,1812,2263,1848,5
92409.0,1808,2263,1842,5
92410.0,1799,2265,1847,5
92411.0,1813,2269,1847,5
92412.0,1806,2264,1844,5
92413.0,1808,2268,1842,5
92414.0,1808,2266,1845,5
92415.0,1807,2265,1844,5
92416.0,1806,2270,1846,5
92417.0,1805,2263,1848,5
92418.0,1813,2264,1846,5
92419.0,1809,2268,1850,5
92420.0,1807,2271,1845,5
92421.0,1812,2266,1844,5
92422.0,1807,2268,1841,5
92423.0,1816,2262,1847,5
92424.0,1810,2268,1847,5
92425.0,1809,2265,1848,5
92426.0,1810,2271,1842,5
92427.0,1807,2266,1844,5
92428.0,1808,2262,1841,5
92429.0,1804,2263,1848,5
92430.0,1809,2264,1848,5
92431.0,1810,2270,1849,5
92432.0,1804,2263,1846,5
92433.0,1805,2263,1844,5
92434.0,1809,2269,1845,5
92435.0,1807,2263,1844,5
92436.0,1804,2266,1849,5
92437.0,1806,2265,1842,5
92438.0,1805,2265,1847,5
92439.0,1811,2264,1845,5
92440.0,1812,2268,1845,5
92441.0,1810,2266,1839,5
92442.0,1808,2264,1849,5
92443.0,1811,2269,1848,5
92444.0,1807,2263,1843,5
92445.0,1803,2271,1841,5
92446.0,1810,2267,1845,5
92447.0,1811,2266,1846,5
92448.0,1810,2259,1845,5
92449.0,1805,2266,1849,5
92450.0,1808,2267,1845,5
92451.0,1811,2264,1845,5
92452.0,1805,2264,1843,5
92453.0,1807,2263,1843,5
92454.0,1815,2270,1845,5
92455.0,1809,2270,1845,5
92456.0,1807,2266,1849,5
92457.0,1806,2259,1843,5
92458.0,1802,2260,1844,5
92459.0,1805,2260,1845,5
92460.0,1814,2267,1847,5
92461.0,1805,2266,1841,5
92462.0,1810,2265,1844,5
92463.0,1807,2269,1848,5
92464.0,1808,2262,1849,5
92465.0,1804,2259,1843,5
92466.0,1803,2258,1843,5
92467.0,1804,2263,1845,5
92468.0,1806,2263,1849,5
92469.0,1810,2263,1843,5
92470.0,1808,2267,1845,5
92471.0,1802,2263,1842,5
92472.0,1808,2263,1844,5
92473.0,1811,2263,1845,5
92474.0,1804,2263,1844,5
92475.0,1811,2267,1847,5
92476.0,1804,2264,1851,5
92477.0,1808,2259,1846,5
92478.0,1801,2267,1848,5
92479.0,1808,2261,1847,5
92480.0,1801,2258,1847,5
92481.0,1803,2258,1849,5
92482.0,1807,2263,1847,5
92483.0,1803,2264,1846,5
92484.0,1803,2259,1846,5
92485.0,1803,2262,1843,5
92486.0,1807,2263,1841,5
92487.0,1803,2263,1847,5
92488.0,1808,2262,1851,5
92489.0,1807,2265,1850,5
92490.0,1808,2258,1844,5
92491.0,1807,2269,1844,5
92492.0,1800,2267,1846,5
92493.0,1800,2270,1850,5
92494.0,1803,2262,1852,5
92495.0,1810,2261,1849,5
92496.0,1804,2265,1849,5
92497.0,1808,2262,1847,5
92498.0,1805,2261,1843,5
92499.0,1802,2266,1844,5
92500.0,1803,2266,1846,5
92501.0,1807,2265,1848,5
92502.0,1808,2267,1851,5
92503.0,1803,2264,1847,5
92504.0,1810,2257,1846,5
92505.0,1804,2259,1849,5
92506.0,1804,2261,1846,5
92507.0,1807,2264,1851,5
92508.0,1808,2265,1846,5
92509.0,1804,2264,1847,5
92510.0,1805,2255,1847,5
92511.0,1808,2262,1846,5
92512.0,1808,2263,1845,5
92513.0,1806,2268,1844,5
92514.0,1801,2261,1841,5
92515.0,1801,2263,1845,5
92516.0,1805,2264,1850,5
92517.0,1804,2265,1849,5
92518.0,1807,2263,1845,5
92519.0,1806,2266,1846,5
92520.0,1811,2266,1847,5
92521.0,1810,2262,1848,5
92522.0,1810,2265,1841,5
92523.0,1806,2269,1843,5
92524.0,1808,2262,1846,5
92525.0,1811,2262,1844,5
92526.0,1812,2266,1845,5
92527.0,1803,2265,1851,5
92528.0,1806,2267,1844,5
92529.0,1810,2268,1848,5
92530.0,1809,2265,1847,5
92531.0,1807,2262,1848,5
92532.0,1813,2266,1846,5
92533.0,1811,2265,1846,5
92534.0,1809,2267,1846,5
92535.0,1808,2263,1847,5
92536.0,1808,2266,1848,5
92537.0,1809,2267,1842,5
92538.0,1809,2265,1847,5
92539.0,1810,2260,1845,5
92540.0,1804,2267,1842,5
92541.0,1808,2263,1846,5
92542.0,1807,2265,1844,5
92543.0,1815,2266,1844,5
92544.0,1809,2264,1844,5
92545.0,1811,2266,1848,5
92546.0,1809,2267,1845,5
92547.0,1816,2267,1844,5
92548.0,1812,2267,1846,5
92549.0,1805,2267,1844,5
92550.0,1814,2271,1845,5
92551.0,1811,2264,1848,5
92552.0,1807,2264,1847,5
92553.0,1809,2268,1846,5
92554.0,1813,2263,1847,5
92555.0,1806,2273,1844,5
92556.0,1807,2269,1844,5
92557.0,1814,2268,1844,5
92558.0,1813,2271,1845,5
92559.0,1810,2270,1844,5
92560.0,1807,2267,1853,5
92561.0,1807,2271,1847,5
92562.0,1809,2268,1846,5
92563.0,1813,2270,1848,5
92564.0,1811,2263,1838,5
92565.0,1808,2266,1845,5
92566.0,1814,2264,1847,5
92567.0,1812,2262,1851,5
92568.0,1811,2262,1846,5
92569.0,1807,2267,1845,5
92570.0,1806,2267,1847,5
92571.0,1811,2269,1842,5
92572.0,1812,2265,1843,5
92573.0,1807,2258,1843,5
92574.0,1806,2267,1844,5
92575.0,1813,2261,1847,5
92576.0,1810,2267,1842,5
92577.0,1809,2268,1843,5
92578.0,1813,2264,1844,5
92579.0,1808,2269,1838,5
92580.0,1812,2266,1849,5
92581.0,1802,2267,1852,5
92582.0,1803,2265,1852,5
92583.0,1810,2260,1848,5
92584.0,1810,2265,1846,5
92585.0,1812,2265,1848,5
92586.0,1802,2270,1846,5
92587.0,1804,2266,1839,5
92588.0,1809,2263,1842,5
92589.0,1806,2264,1843,5
92590.0,1806,2265,1850,5
92591.0,1807,2263,1845,5
92592.0,1807,2263,1846,5
92593.0,1810,2265,1844,5
92594.0,1804,2262,1846,5
92595.0,1804,2264,1846,5
92596.0,1804,2268,1845,5
92597.0,1807,2263,1850,5
92598.0,1803,2262,1845,5
92599.0,1807,2260,1843,5
92600.0,1804,2260,1841,5
92601.0,1813,2265,1844,5
92602.0,1807,2267,1843,5
92603.0,1806,2265,1846,5
92604.0,1807,2263,1847,5
92605.0,1805,2267,1844,5
92606.0,1805,2271,1847,5
92607.0,1800,2267,1840,5
92608.0,1809,2273,1844,5
92609.0,1810,2267,1846,5
92610.0,1809,2265,1848,5
92611.0,1804,2266,1848,5
92612.0,1808,2268,1845,5
92613.0,1806,2263,1848,5
92614.0,1807,2263,1846,5
92615.0,1807,2265,1850,5
92616.0,1810,2263,1846,5
92617.0,1810,2263,1847,5
92618.0,1806,2267,1846,5
92619.0,1806,2263,1843,5
92620.0,1808,2267,1844,5
92621.0,1806,2260,1845,5
92622.0,1814,2260,1845,5
92623.0,1807,2267,1842,5
92624.0,1810,2267,1845,5
92625.0,1808,2266,1848,5
92626.0,1805,2258,1846,5
92627.0,1809,2262,1847,5
92628.0,1808,2264,1846,5
92629.0,1813,2262,1845,5
92630.0,1809,2268,1843,5
92631.0,1809,2263,1846,5
92632.0,1804,2262,1847,5
92633.0,1811,2263,1846,5
92634.0,1810,2263,1851,5
92635.0,1812,2264,1843,5
92636.0,1809,2263,1851,5
92637.0,1809,2268,1844,5
92638.0,1808,2268,1843,5
92639.0,1808,2266,1847,5
92640.0,1807,2266,1844,5
92641.0,1804,2268,1847,5
92642.0,1808,2265,1846,5
92643.0,1811,2263,1845,5
92644.0,1810,2261,1846,5
92645.0,1803,2271,1849,5
92646.0,1806,2266,1845,5
92647.0,1808,2263,1840,5
92648.0,1808,2269,1843,5
92649.0,1811,2269,1846,5
92650.0,1810,2265,1845,5
92651.0,1809,2264,1845,5
92652.0,1810,2264,1844,5
92653.0,1809,2265,1841,5
92654.0,1810,2266,1847,5
92655.0,1816,2263,1847,5
92656.0,1810,2269,1847,5
92657.0,1811,2269,1843,5
92658.0,1809,2268,1843,5
92659.0,1812,2270,1843,5
92660.0,1812,2263,1848,5
92661.0,1815,2258,1844,5
92662.0,1809,2263,1845,5
92663.0,1809,2267,1846,5
92664.0,1806,2267,1842,5
92665.0,1807,2267,1843,5
92666.0,1813,2269,1843,5
92667.0,1812,2263,1843,5
92668.0,1811,2265,1845,5
92669.0,1811,2263,1844,5
92670.0,1810,2263,1846,5
92671.0,1806,2262,1847,5
92672.0,1808,2266,1844,5
92673.0,1813,2259,1841,5
92674.0,1816,2265,1845,5
92675.0,1812,2265,1845,5
92676.0,1805,2265,1842,5
92677.0,1811,2268,1845,5
92678.0,1809,2266,1840,5
92679.0,1808,2257,1846,5
92680.0,1811,2265,1846,5
92681.0,1811,2267,1843,5
92682.0,1808,2267,1849,5
92683.0,1811,2263,1843,5
92684.0,1809,2267,1844,5
92685.0,1816,2267,1841,5
92686.0,1809,2262,1843,5
92687.0,1811,2263,1851,5
92688.0,1809,2263,1848,5
92689.0,1808,2266,1848,5
92690.0,1807,2264,1851,5
92691.0,1807,2268,1851,5
92692.0,1805,2270,1852,5
92693.0,1809,2264,1849,5
92694.0,1804,2265,1849,5
92695.0,1805,2263,1846,5
92696.0,1805,2264,1848,5
92697.0,1807,2263,1847,5
92698.0,1806,2264,1844,5
92699.0,1808,2265,1847,5
92700.0,1814,2266,1851,5
92701.0,1812,2265,1844,5
92702.0,1806,2266,1843,5
92703.0,1809,2261,1843,5
92704.0,1806,2264,1845,5
92705.0,1808,2267,1849,5
92706.0,1807,2269,1847,5
92707.0,1810,2267,1849,5
92708.0,1807,2270,1848,5
92709.0,1813,2266,1850,5
92710.0,1814,2268,1847,5
92711.0,1809,2266,1841,5
92712.0,1808,2268,1845,5
92713.0,1810,2266,1846,5
92714.0,1808,2265,1844,5
92715.0,1811,2265,1844,5
92716.0,1811,2271,1847,5
92717.0,1810,2266,1846,5
92718.0,1812,2265,1837,5
92719.0,1813,2267,1845,5
92720.0,1810,2266,1847,5
92721.0,1808,2269,1843,5
92722.0,1805,2262,1842,5
92723.0,1813,2263,1843,5
92724.0,1810,2261,1848,5
92725.0,1809,2265,1841,5
92726.0,1802,2269,1846,5
92727.0,1809,2267,1842,5
92728.0,1806,2262,1843,5
92729.0,1808,2266,1845,5
92730.0,1810,2268,1846,5
92731.0,1811,2270,1845,5
92732.0,1805,2265,1842,5
92733.0,1813,2267,1842,5
92734.0,1808,2265,1840,5
92735.0,1811,2264,1843,5
92736.0,1813,2268,1847,5
92737.0,1804,2267,1842,5
92738.0,1813,2266,1847,5
92739.0,1807,2271,1849,5
92740.0,1812,2267,1846,5
92741.0,1814,2266,1849,5
92742.0,1809,2263,1845,5
92743.0,1808,2266,1850,5
92744.0,1806,2268,1849,5
92745.0,1809,2270,1846,5
92746.0,1810,2262,1847,5
92747.0,1805,2271,1848,5
92748.0,1811,2266,1847,5
92749.0,1807,2270,1843,5
92750.0,1813,2267,1847,5
92751.0,1806,2268,1847,5
92752.0,1809,2266,1853,5
92753.0,1809,2262,1843,5
92754.0,1816,2267,1851,5
92755.0,1809,2264,1846,5
92756.0,1805,2265,1847,5
92757.0,1810,2267,1848,5
92758.0,1816,2264,1846,5
92759.0,1804,2266,1846,5
92760.0,1808,2264,1843,5
92761.0,1815,2263,1850,5
92762.0,1809,2270,1842,5
92763.0,1810,2265,1840,5
92764.0,1807,2261,1844,5
92765.0,1805,2269,1848,5
92766.0,1812,2268,1852,5
92767.0,1808,2267,1844,5
92768.0,1811,2262,1843,5
92769.0,1812,2266,1846,5
92770.0,1806,2263,1848,5
92771.0,1800,2266,1850,5
92772.0,1806,2267,1852,5
92773.0,1808,2266,1854,5
92774.0,1807,2265,1847,5
92775.0,1808,2267,1845,5
92776.0,1807,2265,1844,5
92777.0,1811,2261,1848,5
92778.0,1805,2258,1850,5
92779.0,1810,2262,1842,5
92780.0,1806,2271,1844,5
92781.0,1811,2274,1850,5
92782.0,1810,2265,1849,5
92783.0,1804,2267,1847,5
92784.0,1805,2266,1849,5
92785.0,1810,2264,1854,5
92786.0,1805,2265,1850,5
92787.0,1807,2262,1844,5
92788.0,1802,2261,1848,5
92789.0,1811,2267,1844,5
92790.0,1811,2265,1847,5
92791.0,1807,2262,1851,5
92792.0,1810,2263,1849,5
92793.0,1806,2259,1849,5
92794.0,1808,2264,1849,5
92795.0,1811,2266,1849,5
92796.0,1802,2259,1850,5
92797.0,1806,2269,1850,5
92798.0,1803,2265,1848,5
92799.0,1809,2265,1849,5
92800.0,1803,2260,1851,5
92801.0,1808,2274,1846,5
92802.0,1810,2269,1845,5
92803.0,1813,2270,1847,5
92804.0,1812,2267,1855,5
92805.0,1817,2267,1848,5
92806.0,1804,2265,1847,5
92807.0,1811,2259,1852,5
92808.0,1807,2269,1847,5
92809.0,1814,2269,1847,5
92810.0,1811,2264,1848,5
92811.0,1811,2265,1846,5
92812.0,1812,2263,1846,5
92813.0,1807,2265,1840,5
92814.0,1811,2263,1843,5
92815.0,1814,2267,1848,5
92816.0,1812,2266,1850,5
92817.0,1806,2261,1845,5
92818.0,1810,2268,1846,5
92819.0,1806,2259,1842,5
92820.0,1799,2260,1848,5
92821.0,1803,2263,1849,5
92822.0,1812,2266,1844,5
92823.0,1805,2267,1849,5
92824.0,1806,2263,1848,5
92825.0,1804,2260,1843,5
92826.0,1812,2263,1847,5
92827.0,1813,2262,1844,5
92828.0,1810,2268,1846,5
92829.0,1814,2261,1847,5
92830.0,1806,2270,1847,5
92831.0,1804,2261,1848,5
92832.0,1810,2264,1848,5
92833.0,1807,2267,1847,5
92834.0,1803,2267,1847,5
92835.0,1812,2267,1849,5
92836.0,1807,2263,1849,5
92837.0,1810,2267,1849,5
92838.0,1809,2262,1847,5
92839.0,1811,2268,1848,5
92840.0,1804,2268,1847,5
92841.0,1809,2266,1850,5
92842.0,1802,2259,1846,5
92843.0,1810,2263,1847,5
92844.0,1811,2262,1851,5
92845.0,1809,2265,1849,5
92846.0,1807,2264,1847,5
92847.0,1807,2264,1843,5
92848.0,1805,2263,1851,5
92849.0,1810,2267,1849,5
92850.0,1810,2269,1853,5
92851.0,1813,2268,1838,5
92852.0,1805,2263,1845,5
92853.0,1809,2263,1846,5
92854.0,1806,2258,1854,5
92855.0,1803,2263,1845,5
92856.0,1806,2264,1848,5
92857.0,1807,2271,1843,5
92858.0,1811,2265,1846,5
92859.0,1806,2266,1846,5
92860.0,1813,2265,1847,5
92861.0,1807,2261,1847,5
92862.0,1806,2267,1846,5
92863.0,1807,2269,1848,5
92864.0,1809,2262,1847,5
92865.0,1805,2262,1846,5
92866.0,1808,2268,1847,5
92867.0,1806,2264,1849,5
92868.0,1805,2265,1847,5
92869.0,1807,2263,1851,5
92870.0,1803,2265,1847,5
92871.0,1801,2259,1846,5
92872.0,1804,2258,1845,5
92873.0,1803,2267,1844,5
92874.0,1804,2259,1849,5
92875.0,1805,2261,1854,5
92876.0,1809,2265,1849,5
92877.0,1806,2265,1847,5
92878.0,1807,2263,1847,5
92879.0,1805,2265,1843,5
92880.0,1802,2266,1850,5
92881.0,1807,2263,1847,5
92882.0,1806,2267,1849,5
92883.0,1809,2265,1853,5
92884.0,1809,2263,1854,5
92885.0,1807,2265,1849,5
92886.0,1808,2266,1846,5
92887.0,1803,2264,1847,5
92888.0,1807,2261,1850,5
92889.0,1806,2262,1845,5
92890.0,1804,2265,1849,5
92891.0,1803,2264,1853,5
92892.0,1807,2266,1852,5
92893.0,1806,2265,1848,5
92894.0,1803,2261,1851,5
92895.0,1803,2263,1844,5
92896.0,1811,2261,1843,5
92897.0,1811,2268,1849,5
92898.0,1811,2264,1845,5
92899.0,1804,2265,1849,5
92900.0,1802,2266,1850,5
92901.0,1810,2267,1849,5
92902.0,1807,2268,1857,5
92903.0,1810,2265,1845,5
92904.0,1809,2266,1842,5
92905.0,1807,2265,1846,5
92906.0,1808,2265,1849,5
92907.0,1805,2269,1853,5
92908.0,1805,2265,1857,5
92909.0,1809,2263,1845,5
92910.0,1808,2267,1847,5
92911.0,1809,2266,1848,5
92912.0,1805,2266,1844,5
92913.0,1807,2273,1845,5
92914.0,1812,2265,1848,5
92915.0,1805,2259,1846,5
92916.0,1803,2260,1848,5
92917.0,1803,2261,1849,5
92918.0,1806,2269,1846,5
92919.0,1811,2269,1844,5
92920.0,1809,2264,1850,5
92921.0,1808,2265,1849,5
92922.0,1811,2263,1841,5
92923.0,1808,2262,1846,5
92924.0,1803,2266,1841,5
92925.0,1807,2267,1844,5
92926.0,1807,2271,1845,5
92927.0,1806,2267,1844,5
92928.0,1803,2264,1847,5
92929.0,1806,2265,1847,5
92930.0,1813,2263,1846,5
92931.0,1801,2255,1843,5
92932.0,1802,2262,1847,5
92933.0,1805,2262,1846,5
92934.0,1810,2260,1849,5
92935.0,1806,2254,1850,5
92936.0,1807,2263,1852,5
92937.0,1805,2264,1851,5
92938.0,1800,2262,1849,5
92939.0,1807,2260,1845,5
92940.0,1799,2263,1845,5
92941.0,1802,2266,1851,5
92942.0,1811,2260,1851,5
92943.0,1804,2263,1849,5
92944.0,1805,2264,1853,5
92945.0,1802,2259,1845,5
92946.0,1808,2265,1849,5
92947.0,1799,2260,1847,5
92948.0,1804,2255,1846,5
92949.0,1808,2262,1852,5
92950.0,1804,2261,1854,5
92951.0,1799,2268,1847,5
92952.0,1805,2263,1846,5
92953.0,1802,2266,1846,5
92954.0,1802,2259,1849,5
92955.0,1802,2256,1853,5
92956.0,1799,2260,1858,5
92957.0,1805,2255,1852,5
92958.0,1806,2258,1848,5
92959.0,1805,2257,1854,5
92960.0,1804,2262,1851,5
92961.0,1807,2257,1851,5
92962.0,1796,2259,1854,5
92963.0,1797,2265,1854,5
92964.0,1807,2260,1847,5
92965.0,1802,2266,1849,5
92966.0,1802,2264,1853,5
92967.0,1796,2262,1851,5
92968.0,1800,2262,1853,5
92969.0,1797,2261,1849,5
92970.0,1806,2256,1846,5
92971.0,1800,2262,1853,5
92972.0,1799,2264,1848,5
92973.0,1799,2265,1854,5
92974.0,1803,2262,1855,5
92975.0,1801,2263,1849,5
92976.0,1800,2267,1848,5
92977.0,1804,2263,1845,5
92978.0,1797,2259,1849,5
92979.0,1802,2261,1843,5
92980.0,1803,2260,1847,5
92981.0,1799,2258,1850,5
92982.0,1810,2264,1845,5
92983.0,1799,2261,1851,5
92984.0,1806,2260,1843,5
92985.0,1800,2262,1849,5
92986.0,1808,2265,1847,5
92987.0,1807,2261,1852,5
92988.0,1802,2260,1850,5
92989.0,1805,2259,1846,5
92990.0,1805,2259,1846,5
92991.0,1803,2259,1847,5
92992.0,1802,2258,1850,5
92993.0,1799,2260,1853,5
92994.0,1803,2261,1849,5
92995.0,1801,2264,1853,5
92996.0,1804,2266,1854,5
92997.0,1803,2260,1853,5
92998.0,1805,2267,1853,5
92999.0,1803,2261,1850,5
93000.0,1799,2265,1846,5
93001.0,1807,2262,1850,5
93002.0,1803,2265,1849,5
93003.0,1801,2266,1849,5
93004.0,1805,2265,1850,5
93005.0,1807,2263,1850,5
93006.0,1798,2261,1852,5
93007.0,1802,2263,1848,5
93008.0,1807,2260,1849,5
93009.0,1805,2265,1849,5
93010.0,1807,2261,1843,5
93011.0,1799,2259,1854,5
93012.0,1800,2265,1849,5
93013.0,1803,2264,1848,5
93014.0,1810,2261,1846,5
93015.0,1804,2265,1848,5
93016.0,1803,2262,1850,5
93017.0,1808,2261,1845,5
93018.0,1803,2263,1847,5
93019.0,1803,2265,1847,5
93020.0,1808,2266,1848,5
93021.0,1804,2261,1843,5
93022.0,1795,2266,1853,5
93023.0,1803,2266,1847,5
93024.0,1804,2264,1851,5
93025.0,1804,2261,1850,5
93026.0,1806,2264,1851,5
93027.0,1809,2264,1849,5
93028.0,1804,2261,1849,5
93029.0,1799,2264,1850,5
93030.0,1806,2267,1849,5
93031.0,1808,2266,1847,5
93032.0,1808,2260,1848,5
93033.0,1811,2260,1854,5
93034.0,1805,2269,1850,5
93035.0,1808,2266,1851,5
93036.0,1804,2269,1846,5
93037.0,1809,2274,1847,5
93038.0,1807,2271,1847,5
93039.0,1807,2270,1849,5
93040.0,1803,2264,1853,5
93041.0,1803,2262,1852,5
93042.0,1808,2260,1850,5
93043.0,1801,2261,1850,5
93044.0,1809,2266,1850,5
93045.0,1806,2261,1845,5
93046.0,1806,2258,1842,5
93047.0,1800,2262,1845,5
93048.0,1803,2257,1851,5
93049.0,1805,2256,1842,5
93050.0,1810,2263,1846,5
93051.0,1812,2259,1843,5
93052.0,1809,2260,1846,5
93053.0,1807,2261,1848,5
93054.0,1801,2262,1848,5
93055.0,1806,2265,1847,5
93056.0,1800,2263,1848,5
93057.0,1802,2266,1845,5
93058.0,1804,2262,1847,5
93059.0,1806,2262,1846,5
93060.0,1810,2266,1850,5
93061.0,1808,2263,1852,5
93062.0,1800,2264,1846,5
93063.0,1806,2265,1843,5
93064.0,1799,2263,1848,5
93065.0,1804,2261,1850,5
93066.0,1807,2261,1855,5
93067.0,1802,2260,1849,5
93068.0,1807,2261,1851,5
93069.0,1802,2268,1854,5
93070.0,1804,2269,1853,5
93071.0,1801,2263,1847,5
93072.0,1806,2257,1854,5
93073.0,1806,2263,1851,5
93074.0,1800,2265,1853,5
93075.0,1800,2269,1855,5
93076.0,1804,2265,1854,5
93077.0,1801,2268,1854,5
93078.0,1804,2267,1852,5
93079.0,1799,2267,1853,5
93080.0,1808,2267,1856,5
93081.0,1810,2269,1857,5
93082.0,1811,2267,1851,5
93083.0,1800,2266,1851,5
93084.0,1807,2263,1853,5
93085.0,1807,2263,1849,5
93086.0,1802,2261,1853,5
93087.0,1807,2261,1850,5
93088.0,1800,2260,1849,5
93089.0,1803,2259,1849,5
93090.0,1808,2262,1850,5
93091.0,1803,2270,1846,5
93092.0,1809,2268,1852,5
93093.0,1804,2255,1849,5
93094.0,1801,2259,1852,5
93095.0,1804,2261,1854,5
93096.0,1802,2256,1853,5
93097.0,1793,2263,1851,5
93098.0,1809,2261,1850,5
93099.0,1800,2259,1853,5
93100.0,1806,2266,1849,5
93101.0,1801,2262,1852,5
93102.0,1803,2261,1852,5
93103.0,1806,2266,1847,5
93104.0,1805,2266,1856,5
93105.0,1806,2261,1850,5
93106.0,1803,2263,1856,5
93107.0,1803,2266,1849,5
93108.0,1803,2264,1857,5
93109.0,1803,2264,1851,5
93110.0,1802,2259,1853,5
93111.0,1799,2264,1852,5
93112.0,1799,2265,1849,5
93113.0,1801,2262,1851,5
93114.0,1804,2270,1853,5
93115.0,1801,2264,1850,5
93116.0,1804,2265,1851,5
93117.0,1808,2262,1847,5
93118.0,1803,2264,1852,5
93119.0,1802,2267,1854,5
93120.0,1799,2261,1847,5
93121.0,1801,2265,1850,5
93122.0,1808,2267,1848,5
93123.0,1803,2266,1847,5
93124.0,1799,2263,1849,5
93125.0,1804,2263,1850,5
93126.0,1808,2263,1846,5
93127.0,1806,2265,1846,5
93128.0,1805,2264,1847,5
93129.0,1801,2261,1851,5
93130.0,1805,2263,1850,5
93131.0,1807,2258,1851,5
93132.0,1808,2267,1851,5
93133.0,1804,2265,1853,5
93134.0,1801,2264,1848,5
93135.0,1801,2264,1849,5
93136.0,1803,2259,1853,5
93137.0,1803,2263,1858,5
93138.0,1801,2267,1852,5
93139.0,1803,2260,1850,5
93140.0,1804,2258,1850,5
93141.0,1803,2266,1853,5
93142.0,1809,2262,1853,5
93143.0,1810,2271,1847,5
93144.0,1807,2272,1849,5
93145.0,1805,2268,1855,5
93146.0,1804,2263,1852,5
93147.0,1799,2263,1850,5
93148.0,1805,2265,1847,5
93149.0,1809,2264,1850,5
93150.0,1806,2263,1855,5
93151.0,1800,2263,1847,5
93152.0,1806,2264,1849,5
93153.0,1805,2266,1849,5
93154.0,1808,2266,1850,5
93155.0,1806,2267,1850,5
93156.0,1805,2260,1851,5
93157.0,1807,2261,1851,5
93158.0,1803,2266,1848,5
93159.0,1805,2264,1853,5
93160.0,1806,2259,1848,5
93161.0,1807,2257,1847,5
93162.0,1806,2265,1846,5
93163.0,1805,2267,1843,5
93164.0,1805,2264,1852,5
93165.0,1807,2262,1851,5
93166.0,1807,2267,1854,5
93167.0,1801,2267,1847,5
93168.0,1806,2267,1851,5
93169.0,1804,2268,1850,5
93170.0,1805,2267,1851,5
93171.0,1806,2263,1852,5
93172.0,1806,2269,1845,5
93173.0,1809,2260,1847,5
93174.0,1809,2265,1849,5
93175.0,1811,2270,1849,5
93176.0,1810,2268,1850,5
93177.0,1813,2266,1847,5
93178.0,1803,2267,1852,5
93179.0,1804,2266,1849,5
93180.0,1805,2270,1849,5
93181.0,1809,2266,1848,5
93182.0,1809,2268,1850,5
93183.0,1801,2267,1850,5
93184.0,1803,2265,1846,5
93185.0,1813,2266,1847,5
93186.0,1805,2270,1854,5
93187.0,1803,2268,1853,5
93188.0,1810,2263,1845,5
93189.0,1802,2265,1848,5
93190.0,1808,2261,1846,5
93191.0,1807,2266,1850,5
93192.0,1804,2260,1848,5
93193.0,1803,2269,1851,5
93194.0,1807,2267,1851,5
93195.0,1802,2264,1855,5
93196.0,1806,2264,1850,5
93197.0,1806,2266,1852,5
93198.0,1811,2269,1852,5
93199.0,1805,2269,1853,5
93200.0,1806,2261,1848,5
93201.0,1807,2271,1851,5
93202.0,1806,2271,1852,5
93203.0,1808,2271,1848,5
93204.0,1806,2268,1852,5
93205.0,1804,2265,1852,5
93206.0,1800,2266,1855,5
93207.0,1809,2269,1848,5
93208.0,1808,2266,1848,5
93209.0,1808,2266,1850,5
93210.0,1806,2264,1849,5
93211.0,1805,2267,1847,5
93212.0,1802,2266,1852,5
93213.0,1809,2263,1849,5
93214.0,1806,2259,1851,5
93215.0,1811,2268,1852,5
93216.0,1807,2266,1847,5
93217.0,1810,2271,1845,5
93218.0,1809,2265,1850,5
93219.0,1809,2269,1853,5
93220.0,1804,2271,1849,5
93221.0,1811,2268,1848,5
93222.0,1810,2267,1850,5
93223.0,1808,2265,1848,5
93224.0,1807,2265,1851,5
93225.0,1806,2270,1854,5
93226.0,1805,2266,1847,5
93227.0,1809,2264,1850,5
93228.0,1807,2268,1853,5
93229.0,1805,2264,1849,5
93230.0,1815,2264,1850,5
93231.0,1808,2272,1844,5
93232.0,1810,2267,1848,5
93233.0,1802,2272,1849,5
93234.0,1805,2266,1847,5
93235.0,1813,2269,1851,5
93236.0,1805,2268,1848,5
93237.0,1809,2265,1851,5
93238.0,1808,2262,1846,5
93239.0,1808,2270,1842,5
93240.0,1805,2267,1851,5
93241.0,1805,2274,1847,5
93242.0,1815,2260,1847,5
93243.0,1803,2262,1846,5
93244.0,1808,2268,1845,5
93245.0,1802,2266,1850,5
93246.0,1804,2268,1847,5
93247.0,1809,2262,1852,5
93248.0,1803,2271,1852,5
93249.0,1800,2262,1849,5
93250.0,1807,2271,1854,5
93251.0,1807,2261,1852,5
93252.0,1809,2264,1847,5
93253.0,1806,2261,1853,5
93254.0,1811,2263,1850,5
93255.0,1806,2265,1846,5
93256.0,1810,2267,1852,5
93257.0,1809,2262,1850,5
93258.0,1805,2264,1848,5
93259.0,1807,2267,1848,5
93260.0,1809,2265,1849,5
93261.0,1807,2265,1846,5
93262.0,1808,2266,1850,5
93263.0,1807,2265,1846,5
93264.0,1805,2263,1848,5
93265.0,1805,2262,1849,5
93266.0,1803,2268,1846,5
93267.0,1803,2261,1850,5
93268.0,1803,2270,1846,5
93269.0,1807,2271,1850,5
93270.0,1807,2262,1850,5
93271.0,1807,2263,1852,5
93272.0,1806,2263,1843,5
93273.0,1805,2263,1851,5
93274.0,1807,2266,1850,5
93275.0,1805,2266,1849,5
93276.0,1809,2273,1852,5
93277.0,1809,2267,1846,5
93278.0,1802,2271,1848,5
93279.0,1803,2268,1839,5
93280.0,1809,2267,1849,5
93281.0,1806,2267,1846,5
93282.0,1802,2263,1848,5
93283.0,1804,2266,1851,5
93284.0,1803,2261,1849,5
93285.0,1805,2267,1849,5
93286.0,1806,2264,1845,5
93287.0,1809,2267,1848,5
93288.0,1808,2256,1850,5
93289.0,1811,2268,1854,5
93290.0,1806,2262,1850,5
93291.0,1809,2262,1853,5
93292.0,1811,2258,1854,5
93293.0,1810,2268,1849,5
93294.0,1799,2264,1849,5
93295.0,1807,2264,1851,5
93296.0,1808,2268,1849,5
93297.0,1802,2269,1854,5
93298.0,1804,2270,1848,5
93299.0,1804,2266,1851,5
93300.0,1809,2268,1852,5
93301.0,1802,2261,1850,5
93302.0,1797,2270,1850,5
93303.0,1800,2266,1848,5
93304.0,1811,2263,1847,5
93305.0,1808,2266,1850,5
93306.0,1806,2262,1847,5
93307.0,1805,2265,1846,5
93308.0,1809,2267,1849,5
93309.0,1803,2264,1849,5
93310.0,1808,2259,1850,5
93311.0,1803,2258,1854,5
93312.0,1805,2259,1850,5
93313.0,1807,2265,1851,5
93314.0,1803,2266,1847,5
93315.0,1804,2256,1847,5
93316.0,1803,2260,1847,5
93317.0,1808,2262,1847,5
93318.0,1809,2265,1848,5
93319.0,1802,2259,1843,5
93320.0,1809,2267,1848,5
93321.0,1806,2264,1848,5
93322.0,1804,2265,1846,5
93323.0,1801,2267,1852,5
93324.0,1805,2267,1847,5
93325.0,1811,2265,1853,5
93326.0,1800,2265,1849,5
93327.0,1803,2261,1845,5
93328.0,1800,2264,1849,5
93329.0,1807,2264,1853,5
93330.0,1803,2257,1848,5
93331.0,1805,2262,1847,5
93332.0,1806,2267,1851,5
93333.0,1804,2264,1851,5
93334.0,1805,2265,1850,5
93335.0,1810,2265,1850,5
93336.0,1812,2264,1853,5
93337.0,1803,2265,1848,5
93338.0,1803,2268,1851,5
93339.0,1805,2265,1851,5
93340.0,1803,2266,1851,5
93341.0,1802,2263,1853,5
93342.0,1801,2269,1847,5
93343.0,1812,2266,1849,5
93344.0,1806,2270,1848,5
93345.0,1805,2267,1851,5
93346.0,1807,2268,1851,5
93347.0,1805,2268,1848,5
93348.0,1815,2265,1848,5
93349.0,1808,2264,1847,5
93350.0,1802,2268,1850,5
93351.0,1807,2269,1843,5
93352.0,1809,2270,1848,5
93353.0,1805,2261,1849,5
93354.0,1813,2263,1852,5
93355.0,1807,2264,1845,5
93356.0,1804,2267,1847,5
93357.0,1806,2266,1849,5
93358.0,1807,2263,1848,5
93359.0,1805,2267,1847,5
93360.0,1808,2263,1846,5
93361.0,1808,2270,1848,5
93362.0,1808,2266,1850,5
93363.0,1812,2267,1846,5
93364.0,1803,2265,1847,5
93365.0,1810,2261,1850,5
93366.0,1802,2266,1849,5
93367.0,1805,2266,1854,5
93368.0,1809,2263,1847,5
93369.0,1805,2271,1845,5
93370.0,1810,2267,1844,5
93371.0,1810,2265,1846,5
93372.0,1802,2261,1851,5
93373.0,1806,2263,1856,5
93374.0,1809,2269,1846,5
93375.0,1808,2266,1850,5
93376.0,1808,2267,1842,5
93377.0,1810,2263,1853,5
93378.0,1808,2263,1851,5
93379.0,1807,2269,1846,5
93380.0,1805,2261,1847,5
93381.0,1803,2269,1850,5
93382.0,1808,2263,1847,5
93383.0,1807,2266,1847,5
93384.0,1806,2270,1847,5
93385.0,1812,2269,1852,5
93386.0,1808,2266,1854,5
93387.0,1808,2266,1848,5
93388.0,1803,2263,1847,5
93389.0,1810,2263,1849,5
93390.0,1806,2271,1846,5
93391.0,1807,2271,1849,5
93392.0,1811,2264,1850,5
93393.0,1809,2258,1849,5
93394.0,1806,2263,1848,5
93395.0,1803,2271,1845,5
93396.0,1802,2268,1845,5
93397.0,1807,2266,1848,5
93398.0,1807,2262,1851,5
93399.0,1807,2265,1848,5
93400.0,1811,2271,1851,5
93401.0,1807,2263,1853,5
93402.0,1801,2263,1850,5
93403.0,1804,2260,1844,5
93404.0,1811,2266,1847,5
93405.0,1806,2267,1848,5
93406.0,1803,2264,1846,5
93407.0,1809,2268,1845,5
93408.0,1807,2260,1846,5
93409.0,1804,2267,1851,5
93410.0,1807,2267,1853,5
93411.0,1803,2262,1854,5
93412.0,1811,2267,1846,5
93413.0,1809,2263,1844,5
93414.0,1801,2263,1847,5
93415.0,1803,2263,1850,5
93416.0,1799,2267,1854,5
93417.0,1805,2260,1851,5
93418.0,1805,2263,1850,5
93419.0,1804,2264,1847,5
93420.0,1808,2263,1849,5
93421.0,1805,2265,1848,5
93422.0,1804,2265,1850,5
93423.0,1805,2267,1848,5
93424.0,1799,2258,1846,5
93425.0,1802,2267,1847,5
93426.0,1804,2267,1852,5
93427.0,1809,2265,1853,5
93428.0,1805,2263,1847,5
93429.0,1810,2267,1844,5
93430.0,1806,2266,1845,5
93431.0,1802,2265,1844,5
93432.0,1801,2262,1857,5
93433.0,1804,2266,1854,5
93434.0,1812,2263,1851,5
93435.0,1800,2263,1849,5
93436.0,1803,2265,1848,5
93437.0,1807,2266,1851,5
93438.0,1807,2265,1854,5
93439.0,1807,2266,1847,5
93440.0,1804,2260,1849,5
93441.0,1808,2262,1850,5
93442.0,1797,2263,1849,5
93443.0,1802,2268,1847,5
93444.0,1810,2264,1847,5
93445.0,1805,2260,1851,5
93446.0,1810,2270,1847,5
93447.0,1809,2262,1850,5
93448.0,1807,2263,1848,5
93449.0,1799,2261,1847,5
93450.0,1805,2261,1848,5
93451.0,1808,2267,1853,5
93452.0,1808,2261,1852,5
93453.0,1811,2262,1851,5
93454.0,1803,2264,1846,5
93455.0,1806,2266,1848,5
93456.0,1811,2265,1850,5
93457.0,1807,2259,1848,5
93458.0,1802,2262,1848,5
93459.0,1807,2263,1849,5
93460.0,1802,2261,1849,5
93461.0,1807,2263,1842,5
93462.0,1801,2265,1847,5
93463.0,1806,2268,1848,5
93464.0,1809,2263,1845,5
93465.0,1808,2260,1847,5
93466.0,1805,2265,1849,5
93467.0,1806,2261,1851,5
93468.0,1811,2261,1844,5
93469.0,1811,2268,1847,5
93470.0,1802,2265,1849,5
93471.0,1806,2263,1848,5
93472.0,1801,2261,1849,5
93473.0,1805,2266,1845,5
93474.0,1804,2260,1851,5
93475.0,1801,2261,1853,5
93476.0,1807,2260,1848,5
93477.0,1807,2262,1852,5
93478.0,1807,2267,1846,5
93479.0,1808,2265,1849,5
93480.0,1801,2262,1851,5
93481.0,1809,2262,1841,5
93482.0,1804,2267,1850,5
93483.0,1807,2265,1847,5
93484.0,1804,2263,1853,5
93485.0,1800,2263,1847,5
93486.0,1801,2266,1847,5
93487.0,1807,2262,1847,5
93488.0,1807,2262,1849,5
93489.0,1801,2261,1844,5
93490.0,1805,2261,1852,5
93491.0,1806,2265,1851,5
93492.0,1806,2265,1852,5
93493.0,1807,2261,1848,5
93494.0,1803,2265,1846,5
93495.0,1801,2267,1851,5
93496.0,1799,2267,1845,5
93497.0,1805,2261,1843,5
93498.0,1804,2266,1854,5
93499.0,1803,2263,1852,5
93500.0,1797,2262,1852,5
93501.0,1799,2263,1850,5
93502.0,1799,2263,1847,5
93503.0,1798,2263,1847,5
93504.0,1802,2264,1847,5
93505.0,1801,2263,1855,5
93506.0,1803,2263,1849,5
93507.0,1807,2264,1849,5
93508.0,1806,2264,1848,5
93509.0,1806,2266,1853,5
93510.0,1802,2262,1853,5
93511.0,1805,2263,1845,5
93512.0,1805,2265,1853,5
93513.0,1803,2264,1852,5
93514.0,1803,2263,1852,5
93515.0,1803,2262,1848,5
93516.0,1807,2263,1849,5
93517.0,1807,2265,1852,5
93518.0,1800,2263,1849,5
93519.0,1806,2261,1848,5
93520.0,1803,2267,1846,5
93521.0,1807,2257,1849,5
93522.0,1803,2256,1851,5
93523.0,1805,2263,1849,5
93524.0,1805,2261,1852,5
93525.0,1803,2265,1855,5
93526.0,1805,2263,1849,5
93527.0,1808,2265,1852,5
93528.0,1806,2266,1851,5
93529.0,1803,2260,1851,5
93530.0,1803,2265,1852,5
93531.0,1806,2264,1850,5
93532.0,1800,2263,1850,5
93533.0,1800,2267,1852,5
93534.0,1795,2261,1850,5
93535.0,1804,2267,1851,5
93536.0,1801,2262,1858,5
93537.0,1805,2260,1848,5
93538.0,1803,2267,1850,5
93539.0,1807,2268,1849,5
93540.0,1803,2263,1850,5
93541.0,1801,2265,1848,5
93542.0,1803,2267,1849,5
93543.0,1808,2264,1853,5
93544.0,1805,2267,1848,5
93545.0,1802,2262,1849,5
93546.0,1806,2263,1852,5
93547.0,1806,2265,1851,5
93548.0,1803,2263,1851,5
93549.0,1803,2267,1848,5
93550.0,1807,2267,1843,5
93551.0,1806,2260,1851,5
93552.0,1803,2266,1852,5
93553.0,1805,2260,1851,5
93554.0,1807,2261,1851,5
93555.0,1806,2266,1850,5
93556.0,1807,2264,1849,5
93557.0,1808,2263,1844,5
93558.0,1806,2263,1850,5
93559.0,1807,2264,1855,5
93560.0,1805,2259,1850,5
93561.0,1805,2265,1848,5
93562.0,1803,2260,1845,5
93563.0,1811,2262,1846,5
93564.0,1808,2263,1850,5
93565.0,1803,2266,1849,5
93566.0,1805,2264,1852,5
93567.0,1807,2265,1849,5
93568.0,1803,2266,1846,5
93569.0,1803,2263,1852,5
93570.0,1806,2265,1850,5
93571.0,1800,2265,1852,5
93572.0,1806,2263,1848,5
93573.0,1806,2263,1845,5
93574.0,1806,2266,1850,5
93575.0,1807,2266,1850,5
93576.0,1803,2268,1852,5
93577.0,1802,2264,1855,5
93578.0,1808,2264,1847,5
93579.0,1807,2268,1850,5
93580.0,1805,2266,1853,5
93581.0,1811,2260,1850,5
93582.0,1808,2259,1851,5
93583.0,1805,2265,1853,5
93584.0,1802,2261,1846,5
93585.0,1804,2266,1842,5
93586.0,1811,2268,1847,5
93587.0,1806,2264,1846,5
93588.0,1807,2261,1850,5
93589.0,1806,2266,1843,5
93590.0,1808,2261,1852,5
93591.0,1805,2265,1850,5
93592.0,1799,2264,1849,5
93593.0,1804,2261,1848,5
93594.0,1807,2266,1851,5
93595.0,1806,2264,1849,5
93596.0,1803,2263,1846,5
93597.0,1807,2261,1849,5
93598.0,1807,2264,1847,5
93599.0,1802,2266,1848,5
93600.0,1795,2266,1848,5
93601.0,1803,2265,1852,5
93602.0,1803,2267,1852,5
93603.0,1796,2261,1847,5
93604.0,1800,2263,1851,5
93605.0,1803,2263,1851,5
93606.0,1802,2263,1852,5
93607.0,1806,2265,1852,5
93608.0,1800,2261,1854,5
93609.0,1805,2264,1852,5
93610.0,1806,2267,1849,5
93611.0,1803,2262,1854,5
93612.0,1800,2257,1854,5
93613.0,1805,2263,1859,5
93614.0,1806,2263,1851,5
93615.0,1805,2265,1843,5
93616.0,1809,2261,1850,5
93617.0,1799,2261,1851,5
93618.0,1805,2268,1851,5
93619.0,1802,2264,1851,5
93620.0,1804,2259,1847,5
93621.0,1800,2262,1852,5
93622.0,1801,2259,1852,5
93623.0,1801,2261,1847,5
93624.0,1804,2265,1847,5
93625.0,1804,2265,1849,5
93626.0,1799,2268,1848,5
93627.0,1805,2265,1854,5
93628.0,1803,2264,1853,5
93629.0,1801,2262,1852,5
93630.0,1807,2266,1852,5
93631.0,1801,2266,1850,5
93632.0,1806,2268,1847,5
93633.0,1803,2265,1843,5
93634.0,1808,2266,1843,5
93635.0,1804,2264,1853,5
93636.0,1805,2266,1851,5
93637.0,1803,2262,1842,5
93638.0,1809,2268,1848,5
93639.0,1804,2263,1849,5
93640.0,1807,2265,1846,5
93641.0,1806,2263,1852,5
93642.0,1803,2265,1848,5
93643.0,1804,2271,1847,5
93644.0,1804,2267,1846,5
93645.0,1814,2263,1846,5
93646.0,1812,2263,1849,5
93647.0,1815,2267,1848,5
93648.0,1812,2271,1850,5
93649.0,1813,2270,1847,5
93650.0,1815,2278,1844,5
93651.0,1807,2271,1844,5
93652.0,1812,2270,1846,5
93653.0,1808,2267,1851,5
93654.0,1812,2269,1853,5
93655.0,1816,2272,1853,5
93656.0,1823,2265,1855,5
93657.0,1820,2262,1851,5
93658.0,1823,2259,1848,5
93659.0,1818,2253,1841,5
93660.0,1825,2253,1842,5
93661.0,1821,2253,1831,5
93662.0,1819,2249,1827,5
93663.0,1820,2239,1828,5
93664.0,1815,2247,1825,5
93665.0,1817,2235,1815,5
93666.0,1819,2229,1817,5
93667.0,1811,2223,1817,5
93668.0,1810,2221,1814,5
93669.0,1803,2220,1816,5
93670.0,1802,2255,1821,5
93671.0,1796,2253,1821,5
93672.0,1789,2258,1829,5
93673.0,1795,2259,1819,5
93674.0,1803,2254,1817,5
93675.0,1802,2261,1816,5
93676.0,1808,2258,1811,5
93677.0,1809,2260,1814,5
93678.0,1804,2247,1803,5
93679.0,1815,2243,1805,5
93680.0,1814,2229,1797,5
93681.0,1812,2219,1791,5
93682.0,1814,2206,1785,5
93683.0,1800,2205,1793,5
93684.0,1800,2196,1799,5
93685.0,1796,2229,1817,5
93686.0,1775,2252,1817,5
93687.0,1762,2271,1825,5
93688.0,1756,2288,1834,5
93689.0,1743,2295,1852,5
93690.0,1745,2286,1867,5
93691.0,1749,2275,1883,5
93692.0,1751,2253,1899,5
93693.0,1742,2244,1923,5
93694.0,1734,2246,1940,5
93695.0,1734,2262,1952,5
93696.0,1745,2276,1951,5
93697.0,1740,2286,1943,5
93698.0,1733,2303,1930,5
93699.0,1747,2323,1917,5
93700.0,1765,2335,1918,5
93701.0,1784,2316,1928,5
93702.0,1790,2289,1934,5
93703.0,1809,2274,1940,5
93704.0,1814,2250,1937,5
93705.0,1818,2238,1922,5
93706.0,1828,2234,1907,5
93707.0,1839,2232,1891,5
93708.0,1844,2239,1881,5
93709.0,1846,2247,1869,5
93710.0,1847,2255,1871,5
93711.0,1846,2265,1871,5
93712.0,1851,2270,1879,5
93713.0,1847,2274,1889,5
93714.0,1835,2279,1891,5
93715.0,1823,2286,1874,5
93716.0,1805,2296,1861,5
93717.0,1781,2301,1856,5
93718.0,1779,2324,1838,5
93719.0,1793,2377,1830,5
93720.0,1762,2385,1822,5
93721.0,1744,2363,1793,5
93722.0,1700,2323,1758,5
93723.0,1665,2307,1768,5
93724.0,1680,2263,1799,5
93725.0,1713,2187,1836,5
93726.0,1728,2135,1875,5
93727.0,1767,2114,1897,5
93728.0,1800,2105,1868,5
93729.0,1803,2129,1842,5
93730.0,1807,2172,1838,5
93731.0,1804,2231,1857,5
93732.0,1808,2270,1860,5
93733.0,1806,2289,1832,5
93734.0,1797,2260,1846,5
93735.0,1791,2212,1856,5
93736.0,1787,2191,1856,5
93737.0,1791,2173,1862,5
93738.0,1803,2182,1856,5
93739.0,1837,2202,1839,5
93740.0,1846,2226,1828,5
93741.0,1860,2221,1826,5
93742.0,1854,2223,1830,5
93743.0,1847,2226,1837,5
93744.0,1832,2211,1840,5
93745.0,1831,2193,1837,5
93746.0,1814,2218,1847,5
93747.0,1773,2217,1835,5
93748.0,1749,2263,1804,5
93749.0,1721,2320,1819,5
93750.0,1713,2363,1805,5
93751.0,1708,2435,1830,5
93752.0,1659,2418,1853,5
93753.0,1677,2337,1837,5
93754.0,1681,2256,1822,5
93755.0,1693,2191,1864,5
93756.0,1704,2164,1924,5
93757.0,1689,2148,1955,5
93758.0,1654,2163,1992,5
93759.0,1612,2206,2001,5
93760.0,1656,2259,1982,5
93761.0,1743,2297,1910,5
93762.0,1775,2344,1860,5
93763.0,1772,2291,1859,5
93764.0,1787,2259,1874,5
93765.0,1836,2246,1876,5
93766.0,1819,2279,1921,5
93767.0,1851,2229,1927,5
93768.0,1852,2181,1962,5
93769.0,1837,2194,1960,5
93770.0,1828,2203,1963,5
93771.0,1819,2223,1941,5
93772.0,1821,2271,1901,5
93773.0,1836,2331,1861,5
93774.0,1832,2354,1839,5
93775.0,1817,2347,1819,5
93776.0,1795,2331,1801,5
93777.0,1759,2340,1774,5
93778.0,1726,2345,1792,5
93779.0,1729,2359,1793,5
93780.0,1697,2363,1840,5
93781.0,1676,2293,1877,5
93782.0,1684,2196,1859,5
93783.0,1696,2134,1795,5
93784.0,1702,2137,1751,5
93785.0,1711,2141,1771,5
93786.0,1701,2131,1776,5
93787.0,1712,2185,1781,5
93788.0,1733,2267,1795,5
93789.0,1764,2292,1834,5
93790.0,1795,2279,1854,5
93791.0,1823,2258,1895,5
93792.0,1842,2199,1956,5
93793.0,1872,2175,1957,5
93794.0,1884,2133,1977,5
93795.0,1886,2116,1977,5
93796.0,1879,2122,1997,5
93797.0,1858,2125,1963,5
93798.0,1866,2147,1937,5
93799.0,1881,2171,1880,5
93800.0,1831,2239,1853,5
93801.0,1784,2317,1808,5
93802.0,1710,2366,1754,5
93803.0,1696,2384,1737,5
93804.0,1667,2399,1709,5
93805.0,1638,2387,1710,5
93806.0,1569,2343,1661,5
93807.0,1534,2295,1759,5
93808.0,1582,2316,1942,5
93809.0,1642,2193,1996,5
93810.0,1741,2182,2009,5
93811.0,1814,2205,1989,5
93812.0,1788,2229,1935,5
93813.0,1733,2246,1899,5
93814.0,1738,2327,1821,5
93815.0,1746,2298,1784,5
93816.0,1730,2319,1791,5
93817.0,1761,2267,1842,5
93818.0,1816,2219,1920,5
93819.0,1848,2199,1992,5
93820.0,1903,2164,1994,5
93821.0,1923,2139,2002,5
93822.0,1920,2113,1982,5
93823.0,1890,2121,1981,5
93824.0,1874,2141,1937,5
93825.0,1850,2192,1877,5
93826.0,1838,2271,1827,5
93827.0,1815,2339,1788,5
93828.0,1801,2382,1798,5
93829.0,1775,2363,1843,5
93830.0,1757,2325,1848,5
93831.0,1692,2308,1852,5
93832.0,1663,2284,1840,5
93833.0,1686,2239,1779,5
93834.0,1730,2208,1772,5
93835.0,1725,2180,1787,5
93836.0,1715,2190,1781,5
93837.0,1691,2192,1747,5
93838.0,1683,2213,1749,5
93839.0,1716,2247,1788,5
93840.0,1784,2195,1967,5
93841.0,1788,2198,1969,5
93842.0,1809,2215,1986,5
93843.0,1865,2167,1987,5
93844.0,1867,2128,1971,5
93845.0,1879,2099,1988,5
93846.0,1883,2099,1979,5
93847.0,1885,2115,1959,5
93848.0,1918,2124,1924,5
93849.0,1894,2158,1894,5
93850.0,1845,2198,1862,5
93851.0,1791,2262,1809,5
93852.0,1728,2356,1748,5
93853.0,1703,2393,1682,5
93854.0,1705,2353,1654,5
93855.0,1677,2313,1655,5
93856.0,1587,2300,1681,5
93857.0,1522,2273,1712,5
93858.0,1486,2228,1889,5
93859.0,1596,2223,2012,5
93860.0,1667,2135,1971,5
93861.0,1735,2097,1940,5
93862.0,1743,2113,1922,5
93863.0,1679,2172,1894,5
93864.0,1621,2240,1825,5
93865.0,1621,2283,1778,5
93866.0,1601,2288,1822,5
93867.0,1642,2361,1929,5
93868.0,1748,2297,1997,5
93869.0,1737,2285,1932,5
93870.0,1830,2211,1945,5
93871.0,1858,2154,1954,5
93872.0,1882,2118,1945,5
93873.0,1898,2063,1972,5
93874.0,1895,2079,1939,5
93875.0,1882,2087,1932,5
93876.0,1872,2111,1959,5
93877.0,1865,2202,1970,5
93878.0,1869,2291,1949,5
93879.0,1839,2328,1932,5
93880.0,1786,2343,1896,5
93881.0,1730,2330,1890,5
93882.0,1697,2335,1857,5
93883.0,1625,2332,1863,5
93884.0,1589,2296,1855,5
93885.0,1632,2245,1762,5
93886.0,1679,2205,1756,5
93887.0,1668,2122,1801,5
93888.0,1672,2149,1794,5
93889.0,1657,2167,1832,5
93890.0,1686,2206,1866,5
93891.0,1707,2248,1888,5
93892.0,1748,2279,1897,5
93893.0,1785,2276,1886,5
93894.0,1776,2282,1926,5
93895.0,1796,2210,1939,5
93896.0,1827,2160,1933,5
93897.0,1854,2121,1934,5
93898.0,1864,2099,1918,5
93899.0,1837,2128,1940,5
93900.0,1852,2132,1944,5
93901.0,1852,2186,1943,5
93902.0,1841,2212,1937,5
93903.0,1808,2231,1911,5
93904.0,1771,2267,1896,5
93905.0,1759,2315,1839,5
93906.0,1719,2347,1799,5
93907.0,1714,2337,1756,5
93908.0,1686,2323,1777,5
93909.0,1594,2289,1798,5
93910.0,1592,2244,1846,5
93911.0,1663,2272,1914,5
93912.0,1677,2295,1982,5
93913.0,1635,2267,2013,5
93914.0,1671,2265,2043,5
93915.0,1710,2266,1961,5
93916.0,1725,2316,1879,5
93917.0,1755,2324,1830,5
93918.0,1751,2315,1786,5
93919.0,1738,2272,1772,5
93920.0,1751,2273,1837,5
93921.0,1756,2239,1882,5
93922.0,1825,2198,1947,5
93923.0,1857,2175,1990,5
93924.0,1885,2165,2003,5
93925.0,1905,2150,1999,5
93926.0,1932,2147,1977,5
93927.0,1929,2139,1962,5
93928.0,1911,2151,1949,5
93929.0,1913,2179,1917,5
93930.0,1884,2223,1900,5
93931.0,1838,2282,1859,5
93932.0,1803,2336,1830,5
93933.0,1779,2393,1819,5
93934.0,1764,2412,1831,5
93935.0,1737,2433,1789,5
93936.0,1678,2414,1777,5
93937.0,1666,2353,1789,5
93938.0,1721,2285,1783,5
93939.0,1739,2214,1786,5
93940.0,1728,2160,1809,5
93941.0,1730,2148,1843,5
93942.0,1723,2158,1861,5
93943.0,1726,2218,1837,5
93944.0,1768,2257,1844,5
93945.0,1793,2296,1849,5
93946.0,1807,2292,1862,5
93947.0,1824,2232,1882,5
93948.0,1818,2225,1875,5
93949.0,1854,2179,1919,5
93950.0,1894,2141,1919,5
93951.0,1884,2103,1929,5
93952.0,1895,2086,1941,5
93953.0,1904,2107,1956,5
93954.0,1863,2139,1950,5
93955.0,1859,2167,1879,5
93956.0,1805,2240,1851,5
93957.0,1744,2302,1809,5
93958.0,1688,2352,1787,5
93959.0,1674,2375,1769,5
93960.0,1711,2370,1756,5
93961.0,1716,2350,1760,5
93962.0,1619,2331,1771,5
93963.0,1565,2303,1765,5
93964.0,1613,2288,1815,5
93965.0,1651,2300,1921,5
93966.0,1657,2243,1978,5
93967.0,1670,2253,2048,5
93968.0,1729,2264,2004,5
93969.0,1761,2262,1933,5
93970.0,1797,2269,1906,5
93971.0,1768,2298,1850,5
93972.0,1738,2247,1789,5
93973.0,1737,2258,1804,5
93974.0,1762,2205,1858,5
93975.0,1818,2197,1906,5
93976.0,1874,2188,1954,5
93977.0,1907,2159,1990,5
93978.0,1927,2135,1984,5
93979.0,1928,2142,1947,5
93980.0,1923,2148,1950,5
93981.0,1898,2153,1950,5
93982.0,1884,2202,1928,5
93983.0,1857,2261,1876,5
93984.0,1814,2296,1821,5
93985.0,1785,2353,1792,5
93986.0,1750,2406,1790,5
93987.0,1742,2401,1813,5
93988.0,1733,2386,1803,5
93989.0,1698,2382,1799,5
93990.0,1661,2357,1803,5
93991.0,1663,2323,1785,5
93992.0,1715,2272,1776,5
93993.0,1747,2217,1798,5
93994.0,1747,2155,1822,5
93995.0,1760,2139,1850,5
93996.0,1752,2144,1856,5
93997.0,1751,2163,1843,5
93998.0,1776,2214,1830,5
93999.0,1794,2280,1832,5
94000.0,1785,2291,1829,5
94001.0,1807,2283,1853,5
94002.0,1832,2202,1921,5
94003.0,1855,2175,1913,5
94004.0,1910,2124,1946,5
94005.0,1895,2105,1933,5
94006.0,1886,2109,1926,5
94007.0,1872,2123,1927,5
94008.0,1848,2178,1929,5
94009.0,1817,2236,1913,5
94010.0,1714,2360,1788,5
94011.0,1714,2358,1786,5
94012.0,1711,2362,1758,5
94013.0,1745,2345,1737,5
94014.0,1713,2303,1755,5
94015.0,1601,2275,1753,5
94016.0,1574,2265,1818,5
94017.0,1630,2293,1917,5
94018.0,1671,2259,1980,5
94019.0,1659,2256,2011,5
94020.0,1707,2271,2011,5
94021.0,1739,2269,1922,5
94022.0,1763,2277,1883,5
94023.0,1792,2285,1851,5
94024.0,1748,2270,1783,5
94025.0,1714,2327,1835,5
94026.0,1713,2260,1870,5
94027.0,1760,2215,1913,5
94028.0,1824,2202,1938,5
94029.0,1876,2162,1981,5
94030.0,1915,2152,1994,5
94031.0,1943,2141,1983,5
94032.0,1935,2126,1967,5
94033.0,1909,2122,1950,5
94034.0,1881,2181,1912,5
94035.0,1857,2240,1861,5
94036.0,1823,2279,1835,5
94037.0,1790,2321,1832,5
94038.0,1775,2350,1863,5
94039.0,1778,2375,1863,5
94040.0,1755,2381,1821,5
94041.0,1742,2372,1786,5
94042.0,1688,2353,1788,5
94043.0,1651,2316,1785,5
94044.0,1689,2306,1767,5
94045.0,1744,2275,1760,5
94046.0,1736,2160,1796,5
94047.0,1703,2134,1827,5
94048.0,1694,2118,1782,5
94049.0,1716,2133,1792,5
94050.0,1748,2179,1783,5
94051.0,1789,2226,1780,5
94052.0,1809,2239,1808,5
94053.0,1827,2227,1846,5
94054.0,1836,2229,1876,5
94055.0,1828,2185,1951,5
94056.0,1852,2157,1962,5
94057.0,1891,2123,1951,5
94058.0,1902,2089,1935,5
94059.0,1888,2113,1925,5
94060.0,1868,2130,1893,5
94061.0,1849,2170,1868,5
94062.0,1799,2204,1822,5
94063.0,1761,2263,1830,5
94064.0,1724,2312,1830,5
94065.0,1719,2339,1812,5
94066.0,1735,2351,1794,5
94067.0,1748,2358,1742,5
94068.0,1711,2303,1722,5
94069.0,1625,2256,1706,5
94070.0,1604,2240,1700,5
94071.0,1610,2255,1817,5
94072.0,1612,2265,1977,5
94073.0,1644,2212,1975,5
94074.0,1712,2217,1973,5
94075.0,1757,2213,1931,5
94076.0,1765,2231,1903,5
94077.0,1736,2263,1869,5
94078.0,1737,2282,1814,5
94079.0,1712,2335,1780,5
94080.0,1717,2318,1848,5
94081.0,1727,2298,1882,5
94082.0,1777,2245,1922,5
94083.0,1835,2227,1956,5
94084.0,1877,2203,1967,5
94085.0,1903,2168,1964,5
94086.0,1893,2137,1953,5
94087.0,1890,2125,1956,5
94088.0,1884,2124,1929,5
94089.0,1874,2160,1933,5
94090.0,1883,2189,1915,5
94091.0,1899,2221,1913,5
94092.0,1901,2249,1922,5
94093.0,1894,2270,1933,5
94094.0,1866,2280,1932,5
94095.0,1837,2299,1910,5
94096.0,1813,2317,1880,5
94097.0,1784,2343,1839,5
94098.0,1758,2377,1795,5
94099.0,1734,2407,1773,5
94100.0,1706,2326,1787,5
94101.0,1611,2299,1838,5
94102.0,1649,2320,1779,5
94103.0,1651,2293,1766,5
94104.0,1652,2168,1794,5
94105.0,1640,2087,1807,5
94106.0,1674,2117,1810,5
94107.0,1691,2155,1816,5
94108.0,1686,2181,1777,5
94109.0,1733,2223,1772,5
94110.0,1778,2257,1777,5
94111.0,1811,2262,1796,5
94112.0,1824,2240,1822,5
94113.0,1827,2176,1873,5
94114.0,1830,2182,1927,5
94115.0,1838,2140,1967,5
94116.0,1869,2101,1970,5
94117.0,1894,2093,1970,5
94118.0,1892,2093,1958,5
94119.0,1894,2097,1939,5
94120.0,1873,2142,1906,5
94121.0,1842,2179,1858,5
94122.0,1830,2227,1812,5
94123.0,1785,2254,1776,5
94124.0,1747,2270,1775,5
94125.0,1759,2248,1793,5
94126.0,1778,2242,1807,5
94127.0,1768,2240,1797,5
94128.0,1735,2263,1782,5
94129.0,1701,2302,1791,5
94130.0,1687,2337,1826,5
94131.0,1660,2339,1827,5
94132.0,1647,2351,1742,5
94133.0,1580,2342,1679,5
94134.0,1520,2313,1807,5
94135.0,1598,2250,1915,5
94136.0,1697,2184,1958,5
94137.0,1767,2183,1959,5
94138.0,1779,2186,1971,5
94139.0,1717,2228,1976,5
94140.0,1650,2277,1966,5
94141.0,1651,2364,1986,5
94142.0,1662,2376,1967,5
94143.0,1708,2368,1934,5
94144.0,1776,2308,1919,5
94145.0,1807,2225,1941,5
94146.0,1815,2190,1955,5
94147.0,1836,2164,1977,5
94148.0,1850,2162,1985,5
94149.0,1843,2152,1994,5
94150.0,1843,2153,2001,5
94151.0,1844,2191,1994,5
94152.0,1833,2216,1971,5
94153.0,1845,2250,1955,5
94154.0,1855,2315,1919,5
94155.0,1846,2345,1892,5
94156.0,1826,2354,1908,5
94157.0,1802,2335,1913,5
94158.0,1771,2319,1917,5
94159.0,1674,2279,1942,5
94160.0,1625,2283,1940,5
94161.0,1618,2283,1843,5
94162.0,1644,2270,1802,5
94163.0,1652,2238,1825,5
94164.0,1678,2236,1887,5
94165.0,1696,2239,1906,5
94166.0,1708,2245,1864,5
94167.0,1728,2243,1853,5
94168.0,1759,2242,1858,5
94169.0,1801,2245,1867,5
94170.0,1818,2236,1868,5
94171.0,1845,2221,1898,5
94172.0,1909,2207,1926,5
94173.0,1895,2193,1967,5
94174.0,1911,2150,1985,5
94175.0,1902,2118,1990,5
94176.0,1894,2121,1970,5
94177.0,1873,2126,1919,5
94178.0,1828,2160,1937,5
94179.0,1791,2191,1910,5
94180.0,1768,2307,1760,5
94181.0,1767,2309,1763,5
94182.0,1763,2303,1777,5
94183.0,1766,2272,1809,5
94184.0,1758,2267,1842,5
94185.0,1758,2311,1853,5
94186.0,1752,2341,1859,5
94187.0,1758,2340,1849,5
94188.0,1763,2320,1830,5
94189.0,1746,2303,1808,5
94190.0,1678,2304,1795,5
94191.0,1619,2310,1788,5
94192.0,1609,2241,1832,5
94193.0,1637,2185,1896,5
94194.0,1694,2141,1920,5
94195.0,1719,2126,1923,5
94196.0,1698,2159,1930,5
94197.0,1673,2218,1935,5
94198.0,1670,2266,1911,5
94199.0,1660,2316,1883,5
94200.0,1665,2275,1862,5
94201.0,1744,2234,1878,5
94202.0,1805,2225,1856,5
94203.0,1765,2225,1922,5
94204.0,1768,2201,1953,5
94205.0,1764,2196,1961,5
94206.0,1789,2169,1980,5
94207.0,1829,2127,2003,5
94208.0,1862,2104,2016,5
94209.0,1831,2136,1975,5
94210.0,1852,2148,1973,5
94211.0,1835,2157,1971,5
94212.0,1808,2218,1961,5
94213.0,1785,2263,1940,5
94214.0,1764,2277,1964,5
94215.0,1754,2276,1999,5
94216.0,1748,2295,2025,5
94217.0,1743,2310,2032,5
94218.0,1736,2312,2030,5
94219.0,1740,2331,2005,5
94220.0,1720,2353,1977,5
94221.0,1710,2354,1933,5
94222.0,1683,2345,1907,5
94223.0,1679,2389,1870,5
94224.0,1628,2375,1893,5
94225.0,1585,2337,1917,5
94226.0,1590,2283,1860,5
94227.0,1628,2224,1841,5
94228.0,1692,2171,1815,5
94229.0,1689,2185,1782,5
94230.0,1709,2151,1795,5
94231.0,1732,2179,1886,5
94232.0,1766,2209,1915,5
94233.0,1776,2239,1892,5
94234.0,1800,2239,1912,5
94235.0,1806,2251,1935,5
94236.0,1789,2200,1992,5
94237.0,1835,2177,1997,5
94238.0,1863,2123,1980,5
94239.0,1881,2089,1959,5
94240.0,1876,2083,1959,5
94241.0,1847,2116,1950,5
94242.0,1848,2160,1952,5
94243.0,1830,2202,1920,5
94244.0,1804,2234,1893,5
94245.0,1781,2263,1866,5
94246.0,1756,2291,1863,5
94247.0,1743,2320,1837,5
94248.0,1711,2337,1802,5
94249.0,1684,2358,1776,5
94250.0,1622,2337,1740,5
94251.0,1563,2325,1729,5
94252.0,1560,2287,1788,5
94253.0,1588,2285,1907,5
94254.0,1609,2250,1961,5
94255.0,1649,2247,1986,5
94256.0,1721,2238,1960,5
94257.0,1725,2250,1898,5
94258.0,1687,2278,1894,5
94259.0,1727,2301,1863,5
94260.0,1704,2318,1820,5
94261.0,1745,2244,1820,5
94262.0,1780,2206,1863,5
94263.0,1820,2181,1913,5
94264.0,1872,2198,1946,5
94265.0,1901,2166,1992,5
94266.0,1907,2140,2007,5
94267.0,1921,2124,2003,5
94268.0,1922,2123,1966,5
94269.0,1917,2141,1951,5
94270.0,1915,2168,1927,5
94271.0,1907,2187,1885,5
94272.0,1879,2215,1862,5
94273.0,1840,2286,1834,5
94274.0,1824,2358,1825,5
94275.0,1796,2402,1816,5
94276.0,1760,2400,1792,5
94277.0,1696,2385,1785,5
94278.0,1614,2371,1790,5
94279.0,1609,2329,1770,5
73200.0,1915,2359,1940,5
73201.0,1913,2352,1946,5
73202.0,1913,2349,1939,5
73203.0,1907,2353,1943,5
73204.0,1915,2347,1942,5
73205.0,1911,2350,1945,5
73206.0,1911,2351,1939,5
73207.0,1909,2352,1937,5
73208.0,1907,2352,1941,5
73209.0,1908,2351,1939,5
73210.0,1913,2347,1946,5
73211.0,1910,2345,1940,5
73212.0,1906,2353,1937,5
73213.0,1912,2352,1939,5
73214.0,1911,2351,1941,5
73215.0,1916,2351,1940,5
73216.0,1913,2346,1942,5
73217.0,1912,2344,1941,5
73218.0,1913,2346,1937,5
73219.0,1917,2350,1937,5
73220.0,1916,2351,1929,5
73221.0,1911,2354,1931,5
73222.0,1912,2350,1925,5
73223.0,1910,2348,1934,5
73224.0,1913,2346,1942,5
73225.0,1916,2345,1933,5
73226.0,1913,2346,1935,5
73227.0,1917,2347,1938,5
73228.0,1919,2351,1940,5
73229.0,1916,2347,1941,5
73230.0,1925,2351,1943,5
73231.0,1925,2357,1942,5
73232.0,1924,2352,1939,5
73233.0,1923,2352,1941,5
73234.0,1926,2355,1948,5
73235.0,1927,2355,1943,5
73236.0,1923,2348,1945,5
73237.0,1922,2348,1953,5
73238.0,1927,2353,1946,5
73239.0,1931,2347,1946,5
73240.0,1926,2354,1953,5
73241.0,1935,2361,1956,5
73242.0,1937,2360,1950,5
73243.0,1940,2359,1958,5
73244.0,1936,2354,1958,5
73245.0,1943,2350,1963,5
73246.0,1949,2349,1966,5
73247.0,1957,2340,1975,5
73248.0,1947,2337,1976,5
73249.0,1941,2330,1978,5
73250.0,1931,2330,1980,5
73251.0,1922,2331,1971,5
73252.0,1911,2338,1974,5
73253.0,1906,2356,1966,5
73254.0,1907,2376,1984,5
73255.0,1906,2373,1982,5
73256.0,1894,2371,1991,5
73257.0,1894,2378,1995,5
73258.0,1882,2382,1999,5
73259.0,1877,2407,1983,5
73260.0,1877,2410,1973,5
73261.0,1897,2404,1978,5
73262.0,1895,2370,1986,5
73263.0,1891,2338,1990,5
73264.0,1899,2306,1993,5
73265.0,1909,2278,1990,5
73266.0,1907,2277,2002,5
73267.0,1914,2291,2007,5
73268.0,1912,2327,2005,5
73269.0,1904,2357,2006,5
73270.0,1885,2383,1988,5
73271.0,1884,2382,1988,5
73272.0,1886,2381,1991,5
73273.0,1891,2364,1986,5
73274.0,1894,2353,1981,5
73275.0,1900,2342,1988,5
73276.0,1909,2351,1989,5
73277.0,1916,2363,1987,5
73278.0,1918,2378,1996,5
73279.0,1914,2408,2025,5
73280.0,1922,2449,2048,5
73281.0,1918,2498,2045,5
73282.0,1943,2535,2031,5
73283.0,1950,2542,2027,5
73284.0,1972,2532,2031,5
73285.0,1971,2501,2040,5
73286.0,1970,2468,2067,5
73287.0,1982,2434,2065,5
73288.0,2011,2372,2054,5
73289.0,2043,2344,2046,5
73290.0,2059,2326,2033,5
73291.0,2053,2323,2045,5
73292.0,2041,2318,2050,5
73293.0,2043,2315,2041,5
73294.0,2020,2296,2035,5
73295.0,2003,2289,2035,5
73296.0,1999,2288,2017,5
73297.0,2000,2292,2019,5
73298.0,2004,2287,2010,5
73299.0,1983,2279,2007,5
73300.0,1976,2279,2002,5
73301.0,1967,2275,2009,5
73302.0,1962,2271,2010,5
73303.0,1952,2267,2015,5
73304.0,1950,2271,2004,5
73305.0,1957,2284,2005,5
73306.0,1971,2293,2004,5
73307.0,1970,2299,2002,5
73308.0,1986,2312,1996,5
73309.0,1985,2322,1990,5
73310.0,1986,2331,1977,5
73311.0,1986,2337,1989,5
73312.0,1993,2349,1993,5
73313.0,1999,2364,1990,5
73314.0,1987,2394,1983,5
73315.0,1982,2410,1991,5
73316.0,1980,2449,1995,5
73317.0,1981,2460,2009,5
73318.0,1978,2491,2020,5
73319.0,1978,2533,2010,5
73320.0,1985,2569,2006,5
73321.0,1968,2585,2034,5
73322.0,1952,2533,2059,5
73323.0,1959,2452,2062,5
73324.0,1946,2372,2074,5
73325.0,1921,2311,2083,5
73326.0,1917,2277,2098,5
73327.0,1915,2296,2079,5
73328.0,1932,2325,2088,5
73329.0,1909,2339,2077,5
73330.0,1925,2337,2063,5
73331.0,1923,2328,2051,5
73332.0,1926,2322,2035,5
73333.0,1920,2292,2028,5
73334.0,1918,2272,2023,5
73335.0,1928,2248,2012,5
73336.0,1933,2216,2013,5
73337.0,1934,2209,2014,5
73338.0,1909,2218,2020,5
73339.0,1911,2241,2015,5
73340.0,1896,2261,2022,5
73341.0,1906,2283,2029,5
73342.0,1913,2321,2021,5
73343.0,1916,2353,2019,5
73344.0,1905,2380,2012,5
73345.0,1878,2413,2012,5
73346.0,1874,2461,2023,5
73347.0,1878,2483,2030,5
73348.0,1886,2470,2028,5
73349.0,1901,2478,2030,5
73350.0,1913,2552,2042,5
73351.0,1928,2580,2072,5
73352.0,1927,2583,2078,5
73353.0,1965,2543,2107,5
73354.0,2021,2483,2123,5
73355.0,2020,2384,2113,5
73356.0,2027,2315,2094,5
73357.0,2027,2290,2090,5
73358.0,2019,2299,2092,5
73359.0,2008,2309,2075,5
73360.0,2015,2311,2023,5
73361.0,2019,2312,2007,5
73362.0,2019,2309,1995,5
73363.0,1996,2284,2002,5
73364.0,1991,2255,2018,5
73365.0,1978,2218,2033,5
73366.0,1960,2197,2021,5
73367.0,1959,2186,2010,5
73368.0,1955,2172,2007,5
73369.0,1951,2180,2016,5
73370.0,1943,2203,2008,5
73371.0,1948,2231,2023,5
73372.0,1960,2271,2011,5
73373.0,1974,2329,2001,5
73374.0,1978,2363,1989,5
73375.0,1980,2389,1990,5
73376.0,1986,2425,2004,5
73377.0,1978,2439,2025,5
73378.0,1975,2450,2025,5
73379.0,1977,2475,2020,5
73380.0,1972,2502,2028,5
73381.0,1945,2520,2023,5
73382.0,1942,2538,2037,5
73383.0,1957,2541,2068,5
73384.0,1954,2525,2115,5
73385.0,1944,2477,2131,5
73386.0,1937,2411,2124,5
73387.0,1926,2345,2144,5
73388.0,1915,2318,2164,5
73389.0,1910,2323,2178,5
73390.0,1900,2312,2174,5
73391.0,1892,2327,2163,5
73392.0,1888,2316,2130,5
73393.0,1894,2319,2097,5
73394.0,1907,2315,2066,5
73395.0,1908,2305,2049,5
73396.0,1904,2287,2050,5
73397.0,1896,2261,2050,5
73398.0,1903,2253,2062,5
73399.0,1913,2245,2066,5
73400.0,1924,2239,2056,5
73401.0,1927,2229,2050,5
73402.0,1927,2229,2035,5
73403.0,1918,2235,2025,5
73404.0,1912,2257,2023,5
73405.0,1914,2288,2036,5
73406.0,1912,2322,2041,5
73407.0,1921,2353,2050,5
73408.0,1928,2367,2051,5
73409.0,1934,2375,2040,5
73410.0,1940,2409,2022,5
73411.0,1959,2452,2009,5
73412.0,1958,2477,2043,5
73413.0,1959,2485,2101,5
73414.0,1991,2522,2141,5
73415.0,2062,2511,2116,5
73416.0,2080,2442,2092,5
73417.0,2080,2378,2081,5
73418.0,2056,2340,2067,5
73419.0,2038,2348,2069,5
73420.0,1993,2355,2047,5
73421.0,1970,2355,2048,5
73422.0,1957,2324,2043,5
73423.0,1967,2294,2035,5
73424.0,1977,2255,2033,5
73425.0,1993,2237,2023,5
73426.0,1989,2238,2018,5
73427.0,1984,2243,1996,5
73428.0,1976,2256,1994,5
73429.0,1981,2269,2002,5
73430.0,1977,2302,2004,5
73431.0,1968,2331,2007,5
73432.0,1968,2364,2010,5
73433.0,1970,2389,2009,5
73434.0,1979,2399,2013,5
73435.0,1979,2394,2014,5
73436.0,1970,2382,2011,5
73437.0,1974,2376,2011,5
73438.0,1969,2405,2022,5
73439.0,1965,2451,2041,5
73440.0,1937,2313,2018,5
73441.0,1939,2309,2017,5
73442.0,1939,2304,2016,5
73443.0,1939,2303,2016,5
73444.0,1938,2301,2019,5
73445.0,1937,2301,2020,5
73446.0,1932,2301,2018,5
73447.0,1924,2273,2025,5
73448.0,1925,2228,2041,5
73449.0,1931,2195,2046,5
73450.0,1930,2171,2045,5
73451.0,1928,2171,2049,5
73452.0,1930,2185,2058,5
73453.0,1941,2198,2073,5
73454.0,1946,2227,2075,5
73455.0,1953,2291,2065,5
73456.0,1945,2373,2043,5
73457.0,1916,2434,2010,5
73458.0,1862,2485,2034,5
73459.0,1856,2499,2061,5
73460.0,1905,2486,2072,5
73461.0,1941,2497,2083,5
73462.0,1958,2557,2105,5
73463.0,1970,2587,2134,5
73464.0,2008,2551,2114,5
73465.0,2057,2450,2106,5
73466.0,2060,2371,2115,5
73467.0,2066,2306,2086,5
73468.0,2063,2291,2057,5
73469.0,2029,2297,2043,5
73470.0,2001,2302,2034,5
73471.0,1991,2319,2020,5
73472.0,1980,2315,2024,5
73473.0,1977,2297,2021,5
73474.0,1977,2267,2013,5
73475.0,1984,2236,2013,5
73476.0,1973,2203,2030,5
73477.0,1968,2179,2031,5
73478.0,1970,2171,2025,5
73479.0,1964,2183,2023,5
73480.0,1959,2209,2031,5
73481.0,1951,2236,2031,5
73482.0,1954,2273,2026,5
73483.0,1942,2317,2015,5
73484.0,1938,2375,2014,5
73485.0,1938,2430,2026,5
73486.0,1939,2473,2032,5
73487.0,1937,2483,2025,5
73488.0,1946,2495,2021,5
73489.0,1952,2499,2031,5
73490.0,1953,2562,2051,5
73491.0,1941,2640,2081,5
73492.0,1906,2641,2124,5
73493.0,1877,2553,2143,5
73494.0,1876,2446,2140,5
73495.0,1899,2349,2133,5
73496.0,1897,2316,2149,5
73497.0,1899,2330,2173,5
73498.0,1921,2322,2164,5
73499.0,1916,2313,2113,5
73500.0,1907,2306,2062,5
73501.0,1905,2281,2036,5
73502.0,1901,2254,2020,5
73503.0,1909,2212,2028,5
73504.0,1924,2183,2035,5
73505.0,1929,2160,2038,5
73506.0,1926,2162,2036,5
73507.0,1925,2163,2029,5
73508.0,1935,2188,2023,5
73509.0,1942,2223,2035,5
73510.0,1932,2282,2042,5
73511.0,1929,2354,2050,5
73512.0,1927,2425,2057,5
73513.0,1919,2485,2068,5
73514.0,1933,2522,2048,5
73515.0,1938,2541,2033,5
73516.0,1958,2529,2052,5
73517.0,1970,2580,2075,5
73518.0,1989,2613,2124,5
73519.0,2023,2576,2133,5
73520.0,2063,2500,2109,5
73521.0,2051,2396,2110,5
73522.0,2067,2314,2098,5
73523.0,2087,2276,2097,5
73524.0,2084,2285,2089,5
73525.0,2045,2297,2063,5
73526.0,1995,2308,2015,5
73527.0,1964,2303,2006,5
73528.0,1950,2267,2012,5
73529.0,1948,2242,2010,5
73530.0,1951,2205,2018,5
73531.0,1982,2179,2028,5
73532.0,1968,2180,2024,5
73533.0,1970,2168,2008,5
73534.0,1962,2177,2003,5
73535.0,1963,2193,2007,5
73536.0,1959,2227,2013,5
73537.0,1955,2286,2020,5
73538.0,1967,2361,2021,5
73539.0,1961,2439,2024,5
73540.0,1960,2491,2037,5
73541.0,1956,2481,2027,5
73542.0,1970,2466,2018,5
73543.0,1979,2471,2036,5
73544.0,1957,2517,2074,5
73545.0,1941,2587,2099,5
73546.0,1935,2615,2112,5
73547.0,1913,2541,2133,5
73548.0,1902,2461,2149,5
73549.0,1910,2380,2150,5
73550.0,1898,2335,2149,5
73551.0,1892,2330,2168,5
73552.0,1891,2340,2179,5
73553.0,1880,2317,2154,5
73554.0,1894,2301,2112,5
73555.0,1898,2291,2070,5
73556.0,1913,2265,2038,5
73557.0,1913,2247,2034,5
73558.0,1914,2217,2034,5
73559.0,1911,2203,2042,5
73560.0,1913,2200,2034,5
73561.0,1917,2198,2034,5
73562.0,1915,2197,2040,5
73563.0,1928,2217,2043,5
73564.0,1930,2239,2044,5
73565.0,1930,2287,2046,5
73566.0,1916,2339,2038,5
73567.0,1922,2390,2056,5
73568.0,1905,2424,2085,5
73569.0,1910,2467,2083,5
73570.0,1922,2490,2064,5
73571.0,1919,2513,2058,5
73572.0,1919,2567,2078,5
73573.0,1928,2596,2115,5
73574.0,1981,2597,2130,5
73575.0,2053,2537,2139,5
73576.0,2070,2423,2142,5
73577.0,2074,2338,2126,5
73578.0,2092,2319,2113,5
73579.0,2103,2340,2102,5
73580.0,2063,2336,2100,5
73581.0,2009,2325,2073,5
73582.0,1975,2303,2040,5
73583.0,1971,2285,2031,5
73584.0,1979,2259,2013,5
73585.0,1988,2227,2020,5
73586.0,1990,2201,2032,5
73587.0,1997,2183,2038,5
73588.0,1986,2162,2033,5
73589.0,1987,2185,2012,5
73590.0,1974,2209,2000,5
73591.0,1957,2215,2004,5
73592.0,1943,2228,2026,5
73593.0,1947,2263,2035,5
73594.0,1958,2328,2038,5
73595.0,1965,2398,2039,5
73596.0,1968,2451,2039,5
73597.0,1971,2475,2052,5
73598.0,1985,2478,2050,5
73599.0,1985,2491,2050,5
73600.0,1982,2517,2073,5
73601.0,1969,2567,2072,5
73602.0,1969,2596,2101,5
73603.0,1962,2587,2162,5
73604.0,1925,2551,2173,5
73605.0,1915,2444,2151,5
73606.0,1892,2361,2128,5
73607.0,1894,2310,2167,5
73608.0,1909,2300,2179,5
73609.0,1919,2290,2144,5
73610.0,1923,2155,2037,5
73611.0,1930,2154,2038,5
73612.0,1932,2155,2037,5
73613.0,1931,2156,2037,5
73614.0,1933,2153,2034,5
73615.0,1944,2165,2036,5
73616.0,1949,2203,2037,5
73617.0,1942,2251,2029,5
73618.0,1911,2323,2021,5
73619.0,1890,2391,2033,5
73620.0,1877,2469,2063,5
73621.0,1895,2497,2069,5
73622.0,1907,2504,2065,5
73623.0,1923,2539,2055,5
73624.0,1926,2558,2045,5
73625.0,1919,2600,2050,5
73626.0,1932,2587,2097,5
73627.0,1968,2551,2137,5
73628.0,2024,2489,2166,5
73629.0,2029,2395,2174,5
73630.0,2039,2341,2152,5
73631.0,2075,2328,2132,5
73632.0,2055,2333,2123,5
73633.0,2013,2315,2094,5
73634.0,1965,2318,2057,5
73635.0,1935,2304,2035,5
73636.0,1920,2301,2031,5
73637.0,1935,2269,2024,5
73638.0,1953,2235,2033,5
73639.0,1971,2208,2041,5
73640.0,1972,2188,2045,5
73641.0,1974,2174,2043,5
73642.0,1961,2168,2029,5
73643.0,1941,2179,2027,5
73644.0,1934,2202,2028,5
73645.0,1942,2239,2030,5
73646.0,1949,2261,2023,5
73647.0,1956,2310,2010,5
73648.0,1963,2345,2014,5
73649.0,1962,2383,2022,5
73650.0,1968,2412,2036,5
73651.0,1974,2431,2045,5
73652.0,1997,2444,2047,5
73653.0,2001,2465,2036,5
73654.0,1967,2475,2038,5
73655.0,1948,2502,2044,5
73656.0,1947,2543,2073,5
73657.0,1942,2580,2097,5
73658.0,1908,2607,2141,5
73659.0,1896,2594,2163,5
73660.0,1903,2492,2148,5
73661.0,1888,2379,2152,5
73662.0,1873,2322,2172,5
73663.0,1862,2303,2197,5
73664.0,1867,2298,2196,5
73665.0,1871,2301,2150,5
73666.0,1881,2316,2111,5
73667.0,1907,2312,2079,5
73668.0,1912,2295,2066,5
73669.0,1903,2259,2048,5
73670.0,1900,2236,2045,5
73671.0,1891,2216,2048,5
73672.0,1897,2211,2050,5
73673.0,1908,2206,2047,5
73674.0,1912,2197,2049,5
73675.0,1922,2197,2046,5
73676.0,1921,2206,2033,5
73677.0,1914,2214,2036,5
73678.0,1917,2237,2038,5
73679.0,1906,2266,2039,5
73680.0,1904,2289,2042,5
73681.0,1893,2304,2036,5
73682.0,1888,2346,2043,5
73683.0,1891,2388,2044,5
73684.0,1896,2439,2047,5
73685.0,1899,2479,2031,5
73686.0,1896,2513,1993,5
73687.0,1899,2526,1978,5
73688.0,1871,2534,1990,5
73689.0,1872,2552,2023,5
73690.0,1875,2600,2102,5
73691.0,1919,2638,2148,5
73692.0,1982,2591,2173,5
73693.0,1996,2507,2169,5
73694.0,1984,2385,2174,5
73695.0,2009,2297,2162,5
73696.0,2043,2291,2155,5
73697.0,2011,2328,2115,5
73698.0,1975,2340,2081,5
73699.0,1942,2337,2066,5
73700.0,1955,2325,2046,5
73701.0,1967,2312,2031,5
73702.0,1973,2276,2015,5
73703.0,1970,2243,2024,5
73704.0,1972,2212,2030,5
73705.0,1974,2191,2022,5
73706.0,1965,2177,2034,5
73707.0,1963,2167,2023,5
73708.0,1952,2172,2024,5
73709.0,1953,2193,2024,5
73710.0,1945,2222,2027,5
73711.0,1960,2248,2027,5
73712.0,1987,2300,2028,5
73713.0,2003,2353,2031,5
73714.0,2003,2404,2038,5
73715.0,2004,2460,2031,5
73716.0,1990,2470,2019,5
73717.0,1981,2477,2004,5
73718.0,1964,2480,2021,5
73719.0,1968,2486,2040,5
73720.0,1983,2529,2059,5
73721.0,1971,2545,2092,5
73722.0,1956,2549,2129,5
73723.0,1911,2509,2154,5
73724.0,1892,2428,2148,5
73725.0,1895,2368,2165,5
73726.0,1917,2355,2194,5
73727.0,1933,2359,2207,5
73728.0,1933,2341,2179,5
73729.0,1918,2331,2125,5
73730.0,1915,2323,2064,5
73731.0,1922,2297,2033,5
73732.0,1918,2259,2048,5
73733.0,1904,2224,2054,5
73734.0,1892,2190,2065,5
73735.0,1903,2169,2060,5
73736.0,1913,2162,2055,5
73737.0,1923,2160,2054,5
73738.0,1929,2180,2058,5
73739.0,1943,2194,2053,5
73740.0,1937,2239,2044,5
73741.0,1931,2286,2042,5
73742.0,1911,2343,2057,5
73743.0,1894,2400,2062,5
73744.0,1880,2441,2065,5
73745.0,1861,2470,2057,5
73746.0,1870,2491,2045,5
73747.0,1896,2508,2044,5
73748.0,1905,2524,2054,5
73749.0,1902,2573,2088,5
73750.0,1904,2580,2130,5
73751.0,1946,2574,2131,5
73752.0,1990,2519,2143,5
73753.0,1995,2426,2176,5
73754.0,2005,2340,2172,5
73755.0,2016,2318,2171,5
73756.0,2028,2329,2169,5
73757.0,2011,2323,2136,5
73758.0,1988,2327,2090,5
73759.0,1967,2339,2060,5
73760.0,1964,2335,2042,5
73761.0,1961,2315,2035,5
73762.0,1957,2308,2023,5
73763.0,1952,2253,2042,5
73764.0,1957,2218,2051,5
73765.0,1936,2200,2044,5
73766.0,1942,2185,2046,5
73767.0,1939,2191,2031,5
73768.0,1957,2197,2022,5
73769.0,1949,2221,2023,5
73770.0,1944,2263,2023,5
73771.0,1945,2287,2024,5
73772.0,1953,2312,2022,5
73773.0,1959,2349,2033,5
73774.0,1971,2374,2030,5
73775.0,1971,2395,2048,5
73776.0,1993,2412,2033,5
73777.0,1997,2410,2030,5
73778.0,1989,2422,2023,5
73779.0,1976,2437,2016,5
73780.0,1947,2566,2128,5
73781.0,1944,2564,2128,5
73782.0,1945,2557,2141,5
73783.0,1942,2514,2180,5
73784.0,1916,2430,2188,5
73785.0,1898,2347,2180,5
73786.0,1891,2321,2172,5
73787.0,1902,2332,2169,5
73788.0,1903,2338,2167,5
73789.0,1891,2338,2146,5
73790.0,1905,2327,2114,5
73791.0,1928,2307,2087,5
73792.0,1934,2277,2074,5
73793.0,1938,2248,2051,5
73794.0,1939,2228,2048,5
73795.0,1940,2203,2051,5
73796.0,1943,2198,2046,5
73797.0,1933,2201,2044,5
73798.0,1927,2219,2061,5
73799.0,1931,2245,2052,5
73800.0,1920,2270,2044,5
73801.0,1918,2308,2042,5
73802.0,1933,2345,2046,5
73803.0,1935,2366,2046,5
73804.0,1934,2386,2055,5
73805.0,1912,2429,2063,5
73806.0,1908,2467,2070,5
73807.0,1915,2499,2069,5
73808.0,1929,2523,2060,5
73809.0,1949,2546,2068,5
73810.0,1966,2538,2081,5
73811.0,2000,2552,2089,5
73812.0,2020,2531,2093,5
73813.0,2022,2487,2084,5
73814.0,2024,2406,2078,5
73815.0,2027,2321,2076,5
73816.0,2048,2283,2070,5
73817.0,2069,2306,2060,5
73818.0,2077,2309,2055,5
73819.0,2070,2306,2039,5
73820.0,2025,2299,2010,5
73821.0,1999,2288,1998,5
73822.0,1989,2275,1999,5
73823.0,1989,2246,2010,5
73824.0,1975,2223,2009,5
73825.0,1975,2214,2015,5
73826.0,1976,2193,2011,5
73827.0,1969,2191,2012,5
73828.0,1979,2186,2015,5
73829.0,1979,2208,2008,5
73830.0,1961,2228,2006,5
73831.0,1949,2250,2013,5
73832.0,1950,2281,2005,5
73833.0,1964,2324,1995,5
73834.0,1968,2383,1992,5
73835.0,1977,2425,1997,5
73836.0,1979,2469,1998,5
73837.0,1992,2486,1994,5
73838.0,2000,2491,2006,5
73839.0,2004,2480,2020,5
73840.0,2002,2504,2038,5
73841.0,2000,2569,2062,5
73842.0,1982,2597,2068,5
73843.0,1947,2544,2107,5
73844.0,1927,2463,2127,5
73845.0,1911,2384,2154,5
73846.0,1923,2343,2169,5
73847.0,1941,2346,2183,5
73848.0,1952,2362,2166,5
73849.0,1938,2354,2143,5
73850.0,1917,2339,2098,5
73851.0,1908,2308,2085,5
73852.0,1913,2279,2071,5
73853.0,1919,2243,2061,5
73854.0,1924,2215,2057,5
73855.0,1927,2191,2054,5
73856.0,1929,2189,2050,5
73857.0,1929,2190,2038,5
73858.0,1931,2190,2040,5
73859.0,1926,2191,2032,5
73860.0,1921,2211,2028,5
73861.0,1914,2239,2036,5
73862.0,1909,2300,2049,5
73863.0,1911,2365,2048,5
73864.0,1920,2438,2053,5
73865.0,1939,2485,2050,5
73866.0,1931,2515,2049,5
73867.0,1924,2509,2051,5
73868.0,1914,2501,2053,5
73869.0,1914,2538,2083,5
73870.0,1922,2551,2125,5
73871.0,1974,2566,2118,5
73872.0,2039,2545,2088,5
73873.0,2071,2467,2080,5
73874.0,2061,2372,2096,5
73875.0,2074,2307,2088,5
73876.0,2076,2297,2087,5
73877.0,2073,2307,2076,5
73878.0,2031,2305,2064,5
73879.0,2018,2319,2035,5
73880.0,2001,2300,2019,5
73881.0,1996,2285,2015,5
73882.0,1985,2260,2023,5
73883.0,1982,2226,2029,5
73884.0,1973,2203,2020,5
73885.0,1978,2190,2022,5
73886.0,1951,2189,2016,5
73887.0,1955,2197,1990,5
73888.0,1952,2221,1994,5
73889.0,1948,2243,2004,5
73890.0,1949,2277,2008,5
73891.0,1957,2311,2002,5
73892.0,1962,2349,2004,5
73893.0,1974,2380,2012,5
73894.0,1975,2426,2015,5
73895.0,1973,2452,2011,5
73896.0,1965,2461,2010,5
73897.0,1953,2459,2016,5
73898.0,1960,2493,2034,5
73899.0,1939,2545,2049,5
73900.0,1931,2564,2071,5
73901.0,1914,2561,2108,5
73902.0,1917,2543,2114,5
73903.0,1921,2494,2105,5
73904.0,1935,2413,2115,5
73905.0,1913,2346,2145,5
73906.0,1891,2313,2162,5
73907.0,1886,2292,2155,5
73908.0,1868,2292,2117,5
73909.0,1861,2294,2076,5
73910.0,1869,2278,2061,5
73911.0,1890,2269,2048,5
73912.0,1908,2245,2043,5
73913.0,1905,2228,2036,5
73914.0,1908,2200,2027,5
73915.0,1915,2181,2026,5
73916.0,1923,2180,2033,5
73917.0,1930,2179,2043,5
73918.0,1934,2198,2047,5
73919.0,1934,2235,2042,5
73920.0,1925,2278,2043,5
73921.0,1923,2317,2039,5
73922.0,1922,2367,2029,5
73923.0,1910,2419,2034,5
73924.0,1898,2476,2041,5
73925.0,1895,2529,2047,5
73926.0,1908,2534,2040,5
73927.0,1937,2553,2030,5
73928.0,1959,2549,2085,5
73929.0,1940,2553,2115,5
73930.0,2005,2566,2121,5
73931.0,2057,2547,2119,5
73932.0,2066,2487,2112,5
73933.0,2067,2389,2097,5
73934.0,2101,2356,2091,5
73935.0,2083,2313,2091,5
73936.0,2047,2303,2094,5
73937.0,2024,2291,2071,5
73938.0,1992,2276,2041,5
73939.0,1982,2262,2037,5
73940.0,1963,2246,2037,5
73941.0,1961,2223,2032,5
73942.0,1963,2199,2026,5
73943.0,1962,2189,2018,5
73944.0,1961,2182,2015,5
73945.0,1965,2192,2003,5
73946.0,1962,2205,1999,5
73947.0,1953,2216,1997,5
73948.0,1946,2243,2019,5
73949.0,1950,2265,2010,5
73950.0,1913,2494,2121,5
73951.0,1920,2495,2122,5
73952.0,1925,2495,2122,5
73953.0,1926,2495,2122,5
73954.0,1923,2493,2121,5
73955.0,1925,2491,2122,5
73956.0,1926,2489,2122,5
73957.0,1936,2454,2114,5
73958.0,1930,2365,2125,5
73959.0,1909,2316,2145,5
73960.0,1900,2319,2179,5
73961.0,1901,2323,2192,5
73962.0,1902,2330,2161,5
73963.0,1911,2319,2101,5
73964.0,1914,2302,2066,5
73965.0,1907,2283,2048,5
73966.0,1911,2255,2039,5
73967.0,1907,2214,2043,5
73968.0,1907,2201,2043,5
73969.0,1915,2179,2048,5
73970.0,1914,2185,2049,5
73971.0,1922,2188,2056,5
73972.0,1935,2208,2051,5
73973.0,1934,2229,2044,5
73974.0,1926,2267,2032,5
73975.0,1921,2308,2031,5
73976.0,1918,2351,2034,5
73977.0,1911,2395,2039,5
73978.0,1905,2443,2036,5
73979.0,1914,2500,2042,5
73980.0,1909,2496,2064,5
73981.0,1920,2512,2081,5
73982.0,1937,2555,2097,5
73983.0,1955,2573,2141,5
73984.0,1983,2603,2126,5
73985.0,2036,2550,2106,5
73986.0,2050,2474,2117,5
73987.0,2041,2383,2122,5
73988.0,2047,2330,2105,5
73989.0,2046,2314,2100,5
73990.0,2041,2319,2099,5
73991.0,2026,2307,2076,5
73992.0,1996,2314,2035,5
73993.0,1979,2317,2007,5
73994.0,1962,2303,2012,5
73995.0,1960,2278,2013,5
73996.0,1961,2252,2010,5
73997.0,1969,2222,2012,5
73998.0,1969,2199,2012,5
73999.0,1966,2185,2014,5
74000.0,1963,2179,2010,5
74001.0,1952,2186,2014,5
74002.0,1952,2212,2012,5
74003.0,1950,2233,2009,5
74004.0,1955,2270,1998,5
74005.0,1933,2308,1997,5
74006.0,1930,2350,2003,5
74007.0,1943,2411,2008,5
74008.0,1966,2455,2012,5
74009.0,1982,2479,2014,5
74010.0,1999,2487,2012,5
74011.0,1985,2479,2019,5
74012.0,1982,2513,2042,5
74013.0,1975,2573,2061,5
74014.0,1978,2573,2059,5
74015.0,1938,2526,2100,5
74016.0,1895,2457,2106,5
74017.0,1892,2388,2128,5
74018.0,1878,2347,2145,5
74019.0,1887,2327,2170,5
74020.0,1900,2334,2175,5
74021.0,1904,2323,2150,5
74022.0,1890,2318,2105,5
74023.0,1884,2310,2073,5
74024.0,1873,2305,2055,5
74025.0,1885,2285,2041,5
74026.0,1875,2265,2051,5
74027.0,1880,2240,2063,5
74028.0,1889,2219,2059,5
74029.0,1901,2215,2062,5
74030.0,1914,2205,2059,5
74031.0,1927,2212,2050,5
74032.0,1923,2230,2053,5
74033.0,1922,2256,2041,5
74034.0,1911,2287,2040,5
74035.0,1903,2310,2040,5
74036.0,1903,2334,2049,5
74037.0,1893,2343,2049,5
74038.0,1878,2352,2050,5
74039.0,1858,2380,2057,5
74040.0,1864,2416,2041,5
74041.0,1868,2445,2047,5
74042.0,1871,2471,2067,5
74043.0,1867,2527,2078,5
74044.0,1879,2563,2089,5
74045.0,1909,2581,2090,5
74046.0,1957,2579,2131,5
74047.0,2015,2541,2144,5
74048.0,2041,2447,2140,5
74049.0,2055,2378,2138,5
74050.0,2060,2359,2125,5
74051.0,2057,2365,2102,5
74052.0,2033,2372,2087,5
74053.0,2000,2356,2067,5
74054.0,1979,2332,2059,5
74055.0,1969,2255,1991,5
74056.0,1968,2283,2037,5
74057.0,1966,2261,2030,5
74058.0,1955,2234,2024,5
74059.0,1954,2207,2017,5
74060.0,1961,2191,2013,5
74061.0,1958,2179,2017,5
74062.0,1963,2180,2014,5
74063.0,1959,2189,2029,5
74064.0,1954,2230,2022,5
74065.0,1952,2256,2007,5
74066.0,1942,2299,1986,5
74067.0,1936,2335,1986,5
74068.0,1933,2351,1990,5
74069.0,1932,2373,1998,5
74070.0,1939,2384,2002,5
74071.0,1941,2401,2014,5
74072.0,1938,2419,2018,5
74073.0,1946,2428,2024,5
74074.0,1946,2457,2024,5
74075.0,1951,2473,2036,5
74076.0,1967,2522,2046,5
74077.0,1972,2567,2068,5
74078.0,1931,2570,2106,5
74079.0,1884,2527,2142,5
74080.0,1867,2466,2161,5
74081.0,1845,2384,2184,5
74082.0,1850,2362,2197,5
74083.0,1862,2378,2210,5
74084.0,1873,2365,2188,5
74085.0,1878,2345,2160,5
74086.0,1885,2323,2141,5
74087.0,1895,2299,2127,5
74088.0,1907,2274,2097,5
74089.0,1911,2245,2083,5
74090.0,1917,2225,2055,5
74091.0,1919,2189,2071,5
74092.0,1917,2175,2053,5
74093.0,1928,2171,2044,5
74094.0,1928,2189,2054,5
74095.0,1920,2195,2060,5
74096.0,1918,2240,2048,5
74097.0,1914,2285,2037,5
