timestamp,accX,accY,accZ,class
0.0,2082,2165,1702,1
1.0,2077,2160,1703,1
2.0,2082,2168,1704,1
3.0,2083,2159,1703,1
4.0,2085,2162,1706,1
5.0,2086,2159,1705,1
6.0,2078,2159,1702,1
7.0,2084,2158,1704,1
8.0,2079,2162,1703,1
9.0,2083,2160,1706,1
10.0,2083,2165,1710,1
11.0,2086,2163,1704,1
12.0,2080,2160,1697,1
13.0,2083,2163,1703,1
14.0,2079,2162,1703,1
15.0,2080,2165,1703,1
16.0,2081,2163,1703,1
17.0,2087,2166,1708,1
18.0,2083,2162,1706,1
19.0,2083,2157,1702,1
20.0,2082,2159,1707,1
21.0,2078,2163,1702,1
22.0,2084,2155,1702,1
23.0,2075,2161,1702,1
24.0,2082,2166,1704,1
25.0,2080,2159,1703,1
26.0,2079,2166,1695,1
27.0,2086,2165,1707,1
28.0,2084,2158,1702,1
29.0,2086,2168,1702,1
30.0,2079,2164,1705,1
31.0,2081,2162,1701,1
32.0,2088,2160,1698,1
33.0,2083,2162,1702,1
34.0,2080,2160,1701,1
35.0,2086,2164,1704,1
36.0,2083,2163,1700,1
37.0,2078,2164,1701,1
38.0,2082,2163,1704,1
39.0,2081,2156,1700,1
40.0,2078,2162,1706,1
41.0,2079,2160,1700,1
42.0,2080,2160,1705,1
43.0,2078,2161,1700,1
44.0,2085,2157,1703,1
45.0,2082,2166,1702,1
46.0,2085,2162,1707,1
47.0,2086,2165,1700,1
48.0,2085,2162,1708,1
49.0,2079,2161,1701,1
50.0,2083,2164,1703,1
51.0,2085,2164,1703,1
52.0,2085,2159,1700,1
53.0,2083,2161,1700,1
54.0,2085,2159,1703,1
55.0,2086,2163,1699,1
56.0,2083,2161,1698,1
57.0,2081,2166,1705,1
58.0,2086,2163,1705,1
59.0,2081,2166,1704,1
60.0,2082,2160,1707,1
61.0,2079,2163,1703,1
62.0,2081,2159,1705,1
63.0,2084,2163,1702,1
64.0,2083,2165,1701,1
65.0,2085,2163,1703,1
66.0,2079,2161,1699,1
67.0,2084,2163,1699,1
68.0,2088,2163,1701,1
69.0,2083,2156,1697,1
70.0,2084,2155,1703,1
71.0,2080,2163,1706,1
72.0,2082,2167,1703,1
73.0,2079,2155,1705,1
74.0,2081,2164,1700,1
75.0,2087,2161,1702,1
76.0,2085,2166,1706,1
77.0,2083,2157,1705,1
78.0,2079,2161,1706,1
79.0,2085,2164,1701,1
80.0,2081,2164,1704,1
81.0,2081,2161,1695,1
82.0,2077,2162,1702,1
83.0,2083,2158,1706,1
84.0,2084,2163,1696,1
85.0,2087,2161,1701,1
86.0,2083,2164,1698,1
87.0,2085,2162,1706,1
88.0,2080,2159,1704,1
89.0,2082,2162,1702,1
90.0,2080,2161,1707,1
91.0,2081,2163,1705,1
92.0,2084,2166,1702,1
93.0,2087,2157,1704,1
94.0,2077,2160,1702,1
95.0,2083,2160,1700,1
96.0,2086,2164,1702,1
97.0,2080,2167,1707,1
98.0,2079,2157,1702,1
99.0,2081,2168,1704,1
100.0,2085,2164,1704,1
101.0,2084,2155,1703,1
102.0,2081,2161,1699,1
103.0,2077,2159,1710,1
104.0,2080,2160,1707,1
105.0,2084,2163,1705,1
106.0,2077,2161,1699,1
107.0,2084,2163,1700,1
108.0,2085,2158,1701,1
109.0,2081,2160,1702,1
110.0,2081,2163,1697,1
111.0,2080,2165,1703,1
112.0,2083,2163,1700,1
113.0,2079,2156,1705,1
114.0,2080,2163,1702,1
115.0,2080,2161,1703,1
116.0,2085,2161,1702,1
117.0,2084,2159,1704,1
118.0,2082,2162,1703,1
119.0,2083,2161,1707,1
120.0,2077,2161,1708,1
121.0,2081,2161,1703,1
122.0,2085,2159,1699,1
123.0,2083,2163,1703,1
124.0,2076,2163,1702,1
125.0,2081,2162,1701,1
126.0,2081,2161,1703,1
127.0,2079,2159,1699,1
128.0,2084,2161,1709,1
129.0,2080,2160,1701,1
130.0,2083,2157,1700,1
131.0,2084,2160,1702,1
132.0,2082,2158,1699,1
133.0,2083,2163,1705,1
134.0,2084,2159,1702,1
135.0,2083,2163,1703,1
136.0,2083,2162,1699,1
137.0,2076,2165,1699,1
138.0,2088,2162,1706,1
139.0,2082,2158,1702,1
140.0,2079,2171,1705,1
141.0,2082,2155,1705,1
142.0,2079,2161,1701,1
143.0,2078,2158,1702,1
144.0,2081,2161,1702,1
145.0,2086,2161,1705,1
146.0,2077,2160,1699,1
147.0,2083,2160,1704,1
148.0,2080,2163,1702,1
149.0,2084,2159,1701,1
150.0,2080,2166,1703,1
151.0,2079,2161,1705,1
152.0,2081,2160,1701,1
153.0,2082,2164,1702,1
154.0,2083,2166,1704,1
155.0,2081,2160,1705,1
156.0,2081,2155,1703,1
157.0,2078,2163,1703,1
158.0,2085,2166,1705,1
159.0,2083,2160,1704,1
160.0,2082,2155,1699,1
161.0,2084,2157,1705,1
162.0,2086,2167,1703,1
163.0,2083,2160,1701,1
164.0,2080,2163,1702,1
165.0,2086,2160,1706,1
166.0,2081,2157,1704,1
167.0,2079,2166,1699,1
168.0,2081,2162,1700,1
169.0,2079,2157,1702,1
170.0,2086,2166,1709,1
171.0,2088,2165,1707,1
172.0,2087,2164,1708,1
173.0,2082,2159,1701,1
174.0,2077,2162,1699,1
175.0,2079,2163,1706,1
176.0,2085,2163,1699,1
177.0,2084,2161,1706,1
178.0,2079,2163,1704,1
179.0,2079,2162,1702,1
180.0,2087,2161,1700,1
181.0,2083,2166,1701,1
182.0,2079,2159,1705,1
183.0,2081,2156,1703,1
184.0,2083,2163,1705,1
185.0,2084,2156,1706,1
186.0,2082,2164,1701,1
187.0,2082,2160,1701,1
188.0,2079,2163,1701,1
189.0,2084,2159,1709,1
190.0,2085,2163,1704,1
191.0,2088,2161,1705,1
192.0,2080,2157,1704,1
193.0,2081,2164,1726,1
194.0,2081,2174,1668,1
195.0,2094,2163,1692,1
196.0,2083,2150,1753,1
197.0,2078,2155,1656,1
198.0,2074,2166,1733,1
199.0,2085,2159,1707,1
200.0,2086,2157,1671,1
201.0,2085,2155,1719,1
202.0,2090,2168,1718,1
203.0,2080,2152,1693,1
204.0,2085,2157,1731,1
205.0,2083,2164,1701,1
206.0,2085,2154,1709,1
207.0,2084,2165,1709,1
208.0,2079,2164,1699,1
209.0,2086,2159,1706,1
210.0,2081,2162,1703,1
211.0,2081,2163,1703,1
212.0,2083,2158,1704,1
213.0,2081,2161,1698,1
214.0,2081,2170,1704,1
215.0,2086,2154,1704,1
216.0,2086,2162,1698,1
217.0,2080,2156,1702,1
218.0,2086,2159,1699,1
219.0,2082,2158,1699,1
220.0,2077,2157,1705,1
221.0,2085,2161,1694,1
222.0,2083,2164,1705,1
223.0,2086,2167,1703,1
224.0,2083,2158,1698,1
225.0,2087,2161,1702,1
226.0,2082,2165,1705,1
227.0,2078,2165,1703,1
228.0,2079,2154,1706,1
229.0,2081,2160,1706,1
230.0,2082,2159,1701,1
231.0,2080,2166,1705,1
232.0,2081,2159,1699,1
233.0,2082,2159,1705,1
234.0,2080,2162,1705,1
235.0,2082,2159,1700,1
236.0,2082,2161,1704,1
237.0,2081,2161,1702,1
238.0,2081,2166,1703,1
239.0,2086,2157,1703,1
240.0,2086,2158,1700,1
241.0,2088,2157,1701,1
242.0,2081,2165,1697,1
243.0,2083,2164,1702,1
244.0,2085,2164,1702,1
245.0,2082,2166,1705,1
246.0,2081,2161,1705,1
247.0,2086,2164,1707,1
248.0,2084,2162,1703,1
249.0,2085,2166,1702,1
250.0,2082,2157,1703,1
251.0,2077,2159,1707,1
252.0,2081,2159,1707,1
253.0,2081,2161,1698,1
254.0,2082,2163,1704,1
255.0,2078,2159,1701,1
256.0,2085,2160,1701,1
257.0,2081,2157,1705,1
258.0,2085,2162,1703,1
259.0,2083,2162,1704,1
260.0,2086,2156,1704,1
261.0,2084,2161,1705,1
262.0,2079,2167,1698,1
263.0,2073,2162,1698,1
264.0,2078,2159,1697,1
265.0,2085,2157,1701,1
266.0,2084,2162,1705,1
267.0,2078,2159,1707,1
268.0,2083,2165,1700,1
269.0,2078,2163,1704,1
270.0,2082,2157,1698,1
271.0,2083,2163,1703,1
272.0,2084,2160,1703,1
273.0,2081,2163,1705,1
274.0,2083,2159,1703,1
275.0,2084,2160,1705,1
276.0,2080,2158,1703,1
277.0,2080,2158,1699,1
278.0,2082,2164,1701,1
279.0,2083,2164,1700,1
280.0,2083,2159,1707,1
281.0,2080,2160,1701,1
282.0,2083,2164,1704,1
283.0,2083,2164,1701,1
284.0,2083,2159,1704,1
285.0,2087,2156,1703,1
286.0,2083,2160,1706,1
287.0,2076,2163,1707,1
288.0,2077,2163,1701,1
289.0,2083,2158,1696,1
290.0,2080,2164,1706,1
291.0,2082,2163,1704,1
292.0,2079,2161,1700,1
293.0,2087,2164,1703,1
294.0,2083,2166,1700,1
295.0,2083,2163,1702,1
296.0,2085,2163,1699,1
297.0,2082,2164,1705,1
298.0,2078,2162,1709,1
299.0,2082,2159,1701,1
300.0,2078,2163,1704,1
301.0,2085,2159,1700,1
302.0,2081,2161,1700,1
303.0,2080,2160,1706,1
304.0,2074,2162,1701,1
305.0,2081,2163,1704,1
306.0,2079,2159,1701,1
307.0,2082,2160,1705,1
308.0,2080,2165,1703,1
309.0,2078,2161,1703,1
310.0,2076,2159,1703,1
311.0,2084,2160,1706,1
312.0,2083,2162,1706,1
313.0,2083,2163,1707,1
314.0,2085,2161,1703,1
315.0,2082,2162,1702,1
316.0,2076,2162,1702,1
317.0,2083,2161,1699,1
318.0,2078,2166,1699,1
319.0,2084,2159,1702,1
320.0,2084,2159,1701,1
321.0,2084,2162,1702,1
322.0,2084,2157,1700,1
323.0,2083,2163,1706,1
324.0,2083,2155,1702,1
325.0,2080,2159,1697,1
326.0,2084,2162,1706,1
327.0,2086,2157,1709,1
328.0,2081,2159,1708,1
329.0,2075,2161,1703,1
330.0,2081,2167,1706,1
331.0,2081,2160,1703,1
332.0,2076,2159,1697,1
333.0,2077,2164,1708,1
334.0,2080,2161,1704,1
335.0,2082,2161,1701,1
336.0,2085,2162,1705,1
337.0,2086,2165,1707,1
338.0,2082,2163,1707,1
339.0,2085,2159,1707,1
340.0,2073,2157,1695,1
341.0,2073,2158,1699,1
342.0,2084,2161,1703,1
343.0,2079,2160,1701,1
344.0,2081,2159,1696,1
345.0,2080,2163,1704,1
346.0,2079,2163,1702,1
347.0,2081,2163,1703,1
348.0,2080,2163,1705,1
349.0,2076,2161,1701,1
350.0,2085,2165,1701,1
351.0,2082,2166,1702,1
352.0,2083,2162,1703,1
353.0,2077,2164,1703,1
354.0,2077,2162,1703,1
355.0,2080,2165,1706,1
356.0,2082,2158,1704,1
357.0,2082,2163,1699,1
358.0,2082,2161,1703,1
359.0,2081,2160,1705,1
360.0,2082,2159,1704,1
361.0,2080,2163,1703,1
362.0,2085,2161,1701,1
363.0,2081,2166,1700,1
364.0,2083,2167,1705,1
365.0,2078,2163,1702,1
366.0,2083,2156,1701,1
367.0,2083,2160,1703,1
368.0,2088,2163,1706,1
369.0,2079,2161,1701,1
370.0,2082,2161,1704,1
371.0,2075,2163,1701,1
372.0,2081,2162,1703,1
373.0,2086,2161,1707,1
374.0,2084,2163,1704,1
375.0,2084,2165,1706,1
376.0,2080,2164,1706,1
377.0,2076,2163,1705,1
378.0,2081,2159,1701,1
379.0,2080,2162,1699,1
380.0,2086,2168,1701,1
381.0,2081,2163,1707,1
382.0,2083,2165,1704,1
383.0,2083,2164,1707,1
384.0,2079,2156,1705,1
385.0,2079,2161,1698,1
386.0,2081,2165,1701,1
387.0,2085,2161,1707,1
388.0,2078,2161,1703,1
389.0,2080,2161,1702,1
390.0,2087,2158,1702,1
391.0,2081,2157,1702,1
392.0,2077,2158,1700,1
393.0,2084,2162,1707,1
394.0,2078,2169,1702,1
395.0,2082,2160,1702,1
396.0,2087,2158,1699,1
397.0,2081,2159,1702,1
398.0,2085,2160,1702,1
399.0,2080,2157,1704,1
400.0,2088,2159,1705,1
401.0,2081,2157,1700,1
402.0,2078,2158,1702,1
403.0,2082,2165,1705,1
404.0,2085,2166,1702,1
405.0,2083,2159,1705,1
406.0,2082,2159,1696,1
407.0,2081,2161,1703,1
408.0,2082,2163,1701,1
409.0,2083,2157,1701,1
410.0,2085,2160,1699,1
411.0,2085,2158,1701,1
412.0,2081,2158,1700,1
413.0,2084,2162,1702,1
414.0,2084,2159,1700,1
415.0,2080,2160,1700,1
416.0,2082,2158,1705,1
417.0,2076,2163,1700,1
418.0,2081,2160,1706,1
419.0,2082,2165,1702,1
420.0,2078,2163,1701,1
421.0,2080,2163,1703,1
422.0,2081,2158,1708,1
423.0,2078,2160,1702,1
424.0,2081,2163,1706,1
425.0,2085,2162,1703,1
426.0,2079,2162,1704,1
427.0,2084,2163,1705,1
428.0,2088,2164,1701,1
429.0,2083,2165,1702,1
430.0,2081,2160,1702,1
431.0,2081,2162,1702,1
432.0,2085,2161,1699,1
433.0,2079,2162,1701,1
434.0,2081,2163,1703,1
435.0,2082,2164,1703,1
436.0,2080,2161,1705,1
437.0,2082,2161,1704,1
438.0,2082,2165,1701,1
439.0,2080,2159,1706,1
440.0,2084,2167,1708,1
441.0,2085,2167,1705,1
442.0,2075,2159,1696,1
443.0,2088,2153,1698,1
444.0,2083,2158,1704,1
445.0,2084,2159,1705,1
446.0,2080,2167,1702,1
447.0,2082,2159,1706,1
448.0,2086,2157,1704,1
449.0,2078,2160,1700,1
450.0,2084,2160,1695,1
451.0,2082,2161,1701,1
452.0,2083,2161,1703,1
453.0,2076,2162,1702,1
454.0,2083,2161,1701,1
455.0,2079,2164,1706,1
456.0,2081,2158,1703,1
457.0,2075,2162,1705,1
458.0,2081,2162,1700,1
459.0,2084,2159,1703,1
460.0,2080,2164,1701,1
461.0,2083,2158,1699,1
462.0,2083,2163,1700,1
463.0,2083,2167,1706,1
464.0,2082,2163,1702,1
465.0,2082,2161,1704,1
466.0,2079,2157,1708,1
467.0,2079,2155,1698,1
468.0,2085,2162,1703,1
469.0,2085,2161,1706,1
470.0,2078,2156,1702,1
471.0,2079,2163,1703,1
472.0,2076,2162,1700,1
473.0,2084,2162,1689,1
474.0,2079,2157,1712,1
475.0,2078,2167,1692,1
476.0,2088,2163,1699,1
477.0,2083,2160,1708,1
478.0,2079,2160,1702,1
479.0,2083,2156,1704,1
480.0,2083,2164,1706,1
481.0,2085,2159,1699,1
482.0,2080,2159,1709,1
483.0,2080,2164,1705,1
484.0,2085,2162,1705,1
485.0,2084,2163,1704,1
486.0,2079,2159,1702,1
487.0,2080,2165,1699,1
488.0,2081,2168,1700,1
489.0,2082,2165,1701,1
490.0,2077,2165,1699,1
491.0,2084,2158,1701,1
492.0,2081,2161,1703,1
493.0,2076,2158,1700,1
494.0,2085,2159,1704,1
495.0,2084,2157,1703,1
496.0,2079,2159,1700,1
497.0,2079,2161,1700,1
498.0,2076,2158,1701,1
499.0,2084,2159,1705,1
500.0,2080,2160,1707,1
501.0,2095,2159,1695,1
502.0,2081,2163,1695,1
503.0,2083,2165,1702,1
504.0,2083,2163,1699,1
505.0,2079,2157,1701,1
506.0,2078,2163,1705,1
507.0,2081,2162,1703,1
508.0,2086,2159,1703,1
509.0,2088,2164,1703,1
510.0,2078,2155,1708,1
511.0,2079,2156,1706,1
512.0,2078,2165,1703,1
513.0,2081,2158,1708,1
514.0,2081,2164,1703,1
515.0,2088,2163,1703,1
516.0,2088,2159,1700,1
517.0,2081,2165,1695,1
518.0,2078,2161,1706,1
519.0,2079,2157,1706,1
520.0,2080,2162,1698,1
521.0,2080,2159,1702,1
522.0,2079,2156,1700,1
523.0,2085,2167,1705,1
524.0,2077,2162,1703,1
525.0,2086,2162,1699,1
526.0,2077,2158,1704,1
527.0,2081,2163,1700,1
528.0,2088,2161,1698,1
529.0,2079,2163,1711,1
530.0,2077,2162,1700,1
531.0,2083,2160,1704,1
532.0,2081,2158,1705,1
533.0,2083,2162,1702,1
534.0,2084,2155,1699,1
535.0,2086,2165,1703,1
536.0,2090,2163,1700,1
537.0,2078,2160,1706,1
538.0,2085,2164,1698,1
539.0,2083,2162,1703,1
540.0,2077,2163,1700,1
541.0,2078,2166,1702,1
542.0,2083,2161,1707,1
543.0,2076,2156,1698,1
544.0,2076,2160,1697,1
545.0,2087,2157,1704,1
546.0,2080,2161,1703,1
547.0,2079,2161,1700,1
548.0,2090,2159,1706,1
549.0,2090,2164,1705,1
550.0,2085,2165,1702,1
551.0,2081,2159,1705,1
552.0,2082,2159,1700,1
553.0,2079,2163,1701,1
554.0,2077,2157,1703,1
555.0,2081,2162,1701,1
556.0,2081,2163,1705,1
557.0,2082,2164,1697,1
558.0,2083,2168,1706,1
559.0,2081,2163,1699,1
560.0,2082,2164,1703,1
561.0,2082,2164,1702,1
562.0,2079,2160,1701,1
563.0,2083,2160,1700,1
564.0,2085,2166,1702,1
565.0,2080,2158,1703,1
566.0,2081,2164,1704,1
567.0,2084,2157,1704,1
568.0,2083,2159,1705,1
569.0,2085,2160,1705,1
570.0,2075,2159,1704,1
571.0,2082,2159,1700,1
572.0,2083,2165,1701,1
573.0,2088,2161,1706,1
574.0,2082,2163,1703,1
575.0,2085,2165,1703,1
576.0,2085,2163,1703,1
577.0,2081,2156,1713,1
578.0,2092,2168,1695,1
579.0,2081,2161,1717,1
580.0,2081,2164,1702,1
581.0,2081,2168,1707,1
582.0,2086,2160,1691,1
583.0,2085,2167,1699,1
584.0,2083,2159,1697,1
585.0,2079,2161,1703,1
586.0,2084,2159,1705,1
587.0,2081,2162,1696,1
588.0,2085,2166,1708,1
589.0,2082,2154,1703,1
590.0,2082,2162,1713,1
591.0,2082,2161,1707,1
592.0,2081,2168,1705,1
593.0,2085,2159,1701,1
594.0,2082,2160,1701,1
595.0,2073,2162,1705,1
596.0,2083,2163,1701,1
597.0,2081,2165,1703,1
598.0,2085,2164,1707,1
599.0,2089,2162,1709,1
600.0,2084,2164,1701,1
601.0,2085,2159,1703,1
602.0,2089,2161,1698,1
603.0,2078,2161,1702,1
604.0,2076,2168,1702,1
605.0,2086,2163,1704,1
606.0,2082,2160,1701,1
607.0,2078,2165,1701,1
608.0,2080,2165,1699,1
609.0,2081,2159,1705,1
610.0,2083,2165,1704,1
611.0,2083,2158,1702,1
612.0,2079,2159,1705,1
613.0,2084,2164,1699,1
614.0,2082,2157,1705,1
615.0,2087,2161,1700,1
616.0,2079,2164,1704,1
617.0,2085,2162,1701,1
618.0,2076,2160,1705,1
619.0,2086,2160,1705,1
620.0,2081,2163,1700,1
621.0,2083,2165,1699,1
622.0,2080,2166,1700,1
623.0,2081,2162,1704,1
624.0,2084,2164,1704,1
625.0,2079,2157,1705,1
626.0,2083,2163,1705,1
627.0,2079,2162,1705,1
628.0,2084,2163,1699,1
629.0,2078,2159,1704,1
630.0,2078,2165,1697,1
631.0,2087,2159,1706,1
632.0,2083,2163,1699,1
633.0,2082,2163,1695,1
634.0,2086,2161,1703,1
635.0,2080,2161,1699,1
636.0,2081,2159,1703,1
637.0,2086,2161,1705,1
638.0,2082,2161,1703,1
639.0,2082,2163,1704,1
640.0,2083,2163,1703,1
641.0,2078,2170,1701,1
642.0,2084,2163,1697,1
643.0,2080,2171,1708,1
644.0,2080,2165,1688,1
645.0,2088,2161,1701,1
646.0,2082,2162,1703,1
647.0,2086,2159,1701,1
648.0,2080,2159,1702,1
649.0,2072,2163,1707,1
650.0,2083,2160,1700,1
651.0,2085,2163,1693,1
652.0,2078,2169,1715,1
653.0,2085,2163,1683,1
654.0,2083,2154,1699,1
655.0,2080,2171,1701,1
656.0,2080,2159,1707,1
657.0,2076,2159,1698,1
658.0,2075,2165,1703,1
659.0,2080,2159,1701,1
660.0,2082,2163,1702,1
661.0,2082,2162,1709,1
662.0,2084,2164,1703,1
663.0,2083,2156,1699,1
664.0,2082,2159,1702,1
665.0,2079,2164,1703,1
666.0,2079,2163,1706,1
667.0,2083,2163,1700,1
668.0,2077,2161,1702,1
669.0,2085,2161,1703,1
670.0,2082,2162,1699,1
671.0,2079,2160,1701,1
672.0,2086,2165,1702,1
673.0,2077,2165,1703,1
674.0,2081,2159,1702,1
675.0,2089,2163,1701,1
676.0,2080,2166,1705,1
677.0,2081,2163,1700,1
678.0,2081,2164,1702,1
679.0,2079,2165,1702,1
680.0,2069,2161,1708,1
681.0,2073,2163,1710,1
682.0,2083,2165,1703,1
683.0,2083,2158,1704,1
684.0,2077,2165,1706,1
685.0,2084,2164,1705,1
686.0,2084,2159,1698,1
687.0,2079,2162,1701,1
688.0,2075,2166,1702,1
689.0,2085,2163,1707,1
690.0,2085,2158,1701,1
691.0,2080,2158,1702,1
692.0,2081,2161,1699,1
693.0,2077,2160,1703,1
694.0,2080,2156,1694,1
695.0,2075,2161,1695,1
696.0,2087,2163,1703,1
697.0,2084,2164,1697,1
698.0,2081,2163,1703,1
699.0,2083,2161,1705,1
700.0,2079,2159,1706,1
701.0,2079,2164,1700,1
702.0,2086,2162,1700,1
703.0,2081,2159,1703,1
704.0,2086,2153,1702,1
705.0,2086,2163,1704,1
706.0,2084,2161,1702,1
707.0,2087,2160,1709,1
708.0,2081,2158,1703,1
709.0,2083,2158,1702,1
710.0,2084,2163,1701,1
711.0,2077,2164,1703,1
712.0,2085,2161,1703,1
713.0,2085,2161,1700,1
714.0,2081,2159,1700,1
715.0,2085,2162,1706,1
716.0,2083,2159,1706,1
717.0,2086,2166,1706,1
718.0,2105,2201,1700,1
719.0,2063,2235,1699,1
720.0,2083,2100,1700,1
721.0,2085,2131,1701,1
722.0,2083,2144,1702,1
723.0,2096,2180,1699,1
724.0,2087,2185,1719,1
725.0,2074,2168,1692,1
726.0,2093,2201,1710,1
727.0,2102,2235,1709,1
728.0,2095,2211,1674,1
729.0,2080,2159,1719,1
730.0,2084,2156,1713,1
731.0,2090,2137,1719,1
732.0,2072,2123,1708,1
733.0,2062,2115,1714,1
734.0,2061,2130,1705,1
735.0,2055,2133,1701,1
736.0,2068,2160,1702,1
737.0,2080,2168,1705,1
738.0,2099,2185,1708,1
739.0,2100,2170,1711,1
740.0,2080,2143,1705,1
741.0,2070,2146,1701,1
742.0,2029,2114,1705,1
743.0,2087,2163,1706,1
744.0,2081,2162,1699,1
745.0,2081,2162,1704,1
746.0,2080,2158,1706,1
747.0,2082,2157,1702,1
748.0,2083,2161,1703,1
749.0,2082,2163,1703,1
750.0,2082,2157,1699,1
751.0,2080,2162,1704,1
752.0,2078,2158,1705,1
753.0,2081,2159,1704,1
754.0,2078,2153,1700,1
755.0,2081,2157,1706,1
756.0,2081,2163,1706,1
757.0,2082,2159,1701,1
758.0,2081,2165,1702,1
759.0,2081,2164,1702,1
760.0,2086,2161,1702,1
761.0,2083,2162,1704,1
762.0,2079,2158,1701,1
763.0,2082,2160,1701,1
764.0,2078,2158,1701,1
765.0,2079,2162,1698,1
766.0,2077,2159,1707,1
767.0,2075,2164,1702,1
768.0,2083,2164,1703,1
769.0,2083,2159,1702,1
770.0,2081,2163,1705,1
771.0,2079,2165,1706,1
772.0,2082,2163,1697,1
773.0,2079,2155,1699,1
774.0,2084,2158,1705,1
775.0,2076,2167,1704,1
776.0,2087,2161,1703,1
777.0,2081,2157,1703,1
778.0,2081,2155,1705,1
779.0,2077,2160,1705,1
780.0,2074,2161,1705,1
781.0,2085,2162,1704,1
782.0,2080,2158,1700,1
783.0,2079,2159,1703,1
784.0,2085,2162,1706,1
785.0,2075,2164,1701,1
786.0,2083,2162,1705,1
787.0,2082,2161,1703,1
788.0,2082,2163,1707,1
789.0,2083,2162,1698,1
790.0,2084,2159,1705,1
791.0,2078,2162,1703,1
792.0,2080,2157,1704,1
793.0,2085,2163,1700,1
794.0,2080,2163,1703,1
795.0,2088,2160,1705,1
796.0,2079,2163,1701,1
797.0,2085,2159,1703,1
798.0,2079,2164,1702,1
799.0,2087,2159,1701,1
800.0,2078,2154,1703,1
801.0,2083,2159,1705,1
802.0,2083,2161,1700,1
803.0,2083,2161,1697,1
804.0,2079,2163,1703,1
805.0,2081,2161,1703,1
806.0,2111,2131,1704,1
807.0,2066,2170,1706,1
808.0,2065,2172,1701,1
809.0,2088,2161,1703,1
810.0,2076,2157,1702,1
811.0,2083,2159,1703,1
812.0,2079,2161,1698,1
813.0,2083,2162,1704,1
814.0,2086,2164,1697,1
815.0,2079,2160,1704,1
816.0,2082,2160,1706,1
817.0,2084,2159,1700,1
818.0,2083,2159,1705,1
819.0,2081,2159,1701,1
820.0,2082,2157,1703,1
821.0,2086,2158,1705,1
822.0,2111,2136,1699,1
823.0,2086,2159,1702,1
824.0,2081,2165,1703,1
825.0,2083,2164,1705,1
826.0,2083,2151,1699,1
827.0,2081,2167,1711,1
828.0,2082,2157,1702,1
829.0,2071,2165,1706,1
830.0,2078,2154,1699,1
831.0,2080,2156,1699,1
832.0,2084,2158,1702,1
833.0,2094,2163,1705,1
834.0,2101,2152,1704,1
835.0,2099,2184,1694,1
836.0,2079,2170,1696,1
837.0,2084,2161,1706,1
838.0,2081,2157,1701,1
839.0,2082,2159,1707,1
840.0,2082,2158,1706,1
841.0,2081,2162,1699,1
842.0,2080,2165,1700,1
843.0,2088,2156,1700,1
844.0,2082,2164,1702,1
845.0,2080,2159,1701,1
846.0,2095,2208,1708,1
847.0,2087,2150,1711,1
848.0,2047,2108,1703,1
849.0,2058,2135,1666,1
850.0,2065,2074,1524,1
851.0,2066,2075,1523,1
852.0,2068,2069,1512,1
853.0,1994,2007,1445,1
854.0,1953,1719,1389,1
855.0,1943,1641,1379,1
856.0,1938,1636,1406,1
857.0,1942,1737,1518,1
858.0,2032,1987,1660,1
859.0,2158,2344,1832,1
860.0,2368,3104,2179,1
861.0,2680,3805,2451,1
862.0,2893,4042,2012,1
863.0,2650,3810,1631,1
864.0,2044,3153,1638,1
865.0,1420,1917,1460,1
866.0,1009,385,1070,1
867.0,804,2,1272,1
868.0,799,2,1681,1
869.0,1158,843,1881,1
870.0,1593,2001,1905,1
871.0,2358,3572,1931,1
872.0,3073,4093,2322,1
873.0,3245,4095,1946,1
874.0,2777,4087,1641,1
875.0,1810,2889,1758,1
876.0,1078,1310,1287,1
877.0,583,2,1315,1
878.0,520,2,1768,1
879.0,866,471,1931,1
880.0,1381,1579,2047,1
881.0,2067,2752,2088,1
882.0,2918,4095,2112,1
883.0,3626,4094,1800,1
884.0,3395,4094,1340,1
885.0,2361,3183,1455,1
886.0,1415,1861,1149,1
887.0,660,222,1227,1
888.0,483,74,1852,1
889.0,705,493,2273,1
890.0,1324,1257,2173,1
891.0,1830,2105,2194,1
892.0,2530,3115,2069,1
893.0,3637,4094,1469,1
894.0,3674,4095,1617,1
895.0,2974,3714,1900,1
896.0,2121,2909,1742,1
897.0,1415,1848,1289,1
898.0,1146,1098,1295,1
899.0,1212,1042,1683,1
900.0,1421,1285,1978,1
901.0,1791,1619,1913,1
902.0,2185,1979,1782,1
903.0,2506,2308,1675,1
904.0,2487,2743,1912,1
905.0,2713,2737,1964,1
906.0,2397,2465,2124,1
907.0,2328,2343,2052,1
908.0,2255,2233,1906,1
909.0,2236,2228,1866,1
910.0,2111,2284,1931,1
911.0,2426,2307,2137,1
912.0,2089,2378,2764,1
913.0,2437,2346,2307,1
914.0,2472,2557,2050,1
915.0,2405,2567,1821,1
916.0,2386,2494,1753,1
917.0,2397,2365,1554,1
918.0,2291,2379,1648,1
919.0,2356,2559,1607,1
920.0,2317,2640,1804,1
921.0,2196,2345,1345,1
922.0,2432,2150,2298,1
923.0,2476,2099,2188,1
924.0,2559,2370,2177,1
925.0,2543,2025,2363,1
926.0,2466,2197,2301,1
927.0,2232,2287,2321,1
928.0,2402,2199,2178,1
929.0,2434,2260,1973,1
930.0,2581,2273,2147,1
931.0,2399,2183,2029,1
932.0,2377,2189,1982,1
933.0,2146,2286,2132,1
934.0,2562,1991,2075,1
935.0,2439,1981,2353,1
936.0,2267,2005,2163,1
937.0,2572,2464,1858,1
938.0,2975,2331,1712,1
939.0,2609,2406,1942,1
940.0,2491,2366,1870,1
941.0,2392,1994,2150,1
942.0,2430,2178,2127,1
943.0,2459,2230,2125,1
944.0,2714,2151,2107,1
945.0,2242,1965,2053,1
946.0,2236,1923,2100,1
947.0,2248,1937,2030,1
948.0,2337,1971,2010,1
949.0,2082,2003,2045,1
950.0,1947,2087,2033,1
951.0,2189,1989,2100,1
952.0,2447,1823,2358,1
953.0,2557,1797,2358,1
954.0,2632,1910,2156,1
955.0,2890,1946,2103,1
956.0,2667,2130,1961,1
957.0,2517,2080,2091,1
958.0,2979,2251,2144,1
959.0,2975,2290,2239,1
960.0,2304,2335,1908,1
961.0,1705,2066,2038,1
962.0,2455,1803,2348,1
963.0,2080,1907,2067,1
964.0,2331,1724,2129,1
965.0,2490,1730,2099,1
966.0,2323,1578,2178,1
967.0,2192,1894,2013,1
968.0,1967,1900,1977,1
969.0,1862,1977,1953,1
970.0,2003,1943,2035,1
971.0,1809,2019,2039,1
972.0,2059,1900,2355,1
973.0,2256,1929,2351,1
974.0,2638,1840,1899,1
975.0,2589,1806,1959,1
976.0,2682,1858,1994,1
977.0,2523,2122,1825,1
978.0,2410,2105,1985,1
979.0,2200,2041,2211,1
980.0,2176,2168,2101,1
981.0,2187,2235,2037,1
982.0,2129,2277,2167,1
983.0,2697,2391,2169,1
984.0,2994,2217,2099,1
985.0,2912,2289,1881,1
986.0,2417,2348,1917,1
987.0,2247,2477,1945,1
988.0,1966,2499,2279,1
989.0,2194,2462,2158,1
990.0,3028,2267,1988,1
991.0,2675,2177,2142,1
992.0,2526,2259,1919,1
993.0,2348,2386,1883,1
994.0,2360,2545,1858,1
995.0,2304,2438,2030,1
996.0,2218,2181,2485,1
997.0,2163,2349,2210,1
998.0,1960,2473,2076,1
999.0,1751,2568,2177,1
1000.0,1942,2937,1861,1
1001.0,2054,2596,2112,1
1002.0,2304,2588,2147,1
1003.0,2259,2647,2017,1
1004.0,2478,2668,1849,1
1005.0,2625,2716,2077,1
1006.0,2669,2665,2409,1
1007.0,2199,2708,2752,1
1008.0,2247,2607,2408,1
1009.0,2443,2475,2134,1
1010.0,2388,2687,1934,1
1011.0,2258,2663,1891,1
1012.0,2227,2467,2036,1
1013.0,2419,2318,1971,1
1014.0,2397,2391,2081,1
1015.0,2120,2451,1957,1
1016.0,2301,2243,1729,1
1017.0,2081,2427,1643,1
1018.0,2361,2263,1917,1
1019.0,2471,2119,2108,1
1020.0,2732,2293,2137,1
1021.0,2731,2304,2132,1
1022.0,2733,2312,2126,1
1023.0,2735,2319,2123,1
1024.0,2735,2319,2124,1
1025.0,2731,2331,2062,1
1026.0,2713,2423,1969,1
1027.0,2527,2458,2062,1
1028.0,2260,2483,2106,1
1029.0,2025,2392,2245,1
1030.0,2427,2442,2036,1
1031.0,2488,2505,1827,1
1032.0,2201,2287,2080,1
1033.0,2332,2423,2008,1
1034.0,2249,2452,1896,1
1035.0,2376,2420,1893,1
1036.0,2420,2380,1746,1
1037.0,2315,2269,1973,1
1038.0,2340,2149,2036,1
1039.0,2331,2191,1965,1
1040.0,2367,2295,1785,1
1041.0,2351,2407,1851,1
1042.0,2261,2404,2075,1
1043.0,2306,2345,2002,1
1044.0,2359,2307,1978,1
1045.0,2423,2360,1946,1
1046.0,2418,2379,1978,1
1047.0,2431,2326,1885,1
1048.0,2435,2410,1877,1
1049.0,2416,2357,1986,1
1050.0,2190,2382,2123,1
1051.0,2373,2187,2216,1
1052.0,2387,2618,972,1
1053.0,2295,2456,1830,1
1054.0,2206,2511,1869,1
1055.0,2297,2421,2005,1
1056.0,2411,2435,1926,1
1057.0,2344,2460,1963,1
1058.0,2244,2384,2209,1
1059.0,2336,2337,2127,1
1060.0,2332,2399,2031,1
1061.0,2336,2379,2006,1
1062.0,2281,2465,1983,1
1063.0,2337,2452,1926,1
1064.0,2571,2068,1862,1
1065.0,2384,2541,1886,1
1066.0,2461,2496,1950,1
1067.0,2418,2372,2055,1
1068.0,2419,2337,2104,1
1069.0,2408,2356,2112,1
1070.0,2366,2399,2129,1
1071.0,2385,2389,2111,1
1072.0,2523,2403,2135,1
1073.0,2312,2409,2060,1
1074.0,2403,2327,2026,1
1075.0,2235,2357,2197,1
1076.0,2535,2582,1881,1
1077.0,2027,2352,2146,1
1078.0,2459,2034,2122,1
1079.0,2548,2503,2036,1
1080.0,2022,2261,1947,1
1081.0,2353,2217,1827,1
1082.0,2305,2385,1998,1
1083.0,2295,2382,1948,1
1084.0,2377,2367,1916,1
1085.0,2310,2371,1982,1
1086.0,2205,2599,2089,1
1087.0,2322,2537,1885,1
1088.0,2370,2515,1925,1
1089.0,2222,2442,1989,1
1090.0,1997,2339,2015,1
1091.0,2098,2462,1967,1
1092.0,2154,2530,2000,1
1093.0,2120,2522,2098,1
1094.0,2130,2547,2143,1
1095.0,2113,2620,2067,1
1096.0,2186,2640,2036,1
1097.0,2153,2632,2078,1
1098.0,2085,2582,2059,1
1099.0,2005,2549,2043,1
1100.0,2024,2561,2063,1
1101.0,1941,2844,2028,1
1102.0,2004,2490,2093,1
1103.0,2063,2617,2069,1
1104.0,2095,2617,2002,1
1105.0,2172,2570,2060,1
1106.0,2209,2539,2121,1
1107.0,2160,2590,2097,1
1108.0,2170,2576,1967,1
1109.0,2232,2757,1900,1
1110.0,2102,2544,1899,1
1111.0,2013,2392,1933,1
1112.0,2031,2301,1987,1
1113.0,2155,2327,1955,1
1114.0,2258,2383,1843,1
1115.0,2259,2430,1763,1
1116.0,2247,2352,1837,1
1117.0,2238,2364,1859,1
1118.0,2284,2429,1880,1
1119.0,2267,2449,1867,1
1120.0,2280,2553,1770,1
1121.0,2195,2348,1836,1
1122.0,2182,2285,1874,1
1123.0,2254,2340,1893,1
1124.0,2306,2451,1929,1
1125.0,2249,2440,1903,1
1126.0,2206,2402,1861,1
1127.0,2172,2433,1809,1
1128.0,2189,2462,1785,1
1129.0,2198,2487,1803,1
1130.0,2219,2473,1855,1
1131.0,2253,2489,1890,1
1132.0,2259,2501,1906,1
1133.0,2239,2488,1906,1
1134.0,2204,2472,1890,1
1135.0,2191,2478,1843,1
1136.0,2182,2447,1862,1
1137.0,2180,2431,1911,1
1138.0,2180,2458,1954,1
1139.0,2180,2489,1947,1
1140.0,2188,2531,1922,1
1141.0,2169,2506,1899,1
1142.0,2123,2453,1926,1
1143.0,2091,2461,1927,1
1144.0,2201,2544,1942,1
1145.0,2165,2483,1863,1
1146.0,2138,2409,1862,1
1147.0,2188,2493,1891,1
1148.0,2198,2510,1883,1
1149.0,2169,2492,1864,1
1150.0,2131,2493,1899,1
1151.0,2130,2497,1896,1
1152.0,2136,2494,1905,1
1153.0,2142,2474,1890,1
1154.0,2099,2452,1865,1
1155.0,2125,2491,1901,1
1156.0,2160,2513,1908,1
1157.0,2152,2523,1941,1
1158.0,2169,2507,1873,1
1159.0,2120,2483,1845,1
1160.0,2102,2442,1836,1
1161.0,2121,2499,1897,1
1162.0,2135,2513,1930,1
1163.0,2145,2495,1874,1
1164.0,2129,2508,1866,1
1165.0,2128,2509,1851,1
1166.0,2141,2499,1861,1
1167.0,2133,2470,1856,1
1168.0,2123,2473,1894,1
1169.0,2133,2494,1945,1
1170.0,2142,2470,1950,1
1171.0,2162,2481,1935,1
1172.0,2151,2470,1903,1
1173.0,2194,2479,1854,1
1174.0,2179,2751,1819,1
1175.0,2029,2315,1922,1
1176.0,2093,2473,1900,1
1177.0,2228,2497,1876,1
1178.0,2107,2450,1882,1
1179.0,2066,2422,1909,1
1180.0,2189,2507,1950,1
1181.0,2153,2503,1899,1
1182.0,2190,2510,1880,1
1183.0,2155,2463,1833,1
1184.0,2117,2408,1752,1
1185.0,2066,2448,1779,1
1186.0,2155,2457,1821,1
1187.0,2172,2464,1783,1
1188.0,2203,2586,1834,1
1189.0,2175,2444,1802,1
1190.0,2112,2457,1836,1
1191.0,2111,2459,1836,1
1192.0,2109,2471,1888,1
1193.0,2137,2468,1956,1
1194.0,2145,2464,2050,1
1195.0,2161,2427,2032,1
1196.0,2142,2416,1999,1
1197.0,2149,2307,1961,1
1198.0,2234,2429,1804,1
1199.0,2256,2458,1748,1
1200.0,2253,2395,1728,1
1201.0,2185,2352,1750,1
1202.0,2196,2426,1681,1
1203.0,2159,2429,1690,1
1204.0,2134,2386,1754,1
1205.0,2149,2357,1785,1
1206.0,2165,2388,1793,1
1207.0,2179,2420,1821,1
1208.0,2176,2450,1819,1
1209.0,2158,2443,1815,1
1210.0,2159,2423,1811,1
1211.0,2193,2401,1811,1
1212.0,2201,2409,1806,1
1213.0,2190,2411,1807,1
1214.0,2193,2407,1802,1
1215.0,2204,2414,1806,1
1216.0,2201,2399,1809,1
1217.0,2194,2398,1808,1
1218.0,2202,2401,1807,1
1219.0,2211,2421,1811,1
1220.0,2222,2425,1826,1
1221.0,2223,2421,1837,1
1222.0,2220,2415,1841,1
1223.0,2223,2417,1845,1
1224.0,2230,2415,1833,1
1225.0,2229,2412,1836,1
1226.0,2243,2427,1830,1
1227.0,2241,2406,1854,1
1228.0,2243,2405,1851,1
1229.0,2248,2411,1834,1
1230.0,2248,2412,1839,1
1231.0,2259,2406,1849,1
1232.0,2267,2421,1844,1
1233.0,2257,2401,1852,1
1234.0,2255,2398,1841,1
1235.0,2267,2401,1859,1
1236.0,2268,2413,1869,1
1237.0,2273,2413,1858,1
1238.0,2273,2414,1862,1
1239.0,2272,2404,1860,1
1240.0,2267,2411,1861,1
1241.0,2269,2407,1861,1
1242.0,2270,2411,1860,1
1243.0,2268,2410,1864,1
1244.0,2266,2409,1861,1
1245.0,2272,2411,1859,1
1246.0,2272,2410,1854,1
1247.0,2271,2408,1854,1
1248.0,2262,2408,1857,1
1249.0,2268,2410,1864,1
1250.0,2273,2410,1862,1
1251.0,2268,2418,1861,1
1252.0,2264,2407,1864,1
1253.0,2268,2418,1858,1
1254.0,2267,2412,1862,1
1255.0,2265,2414,1863,1
1256.0,2267,2415,1863,1
1257.0,2268,2422,1861,1
1258.0,2265,2410,1862,1
1259.0,2269,2413,1864,1
1260.0,2271,2410,1865,1
1261.0,2268,2410,1857,1
1262.0,2266,2405,1857,1
1263.0,2266,2410,1860,1
1264.0,2263,2409,1854,1
1265.0,2260,2410,1852,1
1266.0,2261,2413,1854,1
1267.0,2259,2408,1855,1
1268.0,2260,2409,1846,1
1269.0,2261,2411,1860,1
1270.0,2265,2409,1852,1
1271.0,2259,2416,1854,1
1272.0,2262,2411,1853,1
1273.0,2261,2409,1855,1
1274.0,2264,2410,1857,1
1275.0,2261,2418,1852,1
1276.0,2265,2415,1855,1
1277.0,2259,2407,1858,1
1278.0,2261,2407,1853,1
1279.0,2262,2406,1857,1
1280.0,2264,2407,1857,1
1281.0,2260,2410,1852,1
1282.0,2266,2409,1851,1
1283.0,2259,2406,1852,1
1284.0,2258,2401,1850,1
1285.0,2262,2408,1853,1
1286.0,2261,2406,1847,1
1287.0,2259,2412,1850,1
1288.0,2265,2413,1849,1
1289.0,2258,2405,1847,1
1290.0,2261,2413,1848,1
1291.0,2256,2412,1851,1
1292.0,2254,2402,1845,1
1293.0,2256,2404,1851,1
1294.0,2257,2414,1855,1
1295.0,2253,2403,1849,1
1296.0,2261,2411,1850,1
1297.0,2258,2407,1851,1
1298.0,2261,2410,1850,1
1299.0,2259,2406,1846,1
1300.0,2259,2407,1847,1
1301.0,2261,2406,1846,1
1302.0,2258,2410,1844,1
1303.0,2263,2408,1852,1
1304.0,2263,2411,1845,1
1305.0,2259,2410,1849,1
1306.0,2257,2409,1846,1
1307.0,2261,2406,1850,1
1308.0,2266,2405,1851,1
1309.0,2262,2410,1852,1
1310.0,2259,2410,1851,1
1311.0,2259,2406,1852,1
1312.0,2262,2406,1853,1
1313.0,2259,2404,1849,1
1314.0,2256,2411,1849,1
1315.0,2259,2410,1848,1
1316.0,2255,2404,1847,1
1317.0,2257,2407,1849,1
1318.0,2262,2408,1852,1
1319.0,2259,2407,1852,1
1320.0,2254,2412,1849,1
1321.0,2253,2413,1850,1
1322.0,2258,2409,1850,1
1323.0,2259,2407,1844,1
1324.0,2263,2407,1853,1
1325.0,2256,2404,1854,1
1326.0,2262,2405,1854,1
1327.0,2263,2409,1852,1
1328.0,2260,2410,1852,1
1329.0,2261,2408,1848,1
1330.0,2259,2410,1849,1
1331.0,2258,2404,1852,1
1332.0,2263,2407,1848,1
1333.0,2259,2408,1853,1
1334.0,2259,2406,1855,1
1335.0,2259,2404,1853,1
1336.0,2262,2407,1845,1
1337.0,2258,2409,1849,1
1338.0,2263,2405,1852,1
1339.0,2259,2407,1850,1
1340.0,2256,2407,1846,1
1341.0,2258,2412,1853,1
1342.0,2267,2411,1853,1
1343.0,2260,2407,1847,1
1344.0,2259,2410,1848,1
1345.0,2256,2405,1852,1
1346.0,2258,2412,1852,1
1347.0,2263,2404,1849,1
1348.0,2263,2410,1852,1
1349.0,2260,2410,1851,1
1350.0,2260,2403,1849,1
1351.0,2257,2409,1850,1
1352.0,2253,2410,1853,1
1353.0,2258,2405,1847,1
1354.0,2260,2407,1850,1
1355.0,2257,2408,1852,1
1356.0,2259,2408,1851,1
1357.0,2258,2405,1853,1
1358.0,2258,2411,1856,1
1359.0,2259,2407,1847,1
1360.0,2255,2403,1843,1
1361.0,2252,2403,1845,1
1362.0,2264,2406,1847,1
1363.0,2255,2411,1848,1
1364.0,2263,2411,1851,1
1365.0,2256,2409,1851,1
1366.0,2257,2413,1849,1
1367.0,2263,2410,1847,1
1368.0,2259,2403,1852,1
1369.0,2261,2406,1848,1
1370.0,2259,2406,1855,1
1371.0,2257,2411,1847,1
1372.0,2261,2409,1850,1
1373.0,2255,2407,1851,1
1374.0,2261,2409,1851,1
1375.0,2259,2407,1852,1
1376.0,2257,2412,1850,1
1377.0,2257,2405,1852,1
1378.0,2256,2406,1854,1
1379.0,2257,2409,1847,1
1380.0,2258,2408,1849,1
1381.0,2257,2407,1852,1
1382.0,2259,2414,1852,1
1383.0,2257,2404,1853,1
1384.0,2258,2407,1855,1
1385.0,2260,2411,1850,1
1386.0,2262,2407,1853,1
1387.0,2256,2405,1849,1
1388.0,2257,2411,1848,1
1389.0,2266,2403,1846,1
1390.0,2256,2406,1854,1
1391.0,2258,2410,1849,1
1392.0,2251,2408,1854,1
1393.0,2257,2405,1850,1
1394.0,2262,2404,1850,1
1395.0,2260,2405,1850,1
1396.0,2256,2407,1851,1
1397.0,2260,2406,1851,1
1398.0,2257,2408,1847,1
1399.0,2257,2413,1846,1
1400.0,2260,2405,1849,1
1401.0,2263,2405,1849,1
1402.0,2265,2407,1852,1
1403.0,2258,2405,1853,1
1404.0,2263,2413,1854,1
1405.0,2256,2407,1848,1
1406.0,2257,2406,1851,1
1407.0,2263,2407,1851,1
1408.0,2261,2406,1845,1
1409.0,2256,2408,1851,1
1410.0,2258,2405,1851,1
1411.0,2258,2405,1850,1
1412.0,2257,2407,1853,1
1413.0,2256,2410,1852,1
1414.0,2254,2408,1848,1
1415.0,2260,2411,1851,1
1416.0,2258,2410,1848,1
1417.0,2258,2404,1851,1
1418.0,2261,2407,1846,1
1419.0,2251,2413,1848,1
1420.0,2255,2415,1846,1
1421.0,2258,2405,1846,1
1422.0,2264,2409,1852,1
1423.0,2257,2402,1849,1
1424.0,2257,2406,1847,1
1425.0,2259,2403,1851,1
1426.0,2267,2407,1850,1
1427.0,2261,2405,1847,1
1428.0,2258,2411,1849,1
1429.0,2258,2404,1849,1
1430.0,2259,2409,1852,1
1431.0,2254,2412,1850,1
1432.0,2255,2402,1846,1
1433.0,2253,2409,1850,1
1434.0,2267,2408,1847,1
1435.0,2262,2410,1850,1
1436.0,2253,2409,1849,1
1437.0,2255,2408,1849,1
1438.0,2257,2411,1849,1
1439.0,2255,2407,1850,1
1440.0,2260,2412,1847,1
1441.0,2258,2414,1850,1
1442.0,2259,2405,1849,1
1443.0,2258,2409,1851,1
1444.0,2260,2406,1849,1
1445.0,2256,2407,1848,1
1446.0,2259,2407,1847,1
1447.0,2265,2411,1841,1
1448.0,2255,2405,1851,1
1449.0,2257,2401,1851,1
1450.0,2260,2405,1854,1
1451.0,2262,2410,1849,1
1452.0,2262,2403,1851,1
1453.0,2263,2408,1849,1
1454.0,2258,2409,1849,1
1455.0,2260,2404,1848,1
1456.0,2263,2406,1847,1
1457.0,2258,2404,1848,1
1458.0,2253,2409,1850,1
1459.0,2260,2399,1849,1
1460.0,2258,2406,1854,1
1461.0,2259,2405,1851,1
1462.0,2256,2410,1845,1
1463.0,2256,2405,1850,1
1464.0,2261,2411,1848,1
1465.0,2256,2407,1847,1
1466.0,2256,2409,1851,1
1467.0,2257,2406,1847,1
1468.0,2259,2408,1848,1
1469.0,2257,2406,1850,1
1470.0,2255,2405,1847,1
1471.0,2258,2411,1851,1
1472.0,2257,2408,1849,1
1473.0,2255,2408,1845,1
1474.0,2253,2403,1845,1
1475.0,2257,2406,1846,1
1476.0,2255,2409,1849,1
1477.0,2253,2407,1848,1
1478.0,2255,2411,1847,1
1479.0,2256,2407,1850,1
1480.0,2261,2407,1847,1
1481.0,2258,2410,1846,1
1482.0,2258,2407,1849,1
1483.0,2259,2407,1848,1
1484.0,2258,2403,1849,1
1485.0,2261,2406,1848,1
1486.0,2258,2406,1846,1
1487.0,2267,2408,1853,1
1488.0,2257,2409,1847,1
1489.0,2258,2407,1848,1
1490.0,2257,2411,1849,1
1491.0,2255,2409,1845,1
1492.0,2255,2405,1850,1
1493.0,2257,2412,1849,1
1494.0,2256,2414,1849,1
1495.0,2257,2410,1846,1
1496.0,2259,2407,1848,1
1497.0,2257,2402,1848,1
1498.0,2257,2407,1853,1
1499.0,2258,2411,1849,1
1500.0,2261,2411,1848,1
1501.0,2259,2406,1844,1
1502.0,2259,2408,1850,1
1503.0,2255,2412,1854,1
1504.0,2259,2408,1852,1
1505.0,2259,2412,1850,1
1506.0,2258,2409,1847,1
1507.0,2258,2409,1847,1
1508.0,2256,2407,1851,1
1509.0,2255,2406,1851,1
1510.0,2256,2407,1849,1
1511.0,2260,2406,1846,1
1512.0,2256,2407,1848,1
1513.0,2257,2403,1851,1
1514.0,2255,2406,1847,1
1515.0,2255,2415,1846,1
1516.0,2257,2408,1850,1
1517.0,2263,2406,1850,1
1518.0,2263,2409,1842,1
1519.0,2262,2409,1845,1
1520.0,2262,2406,1852,1
1521.0,2257,2410,1852,1
1522.0,2251,2407,1853,1
1523.0,2254,2407,1846,1
1524.0,2254,2407,1847,1
1525.0,2259,2412,1845,1
1526.0,2257,2404,1854,1
1527.0,2260,2410,1855,1
1528.0,2261,2410,1850,1
1529.0,2260,2403,1853,1
1530.0,2254,2416,1837,1
1531.0,2255,2415,1838,1
1532.0,2252,2409,1840,1
1533.0,2266,2418,1836,1
1534.0,2253,2407,1833,1
1535.0,2248,2409,1833,1
1536.0,2248,2423,1843,1
1537.0,2249,2422,1854,1
1538.0,2266,2407,1877,1
1539.0,2282,2391,1883,1
1540.0,2282,2355,1869,1
1541.0,2277,2375,1840,1
1542.0,2262,2374,1839,1
1543.0,2240,2402,1829,1
1544.0,2229,2417,1823,1
1545.0,2249,2424,1813,1
1546.0,2254,2434,1822,1
1547.0,2259,2420,1828,1
1548.0,2252,2423,1828,1
1549.0,2268,2400,1856,1
1550.0,2279,2374,1885,1
1551.0,2289,2345,1878,1
1552.0,2277,2345,1855,1
1553.0,2273,2351,1850,1
1554.0,2259,2375,1828,1
1555.0,2240,2404,1815,1
1556.0,2220,2422,1799,1
1557.0,2224,2427,1788,1
1558.0,2253,2439,1791,1
1559.0,2249,2449,1811,1
1560.0,2256,2434,1822,1
1561.0,2249,2415,1837,1
1562.0,2262,2388,1870,1
1563.0,2262,2338,1907,1
1564.0,2301,2334,1859,1
1565.0,2302,2335,1833,1
1566.0,2265,2314,1801,1
1567.0,2207,2319,1809,1
1568.0,2188,2369,1784,1
1569.0,2235,2383,1778,1
1570.0,2249,2417,1782,1
1571.0,2246,2424,1794,1
1572.0,2245,2413,1818,1
1573.0,2254,2395,1828,1
1574.0,2265,2381,1839,1
1575.0,2268,2343,1853,1
1576.0,2264,2346,1833,1
1577.0,2259,2343,1811,1
1578.0,2235,2340,1800,1
1579.0,2215,2347,1794,1
1580.0,2211,2367,1786,1
1581.0,2218,2415,1779,1
1582.0,2223,2438,1768,1
1583.0,2230,2430,1794,1
1584.0,2234,2415,1803,1
1585.0,2243,2390,1828,1
1586.0,2251,2372,1823,1
1587.0,2247,2341,1844,1
1588.0,2270,2326,1839,1
1589.0,2279,2326,1806,1
1590.0,2241,2336,1797,1
1591.0,2195,2344,1792,1
1592.0,2177,2379,1780,1
1593.0,2177,2420,1771,1
1594.0,2204,2457,1778,1
1595.0,2225,2465,1796,1
1596.0,2221,2464,1804,1
1597.0,2196,2451,1773,1
1598.0,2157,2424,1763,1
1599.0,2101,2375,1779,1
1600.0,2121,2365,1781,1
1601.0,2183,2371,1805,1
1602.0,2248,2374,1798,1
1603.0,2270,2362,1813,1
1604.0,2267,2364,1823,1
1605.0,2261,2306,1862,1
1606.0,2307,2506,1785,1
1607.0,2267,2495,1742,1
1608.0,2146,2331,1791,1
1609.0,2228,2465,1793,1
1610.0,2215,2411,1860,1
1611.0,2135,2306,1887,1
1612.0,2061,2346,1869,1
1613.0,2033,2393,1868,1
1614.0,2019,2460,1877,1
1615.0,2139,2645,1734,1
1616.0,2088,2307,1871,1
1617.0,2199,2503,1754,1
1618.0,2230,2385,1799,1
1619.0,2277,2369,1779,1
1620.0,2147,2411,1857,1
1621.0,2144,2494,1834,1
1622.0,2147,2479,1829,1
1623.0,2192,2451,1852,1
1624.0,2204,2434,1857,1
1625.0,2244,2489,1852,1
1626.0,2193,2469,1837,1
1627.0,2122,2430,1839,1
1628.0,2166,2491,1841,1
1629.0,2183,2463,1892,1
1630.0,2141,2439,1831,1
1631.0,2043,2359,1859,1
1632.0,2106,2501,1823,1
1633.0,2174,2494,1884,1
1634.0,2188,2433,1905,1
1635.0,2161,2436,1855,1
1636.0,2164,2454,1807,1
1637.0,2184,2463,1801,1
1638.0,2183,2460,1805,1
1639.0,2159,2411,1837,1
1640.0,2135,2437,1820,1
1641.0,2109,2430,1840,1
1642.0,2102,2419,1833,1
1643.0,2174,2450,1759,1
1644.0,2201,2441,1716,1
1645.0,2171,2384,1768,1
1646.0,2168,2357,1752,1
1647.0,2176,2369,1728,1
1648.0,2205,2366,1698,1
1649.0,2163,2317,1786,1
1650.0,2111,2319,1780,1
1651.0,2146,2341,1782,1
1652.0,2166,2408,1831,1
1653.0,2167,2454,1837,1
1654.0,2102,2451,1895,1
1655.0,2092,2477,1823,1
1656.0,2169,2474,1759,1
1657.0,2215,2407,1700,1
1658.0,2171,2347,1712,1
1659.0,2177,2309,1767,1
1660.0,2130,2348,1912,1
1661.0,2147,2477,1930,1
1662.0,2133,2621,1891,1
1663.0,2155,2479,1831,1
1664.0,2187,2353,1783,1
1665.0,2163,2295,1709,1
1666.0,2108,2341,1689,1
1667.0,2119,2399,1786,1
1668.0,2191,2431,1825,1
1669.0,2189,2381,1773,1
1670.0,2101,2318,1741,1
1671.0,2137,2407,1801,1
1672.0,2269,2412,2045,1
1673.0,2238,2394,1927,1
1674.0,2217,2344,1767,1
1675.0,2073,2198,1654,1
1676.0,2105,2238,1639,1
1677.0,2178,2325,1603,1
1678.0,2305,2381,1706,1
1679.0,2273,2302,1774,1
1680.0,2211,2238,1734,1
1681.0,2199,2270,1745,1
1682.0,2252,2269,1735,1
1683.0,2221,2316,1772,1
1684.0,2190,2340,1778,1
1685.0,2202,2293,1754,1
1686.0,2217,2295,1759,1
1687.0,2222,2318,1758,1
1688.0,2224,2316,1764,1
1689.0,2190,2257,1755,1
1690.0,2194,2256,1752,1
1691.0,2203,2287,1757,1
1692.0,2206,2328,1708,1
1693.0,2151,2331,1676,1
1694.0,2186,2278,1765,1
1695.0,2355,2225,1738,1
1696.0,2356,2221,1757,1
1697.0,2282,2294,1769,1
1698.0,2193,2347,1799,1
1699.0,2192,2322,1812,1
1700.0,2240,2263,1714,1
1701.0,2244,2266,1723,1
1702.0,2233,2283,1719,1
1703.0,2194,2271,1754,1
1704.0,2216,2271,1799,1
1705.0,2216,2274,1710,1
1706.0,2167,2251,1713,1
1707.0,2203,2297,1711,1
1708.0,2228,2250,1723,1
1709.0,2182,2246,1741,1
1710.0,2203,2475,1746,1
1711.0,2125,2380,1826,1
1712.0,2169,2251,1783,1
1713.0,2194,2217,1755,1
1714.0,2142,2178,1635,1
1715.0,2102,2063,1671,1
1716.0,2044,2333,1697,1
1717.0,2594,2691,1816,1
1718.0,2273,2268,1556,1
1719.0,2180,2233,1666,1
1720.0,2083,2262,1763,1
1721.0,2117,2392,1733,1
1722.0,2014,2405,1787,1
1723.0,2161,2583,1755,1
1724.0,2079,2014,1749,1
1725.0,2152,2222,1712,1
1726.0,2188,2279,1692,1
1727.0,2245,2335,1567,1
1728.0,2353,2533,1715,1
1729.0,1992,2420,1745,1
1730.0,2097,2334,1781,1
1731.0,2070,2195,1847,1
1732.0,2037,2296,1775,1
1733.0,2122,2355,1777,1
1734.0,2113,2459,1777,1
1735.0,2098,2505,1844,1
1736.0,2036,2461,1811,1
1737.0,1999,2401,1829,1
1738.0,2025,2480,1842,1
1739.0,2014,2548,1819,1
1740.0,2044,2439,1765,1
1741.0,2031,2356,1798,1
1742.0,1992,2441,1755,1
1743.0,1993,2478,1866,1
1744.0,1973,2467,1861,1
1745.0,1955,2411,1840,1
1746.0,1934,2390,1903,1
1747.0,1982,2442,1871,1
1748.0,1915,2408,1883,1
1749.0,1984,2415,1844,1
1750.0,1917,2434,1968,1
1751.0,1908,2537,1965,1
1752.0,1966,2500,1869,1
1753.0,1933,2387,1843,1
1754.0,1953,2431,1889,1
1755.0,1981,2458,1817,1
1756.0,1942,2347,1822,1
1757.0,1861,2429,1866,1
1758.0,1858,2562,1826,1
1759.0,1997,2541,1823,1
1760.0,1918,2479,1842,1
1761.0,1929,2435,1779,1
1762.0,2029,2430,1786,1
1763.0,2095,2477,1821,1
1764.0,2035,2445,1803,1
1765.0,1946,2364,1780,1
1766.0,1970,2391,1770,1
1767.0,2028,2377,1771,1
1768.0,2067,2410,1751,1
1769.0,2021,2418,1769,1
1770.0,1973,2321,1773,1
1771.0,1949,2309,1759,1
1772.0,1949,2287,1801,1
1773.0,1980,2334,1763,1
1774.0,2076,2381,1757,1
1775.0,2093,2360,1785,1
1776.0,2052,2305,1736,1
1777.0,2000,2307,1722,1
1778.0,2039,2335,1741,1
1779.0,2069,2319,1687,1
1780.0,2019,2290,1710,1
1781.0,1991,2282,1723,1
1782.0,1960,2300,1736,1
1783.0,2023,2242,1704,1
1784.0,2031,2313,1720,1
1785.0,2038,2353,1755,1
1786.0,1996,2311,1759,1
1787.0,1999,2279,1703,1
1788.0,2010,2313,1767,1
1789.0,2081,2225,1703,1
1790.0,2088,2273,1758,1
1791.0,2048,2370,1756,1
1792.0,2085,2432,1839,1
1793.0,2052,2305,1747,1
1794.0,2018,2287,1679,1
1795.0,2083,2331,1683,1
1796.0,2019,2364,1775,1
1797.0,2032,2327,1764,1
1798.0,2044,2305,1795,1
1799.0,2020,2280,1723,1
1800.0,2057,2316,1703,1
1801.0,1984,2351,1709,1
1802.0,1953,2371,1730,1
1803.0,2110,2301,1684,1
1804.0,2053,2311,1719,1
1805.0,1989,2319,1756,1
1806.0,1941,2314,1789,1
1807.0,1998,2311,1777,1
1808.0,1991,2317,1778,1
1809.0,2023,2276,1747,1
1810.0,2016,2262,1715,1
1811.0,1989,2409,1763,1
1812.0,2043,2355,1680,1
1813.0,2133,2278,1724,1
1814.0,1998,2364,1661,1
1815.0,2075,2275,1801,1
1816.0,1987,2296,1703,1
1817.0,1965,2332,1763,1
1818.0,1999,2335,1737,1
1819.0,2014,2309,1740,1
1820.0,2130,2272,1649,1
1821.0,2084,2238,1704,1
1822.0,1994,2376,1767,1
1823.0,2002,2326,1717,1
1824.0,1995,2266,1698,1
1825.0,2047,2326,1757,1
1826.0,2112,2444,1850,1
1827.0,2069,2351,1758,1
1828.0,1982,2195,1607,1
1829.0,1979,2255,1692,1
1830.0,2078,2358,1838,1
1831.0,2132,2384,1869,1
1832.0,2076,2274,1721,1
1833.0,2042,2162,1609,1
1834.0,2026,2357,1741,1
1835.0,2113,2361,1781,1
1836.0,2116,2328,1725,1
1837.0,2083,2359,1733,1
1838.0,2075,2377,1807,1
1839.0,2059,2397,1827,1
1840.0,2065,2316,1807,1
1841.0,2085,2337,1711,1
1842.0,2113,2393,1754,1
1843.0,2148,2405,1859,1
1844.0,2153,2414,1862,1
1845.0,2037,2329,1833,1
1846.0,2055,2432,1843,1
1847.0,2054,2442,1831,1
1848.0,2045,2523,1830,1
1849.0,2067,2528,1792,1
1850.0,2059,2480,1778,1
1851.0,2065,2410,1794,1
1852.0,2069,2413,1789,1
1853.0,2054,2462,1785,1
1854.0,2031,2473,1782,1
1855.0,2069,2444,1817,1
1856.0,2073,2480,1804,1
1857.0,2090,2477,1775,1
1858.0,2090,2432,1855,1
1859.0,1988,2462,1907,1
1860.0,1959,2437,1892,1
1861.0,1966,2418,1878,1
1862.0,1993,2442,1865,1
1863.0,2017,2474,1867,1
1864.0,2046,2498,1867,1
1865.0,2071,2518,1851,1
1866.0,2043,2477,1844,1
1867.0,2000,2443,1858,1
1868.0,1987,2458,1864,1
1869.0,2043,2495,1854,1
1870.0,1969,2410,1904,1
1871.0,1969,2412,1907,1
1872.0,1962,2423,1920,1
1873.0,1926,2457,1946,1
1874.0,2010,2478,1874,1
1875.0,2021,2474,1816,1
1876.0,2061,2479,1827,1
1877.0,2040,2475,1882,1
1878.0,1958,2441,1926,1
1879.0,1922,2463,1921,1
1880.0,1988,2502,1914,1
1881.0,1988,2473,2102,1
1882.0,1977,2541,1879,1
1883.0,2016,2460,1797,1
1884.0,2064,2470,1797,1
1885.0,1982,2523,1922,1
1886.0,1952,2470,1935,1
1887.0,1913,2453,1944,1
1888.0,1880,2445,1938,1
1889.0,1890,2476,1918,1
1890.0,1930,2516,1957,1
1891.0,1989,2503,1954,1
1892.0,1970,2477,1946,1
1893.0,1921,2389,1944,1
1894.0,1907,2480,1921,1
1895.0,1970,2525,1938,1
1896.0,1991,2527,1966,1
1897.0,1952,2491,1972,1
1898.0,1952,2476,1963,1
1899.0,1969,2509,1926,1
1900.0,2024,2531,1908,1
1901.0,1936,2498,1917,1
1902.0,1917,2509,1900,1
1903.0,1944,2477,1945,1
1904.0,1933,2504,1986,1
1905.0,1945,2520,1963,1
1906.0,1964,2506,1873,1
1907.0,1922,2460,1895,1
1908.0,1909,2492,1985,1
1909.0,1918,2521,1997,1
1910.0,1947,2548,1999,1
1911.0,1990,2484,1953,1
1912.0,1919,2432,1967,1
1913.0,1908,2438,1905,1
1914.0,1925,2443,1891,1
1915.0,1945,2479,1943,1
1916.0,1935,2487,1975,1
1917.0,1942,2505,1994,1
1918.0,1982,2489,1923,1
1919.0,1929,2511,1937,1
1920.0,1935,2441,1942,1
1921.0,1916,2551,1944,1
1922.0,1954,2503,1919,1
1923.0,2091,2458,2017,1
1924.0,1901,2539,2039,1
1925.0,1937,2531,2032,1
1926.0,1955,2501,1941,1
1927.0,1949,2483,1928,1
1928.0,1930,2489,1928,1
1929.0,1940,2498,1949,1
1930.0,1989,2503,1986,1
1931.0,1893,2564,2039,1
1932.0,1937,2471,1930,1
1933.0,1951,2510,1881,1
1934.0,1875,2539,1944,1
1935.0,1938,2376,1919,1
1936.0,1895,2521,2038,1
1937.0,1862,2467,2028,1
1938.0,1933,2443,1928,1
1939.0,1951,2477,1932,1
1940.0,1927,2467,1947,1
1941.0,1898,2498,1900,1
1942.0,1927,2477,1951,1
1943.0,1916,2487,1918,1
1944.0,1929,2499,1986,1
1945.0,1933,2523,1947,1
1946.0,1969,2517,1934,1
1947.0,1939,2495,1934,1
1948.0,1948,2503,1945,1
1949.0,1900,2498,1971,1
1950.0,1966,2492,1947,1
1951.0,1945,2500,1921,1
1952.0,1967,2491,1906,1
1953.0,1787,2516,1885,1
1954.0,1850,2445,1888,1
1955.0,1929,2473,1948,1
1956.0,1961,2514,2010,1
1957.0,1967,2503,1964,1
1958.0,1937,2468,1898,1
1959.0,1923,2427,1903,1
1960.0,1851,2411,1961,1
1961.0,1852,2451,2112,1
1962.0,1911,2501,1976,1
1963.0,1977,2503,1915,1
1964.0,1990,2518,1953,1
1965.0,1751,2679,1967,1
1966.0,1874,2269,1981,1
1967.0,1795,2413,1965,1
1968.0,1831,2477,2007,1
1969.0,1915,2517,1947,1
1970.0,2006,2555,1937,1
1971.0,1920,2489,1958,1
1972.0,1902,2474,2011,1
1973.0,1932,2468,1954,1
1974.0,1901,2487,1930,1
1975.0,1884,2480,1943,1
1976.0,1890,2475,1961,1
1977.0,1906,2467,1949,1
1978.0,1868,2457,1980,1
1979.0,1823,2456,1984,1
1980.0,1864,2482,1980,1
1981.0,1892,2497,1956,1
1982.0,1887,2480,1960,1
1983.0,1886,2465,1963,1
1984.0,1886,2451,1994,1
1985.0,1873,2541,1967,1
1986.0,1938,2578,1960,1
1987.0,1936,2598,1939,1
1988.0,1967,2565,1941,1
1989.0,1979,2505,1941,1
1990.0,1935,2473,1994,1
1991.0,1866,2447,2042,1
1992.0,1812,2490,2049,1
1993.0,1836,2457,2013,1
1994.0,1912,2409,2002,1
1995.0,1972,2385,2004,1
1996.0,1976,2437,2011,1
1997.0,2083,2472,1966,1
1998.0,2073,2491,1904,1
1999.0,2107,2524,1923,1
2000.0,2114,2530,1924,1
2001.0,2094,2581,1925,1
2002.0,2070,2600,1935,1
2003.0,2028,2578,1945,1
2004.0,1994,2541,1964,1
2005.0,1980,2511,1967,1
2006.0,2038,2509,1974,1
2007.0,2065,2518,1963,1
2008.0,2067,2529,1961,1
2009.0,2065,2537,1966,1
2010.0,2070,2532,1966,1
2011.0,2068,2531,1974,1
2012.0,2067,2531,1978,1
2013.0,2068,2535,1981,1
2014.0,2072,2541,1980,1
2015.0,2070,2546,1982,1
2016.0,2079,2547,1983,1
2017.0,2080,2539,1984,1
2018.0,2078,2537,1983,1
2019.0,2086,2534,1993,1
2020.0,2088,2536,1989,1
2021.0,2090,2535,1986,1
2022.0,2096,2531,1986,1
2023.0,2100,2534,1983,1
2024.0,2099,2540,1986,1
2025.0,2108,2531,1993,1
2026.0,2100,2530,2001,1
2027.0,2103,2529,2003,1
2028.0,2101,2520,1994,1
2029.0,2104,2531,1990,1
2030.0,2106,2527,1991,1
2031.0,2103,2529,1999,1
2032.0,2096,2524,2004,1
2033.0,2107,2522,1995,1
2034.0,2120,2531,1998,1
2035.0,2114,2526,1999,1
2036.0,2104,2526,1999,1
2037.0,2111,2526,1997,1
2038.0,2120,2530,1996,1
2039.0,2119,2528,2001,1
2040.0,2110,2535,1990,1
2041.0,2110,2533,1990,1
2042.0,2119,2538,1994,1
2043.0,2111,2534,1993,1
2044.0,2126,2537,2000,1
2045.0,2129,2531,1997,1
2046.0,2125,2535,2000,1
2047.0,2123,2525,2001,1
2048.0,2129,2529,2000,1
2049.0,2126,2528,1997,1
2050.0,2123,2526,1994,1
2051.0,2120,2524,1997,1
2052.0,2119,2527,1999,1
2053.0,2121,2523,1998,1
2054.0,2117,2526,1997,1
2055.0,2116,2527,1998,1
2056.0,2118,2527,1992,1
2057.0,2117,2531,1998,1
2058.0,2120,2529,1997,1
2059.0,2120,2530,1998,1
2060.0,2120,2529,1998,1
2061.0,2122,2528,1999,1
2062.0,2122,2533,1995,1
2063.0,2126,2534,1995,1
2064.0,2121,2532,1994,1
2065.0,2118,2539,1997,1
2066.0,2121,2531,1991,1
2067.0,2113,2535,1998,1
2068.0,2108,2535,1993,1
2069.0,2122,2542,1971,1
2070.0,2123,2534,2019,1
2071.0,2125,2526,2026,1
2072.0,2125,2525,2008,1
2073.0,2131,2541,2012,1
2074.0,2153,2538,2019,1
2075.0,2154,2531,2030,1
2076.0,2152,2520,2030,1
2077.0,2158,2527,2038,1
2078.0,2157,2526,2032,1
2079.0,2160,2529,2046,1
2080.0,2167,2515,2038,1
2081.0,2179,2511,2042,1
2082.0,2175,2523,2055,1
2083.0,2174,2521,2044,1
2084.0,2164,2526,2042,1
2085.0,2168,2517,2041,1
2086.0,2163,2519,2040,1
2087.0,2159,2521,2043,1
2088.0,2162,2521,2040,1
2089.0,2152,2525,2041,1
2090.0,2155,2521,2035,1
2091.0,2151,2549,2022,1
2092.0,2130,2556,2015,1
2093.0,2136,2545,2015,1
2094.0,2127,2541,2002,1
2095.0,2139,2525,2004,1
2096.0,2136,2530,1995,1
2097.0,2133,2539,2005,1
2098.0,2123,2535,2028,1
2099.0,2128,2527,2044,1
2100.0,2133,2518,2041,1
2101.0,2162,2510,2036,1
2102.0,2178,2507,2021,1
2103.0,2173,2521,2005,1
2104.0,2171,2515,1987,1
2105.0,2149,2535,1970,1
2106.0,2113,2549,1964,1
2107.0,2068,2566,1965,1
2108.0,2056,2558,1996,1
2109.0,2084,2535,2023,1
2110.0,2112,2520,2031,1
2111.0,2158,2526,2008,1
2112.0,2201,2511,1998,1
2113.0,2213,2491,2010,1
2114.0,2169,2503,1998,1
2115.0,2146,2519,1991,1
2116.0,2126,2531,1978,1
2117.0,2105,2525,1964,1
2118.0,2091,2541,1957,1
2119.0,2069,2566,1954,1
2120.0,2089,2556,1991,1
2121.0,2101,2551,2009,1
2122.0,2132,2524,2009,1
2123.0,2167,2494,2003,1
2124.0,2209,2478,2002,1
2125.0,2179,2517,1988,1
2126.0,2149,2523,1984,1
2127.0,2121,2525,1966,1
2128.0,2086,2521,1959,1
2129.0,2067,2551,1958,1
2130.0,2071,2558,1974,1
2131.0,2084,2553,1991,1
2132.0,2105,2542,2000,1
2133.0,2139,2506,1994,1
2134.0,2169,2486,1992,1
2135.0,2185,2488,1983,1
2136.0,2159,2517,1979,1
2137.0,2134,2514,1978,1
2138.0,2119,2509,1960,1
2139.0,2100,2513,1959,1
2140.0,2075,2545,1962,1
2141.0,2048,2562,1954,1
2142.0,2057,2544,1962,1
2143.0,2099,2549,1986,1
2144.0,2132,2515,1977,1
2145.0,2159,2498,1977,1
2146.0,2158,2510,1976,1
2147.0,2139,2510,1974,1
2148.0,2134,2507,1964,1
2149.0,2134,2516,1954,1
2150.0,2114,2527,1959,1
2151.0,2100,2535,1975,1
2152.0,2100,2542,1974,1
2153.0,2100,2540,1965,1
2154.0,2125,2524,1960,1
2155.0,2111,2525,1959,1
2156.0,2123,2506,1967,1
2157.0,2147,2500,1963,1
2158.0,2160,2493,1971,1
2159.0,2127,2502,1965,1
2160.0,2136,2514,1974,1
2161.0,2123,2510,1976,1
2162.0,2128,2507,1971,1
2163.0,2125,2510,1967,1
2164.0,2110,2529,1970,1
2165.0,2099,2547,1961,1
2166.0,2095,2539,1969,1
2167.0,2096,2541,1975,1
2168.0,2084,2547,1976,1
2169.0,2087,2533,1978,1
2170.0,2112,2533,1977,1
2171.0,2115,2534,1978,1
2172.0,2117,2527,1983,1
2173.0,2120,2521,1986,1
2174.0,2119,2512,1982,1
2175.0,2113,2533,1983,1
2176.0,2103,2551,1999,1
2177.0,2104,2545,1973,1
2178.0,2119,2529,1970,1
2179.0,2120,2533,1984,1
2180.0,2133,2528,1992,1
2181.0,2131,2522,1987,1
2182.0,2145,2518,1980,1
2183.0,2142,2512,1995,1
2184.0,2136,2517,1997,1
2185.0,2138,2525,2011,1
2186.0,2144,2538,2005,1
2187.0,2144,2543,1998,1
2188.0,2152,2542,1995,1
2189.0,2150,2536,1989,1
2190.0,2135,2539,1993,1
2191.0,2126,2555,2005,1
2192.0,2108,2530,2018,1
2193.0,2110,2532,1994,1
2194.0,2101,2539,1979,1
2195.0,2142,2546,1987,1
2196.0,2162,2558,2021,1
2197.0,2154,2547,2020,1
2198.0,2140,2535,2005,1
2199.0,2163,2531,2010,1
2200.0,2168,2503,2007,1
2201.0,2149,2510,2007,1
2202.0,2151,2506,2014,1
2203.0,2188,2481,2033,1
2204.0,2217,2489,2050,1
2205.0,2240,2500,2065,1
2206.0,2206,2523,2059,1
2207.0,2188,2522,2048,1
2208.0,2209,2495,2045,1
2209.0,2231,2495,2050,1
2210.0,2197,2490,1995,1
2211.0,2198,2492,1996,1
2212.0,2205,2496,2004,1
2213.0,2206,2500,2025,1
2214.0,2227,2510,2025,1
2215.0,2210,2516,2015,1
2216.0,2213,2520,2013,1
2217.0,2220,2509,2006,1
2218.0,2195,2482,1999,1
2219.0,2203,2500,1997,1
2220.0,2216,2524,1998,1
2221.0,2207,2538,2000,1
2222.0,2207,2522,1993,1
2223.0,2212,2510,2010,1
2224.0,2217,2493,2013,1
2225.0,2209,2485,2003,1
2226.0,2230,2494,2020,1
2227.0,2231,2491,2021,1
2228.0,2216,2503,2011,1
2229.0,2229,2536,2013,1
2230.0,2219,2525,2000,1
2231.0,2204,2505,2002,1
2232.0,2210,2502,2004,1
2233.0,2230,2502,2000,1
2234.0,2226,2507,2006,1
2235.0,2208,2506,2007,1
2236.0,2208,2506,2001,1
2237.0,2214,2505,2002,1
2238.0,2215,2495,1997,1
2239.0,2213,2497,1999,1
2240.0,2206,2510,1992,1
2241.0,2202,2515,1992,1
2242.0,2216,2505,1999,1
2243.0,2241,2497,2000,1
2244.0,2219,2506,2000,1
2245.0,2217,2505,1997,1
2246.0,2211,2527,2002,1
2247.0,2216,2525,1993,1
2248.0,2211,2511,1995,1
2249.0,2216,2518,1981,1
2250.0,2240,2507,1994,1
2251.0,2240,2503,2002,1
2252.0,2222,2509,1994,1
2253.0,2213,2504,1995,1
2254.0,2209,2507,2001,1
2255.0,2223,2479,2012,1
2256.0,2228,2485,2020,1
2257.0,2215,2511,2002,1
2258.0,2194,2515,2004,1
2259.0,2207,2500,2007,1
2260.0,2230,2478,2001,1
2261.0,2262,2483,2011,1
2262.0,2253,2495,2005,1
2263.0,2241,2497,1996,1
2264.0,2219,2521,1997,1
2265.0,2203,2516,1998,1
2266.0,2201,2527,1996,1
2267.0,2211,2525,1986,1
2268.0,2224,2513,1992,1
2269.0,2230,2503,1992,1
2270.0,2220,2507,1987,1
2271.0,2209,2511,1992,1
2272.0,2211,2515,1982,1
2273.0,2214,2515,1996,1
2274.0,2206,2501,1995,1
2275.0,2219,2495,2003,1
2276.0,2211,2495,2000,1
2277.0,2211,2499,1997,1
2278.0,2219,2498,1991,1
2279.0,2235,2502,1998,1
2280.0,2231,2502,1995,1
2281.0,2225,2500,1997,1
2282.0,2235,2499,2000,1
2283.0,2237,2497,2003,1
2284.0,2230,2504,1997,1
2285.0,2215,2515,1989,1
2286.0,2219,2506,1983,1
2287.0,2219,2510,1987,1
2288.0,2217,2509,1985,1
2289.0,2228,2500,1980,1
2290.0,2231,2488,1990,1
2291.0,2225,2488,1998,1
2292.0,2216,2490,1997,1
2293.0,2225,2504,2003,1
2294.0,2216,2508,1997,1
2295.0,2194,2510,1981,1
2296.0,2204,2507,1990,1
2297.0,2208,2521,1987,1
2298.0,2213,2515,1990,1
2299.0,2212,2523,1986,1
2300.0,2213,2514,1991,1
2301.0,2208,2514,2002,1
2302.0,2220,2525,1991,1
2303.0,2249,2535,2001,1
2304.0,2225,2540,1988,1
2305.0,2202,2516,2001,1
2306.0,2200,2510,1999,1
2307.0,2206,2487,2008,1
2308.0,2205,2496,2007,1
2309.0,2228,2503,2010,1
2310.0,2220,2509,2023,1
2311.0,2213,2463,2034,1
2312.0,2231,2460,2050,1
2313.0,2244,2507,2011,1
2314.0,2237,2539,2014,1
2315.0,2216,2555,2006,1
2316.0,2211,2529,1993,1
2317.0,2226,2533,1982,1
2318.0,2236,2544,1987,1
2319.0,2221,2525,1991,1
2320.0,2217,2506,1999,1
2321.0,2202,2464,2009,1
2322.0,2204,2459,2011,1
2323.0,2224,2480,2016,1
2324.0,2231,2467,2016,1
2325.0,2229,2487,2018,1
2326.0,2232,2490,2005,1
2327.0,2231,2501,1999,1
2328.0,2235,2515,2002,1
2329.0,2230,2492,2002,1
2330.0,2233,2490,1999,1
2331.0,2235,2498,1996,1
2332.0,2238,2518,1991,1
2333.0,2231,2530,1993,1
2334.0,2236,2505,1985,1
2335.0,2228,2499,1980,1
2336.0,2232,2502,1984,1
2337.0,2234,2499,1990,1
2338.0,2226,2487,1999,1
2339.0,2226,2477,2006,1
2340.0,2238,2475,2022,1
2341.0,2245,2489,2014,1
2342.0,2241,2495,2004,1
2343.0,2243,2497,1989,1
2344.0,2247,2495,1978,1
2345.0,2231,2497,1994,1
2346.0,2235,2467,2020,1
2347.0,2243,2502,2013,1
2348.0,2238,2487,2014,1
2349.0,2250,2485,2020,1
2350.0,2233,2487,2022,1
2351.0,2243,2503,2034,1
2352.0,2223,2520,2005,1
2353.0,2209,2514,1973,1
2354.0,2226,2513,2003,1
2355.0,2228,2519,2028,1
2356.0,2217,2522,2017,1
2357.0,2203,2513,2020,1
2358.0,2207,2503,2027,1
2359.0,2201,2507,2027,1
2360.0,2196,2523,2024,1
2361.0,2212,2538,2029,1
2362.0,2192,2534,2020,1
2363.0,2168,2525,2007,1
2364.0,2155,2509,1996,1
2365.0,2172,2521,2004,1
2366.0,2205,2524,2037,1
2367.0,2200,2529,2041,1
2368.0,2169,2516,2012,1
2369.0,2153,2518,2004,1
2370.0,2165,2520,2008,1
2371.0,2203,2521,2031,1
2372.0,2203,2523,2013,1
2373.0,2187,2519,2023,1
2374.0,2177,2521,2019,1
2375.0,2169,2529,2021,1
2376.0,2186,2525,2018,1
2377.0,2193,2531,2029,1
2378.0,2186,2530,2017,1
2379.0,2181,2522,2023,1
2380.0,2191,2495,2031,1
2381.0,2191,2496,2033,1
2382.0,2198,2512,2043,1
2383.0,2181,2503,2026,1
2384.0,2196,2519,2031,1
2385.0,2200,2534,2033,1
2386.0,2184,2527,2034,1
2387.0,2184,2522,2035,1
2388.0,2186,2518,2033,1
2389.0,2189,2524,2037,1
2390.0,2203,2529,2042,1
2391.0,2193,2522,2037,1
2392.0,2191,2520,2038,1
2393.0,2176,2511,2037,1
2394.0,2171,2519,2041,1
2395.0,2177,2517,2039,1
2396.0,2181,2511,2039,1
2397.0,2174,2523,2038,1
2398.0,2176,2533,2038,1
2399.0,2185,2518,2042,1
2400.0,2177,2509,2049,1
2401.0,2175,2527,2031,1
2402.0,2161,2541,2038,1
2403.0,2160,2538,2032,1
2404.0,2156,2527,2017,1
2405.0,2160,2520,2018,1
2406.0,2169,2531,2024,1
2407.0,2163,2567,2032,1
2408.0,2202,2535,2057,1
2409.0,2184,2524,2056,1
2410.0,2157,2546,2034,1
2411.0,2122,2535,2015,1
2412.0,2112,2519,2004,1
2413.0,2114,2512,1997,1
2414.0,2122,2528,1980,1
2415.0,2125,2559,1989,1
2416.0,2159,2578,2011,1
2417.0,2175,2553,2035,1
2418.0,2147,2515,2040,1
2419.0,2137,2509,2027,1
2420.0,2128,2540,2010,1
2421.0,2122,2534,1998,1
2422.0,2100,2510,1983,1
2423.0,2074,2495,1979,1
2424.0,2063,2480,1977,1
2425.0,2092,2495,1994,1
2426.0,2127,2521,2014,1
2427.0,2122,2506,2029,1
2428.0,2126,2511,2036,1
2429.0,2141,2539,2038,1
2430.0,2171,2540,2048,1
2431.0,2213,2579,2061,1
2432.0,2259,2570,2074,1
2433.0,2257,2579,2086,1
2434.0,2178,2590,2074,1
2435.0,2139,2560,2062,1
2436.0,2119,2539,2055,1
2437.0,2098,2522,2058,1
2438.0,2083,2495,2056,1
2439.0,2070,2498,2038,1
2440.0,2096,2519,2050,1
2441.0,2119,2514,2061,1
2442.0,2108,2523,2067,1
2443.0,2116,2545,2072,1
2444.0,2169,2534,2067,1
2445.0,2206,2560,2063,1
2446.0,2180,2565,2063,1
2447.0,2122,2556,2070,1
2448.0,2108,2571,2076,1
2449.0,2129,2555,2087,1
2450.0,2153,2561,2080,1
2451.0,2160,2573,2074,1
2452.0,2137,2544,2068,1
2453.0,2127,2503,2067,1
2454.0,2115,2535,2062,1
2455.0,2107,2522,2087,1
2456.0,2091,2541,2097,1
2457.0,2125,2573,2089,1
2458.0,2115,2523,2053,1
2459.0,2101,2514,2037,1
2460.0,2105,2511,2046,1
2461.0,2109,2510,2087,1
2462.0,2137,2523,2136,1
2463.0,2159,2536,2153,1
2464.0,2142,2532,2134,1
2465.0,2142,2531,2122,1
2466.0,2119,2526,2112,1
2467.0,2120,2530,2116,1
2468.0,2120,2527,2119,1
2469.0,2112,2530,2124,1
2470.0,2122,2529,2128,1
2471.0,2130,2538,2118,1
2472.0,2135,2538,2110,1
2473.0,2128,2544,2110,1
2474.0,2125,2532,2100,1
2475.0,2124,2530,2102,1
2476.0,2125,2536,2110,1
2477.0,2134,2534,2113,1
2478.0,2116,2533,2109,1
2479.0,2122,2530,2109,1
2480.0,2121,2533,2106,1
2481.0,2120,2525,2107,1
2482.0,2124,2534,2108,1
2483.0,2126,2529,2102,1
2484.0,2129,2530,2113,1
2485.0,2134,2536,2108,1
2486.0,2122,2529,2109,1
2487.0,2120,2535,2108,1
2488.0,2126,2532,2117,1
2489.0,2126,2537,2113,1
2490.0,2121,2533,2110,1
2491.0,2125,2543,2111,1
2492.0,2115,2537,2107,1
2493.0,2125,2541,2112,1
2494.0,2123,2540,2107,1
2495.0,2126,2538,2112,1
2496.0,2126,2531,2107,1
2497.0,2118,2528,2102,1
2498.0,2121,2527,2107,1
2499.0,2126,2537,2106,1
2500.0,2126,2541,2113,1
2501.0,2126,2533,2107,1
2502.0,2119,2532,2110,1
2503.0,2113,2537,2108,1
2504.0,2124,2540,2107,1
2505.0,2126,2533,2111,1
2506.0,2123,2539,2109,1
2507.0,2119,2534,2109,1
2508.0,2124,2539,2109,1
2509.0,2122,2536,2109,1
2510.0,2124,2534,2113,1
2511.0,2125,2534,2115,1
2512.0,2126,2531,2110,1
2513.0,2122,2529,2110,1
2514.0,2127,2536,2112,1
2515.0,2121,2534,2111,1
2516.0,2127,2530,2111,1
2517.0,2125,2531,2106,1
2518.0,2124,2538,2110,1
2519.0,2127,2542,2110,1
2520.0,2126,2533,2110,1
2521.0,2126,2538,2106,1
2522.0,2125,2541,2110,1
2523.0,2124,2539,2102,1
2524.0,2114,2529,2103,1
2525.0,2109,2521,2108,1
2526.0,2114,2521,2096,1
2527.0,2117,2528,2105,1
2528.0,2131,2537,2103,1
2529.0,2121,2526,2095,1
2530.0,2107,2517,2086,1
2531.0,2105,2505,2088,1
2532.0,2110,2523,2088,1
2533.0,2108,2549,2081,1
2534.0,2121,2579,2081,1
2535.0,2123,2642,2078,1
2536.0,2135,2622,2107,1
2537.0,2133,2504,2116,1
2538.0,2138,2396,2120,1
2539.0,2146,2500,2089,1
2540.0,2129,2555,2095,1
2541.0,2120,2540,2098,1
2542.0,2121,2551,2089,1
2543.0,2108,2561,2070,1
2544.0,2091,2497,2074,1
2545.0,2079,2487,2067,1
2546.0,2080,2543,2096,1
2547.0,2102,2651,2134,1
2548.0,2146,2697,2157,1
2549.0,2153,2618,2112,1
2550.0,2083,2533,1965,1
2551.0,2083,2535,1967,1
2552.0,2085,2570,1977,1
2553.0,2112,2594,2011,1
2554.0,2152,2582,2067,1
2555.0,2190,2564,2135,1
2556.0,2180,2575,2195,1
2557.0,2096,2587,2142,1
2558.0,2046,2567,2091,1
2559.0,2037,2575,2055,1
2560.0,2051,2460,2037,1
2561.0,2075,2373,2015,1
2562.0,2090,2435,1998,1
2563.0,2139,2587,1997,1
2564.0,2193,2638,2021,1
2565.0,2240,2599,2097,1
2566.0,2188,2587,2142,1
2567.0,2092,2554,2117,1
2568.0,2031,2506,2083,1
2569.0,2001,2538,2040,1
2570.0,2040,2586,2057,1
2571.0,2116,2558,2054,1
2572.0,2161,2524,2029,1
2573.0,2128,2563,2024,1
2574.0,2075,2534,2052,1
2575.0,2076,2510,2057,1
2576.0,2149,2514,2007,1
2577.0,2201,2537,1988,1
2578.0,2195,2538,2078,1
2579.0,2125,2539,2113,1
2580.0,2125,2548,2105,1
2581.0,2144,2539,2084,1
2582.0,2136,2530,2079,1
2583.0,2141,2525,2076,1
2584.0,2132,2542,2075,1
2585.0,2134,2536,2073,1
2586.0,2132,2527,2067,1
2587.0,2131,2533,2066,1
2588.0,2135,2527,2061,1
2589.0,2147,2515,2069,1
2590.0,2143,2525,2073,1
2591.0,2142,2538,2078,1
2592.0,2152,2530,2079,1
2593.0,2139,2531,2071,1
2594.0,2146,2523,2063,1
2595.0,2151,2533,2063,1
2596.0,2151,2548,2055,1
2597.0,2150,2559,2042,1
2598.0,2145,2534,2066,1
2599.0,2145,2536,2066,1
2600.0,2144,2541,2082,1
2601.0,2139,2543,2075,1
2602.0,2129,2539,2067,1
2603.0,2133,2531,2070,1
2604.0,2129,2537,2067,1
2605.0,2130,2541,2071,1
2606.0,2128,2552,2073,1
2607.0,2121,2549,2076,1
2608.0,2135,2542,2079,1
2609.0,2131,2531,2081,1
2610.0,2130,2526,2101,1
2611.0,2125,2531,2101,1
2612.0,2124,2548,2091,1
2613.0,2139,2543,2079,1
2614.0,2139,2560,2084,1
2615.0,2146,2567,2078,1
2616.0,2137,2540,2076,1
2617.0,2153,2514,2076,1
2618.0,2141,2523,2091,1
2619.0,2139,2507,2099,1
2620.0,2146,2511,2107,1
2621.0,2128,2527,2102,1
2622.0,2133,2529,2091,1
2623.0,2136,2535,2087,1
2624.0,2127,2529,2091,1
2625.0,2151,2531,2094,1
2626.0,2142,2544,2099,1
2627.0,2131,2554,2102,1
2628.0,2140,2548,2090,1
2629.0,2138,2552,2087,1
2630.0,2138,2540,2099,1
2631.0,2143,2534,2096,1
2632.0,2129,2522,2120,1
2633.0,2134,2525,2105,1
2634.0,2124,2510,2116,1
2635.0,2139,2515,2106,1
2636.0,2143,2527,2110,1
2637.0,2139,2514,2117,1
2638.0,2143,2523,2107,1
2639.0,2140,2529,2113,1
2640.0,2144,2525,2117,1
2641.0,2145,2514,2118,1
2642.0,2147,2529,2111,1
2643.0,2140,2544,2109,1
2644.0,2141,2545,2098,1
2645.0,2137,2543,2096,1
2646.0,2142,2539,2096,1
2647.0,2142,2538,2100,1
2648.0,2147,2535,2099,1
2649.0,2149,2542,2095,1
2650.0,2146,2537,2099,1
2651.0,2141,2532,2094,1
2652.0,2135,2518,2098,1
2653.0,2133,2522,2093,1
2654.0,2131,2530,2098,1
2655.0,2138,2543,2092,1
2656.0,2136,2540,2084,1
2657.0,2136,2533,2094,1
2658.0,2137,2536,2098,1
2659.0,2138,2538,2097,1
2660.0,2137,2529,2099,1
2661.0,2130,2535,2096,1
2662.0,2132,2531,2089,1
2663.0,2131,2531,2081,1
2664.0,2132,2532,2089,1
2665.0,2141,2532,2097,1
2666.0,2153,2537,2094,1
2667.0,2143,2531,2094,1
2668.0,2137,2525,2095,1
2669.0,2129,2533,2089,1
2670.0,2131,2539,2091,1
2671.0,2136,2535,2090,1
2672.0,2132,2537,2091,1
2673.0,2132,2538,2089,1
2674.0,2128,2542,2087,1
2675.0,2121,2546,2099,1
2676.0,2123,2558,2102,1
2677.0,2133,2547,2096,1
2678.0,2113,2533,2095,1
2679.0,2105,2525,2076,1
2680.0,2110,2521,2075,1
2681.0,2114,2523,2085,1
2682.0,2108,2523,2095,1
2683.0,2100,2543,2104,1
2684.0,2095,2546,2095,1
2685.0,2105,2529,2076,1
2686.0,2111,2509,2075,1
2687.0,2100,2532,2074,1
2688.0,2099,2520,2089,1
2689.0,2106,2522,2079,1
2690.0,2104,2516,2079,1
2691.0,2103,2562,2060,1
2692.0,2090,2541,2064,1
2693.0,2116,2521,2065,1
2694.0,2147,2548,2081,1
2695.0,2148,2523,2102,1
2696.0,2123,2523,2034,1
2697.0,2094,2524,1977,1
2698.0,2047,2533,1930,1
2699.0,2029,2542,1915,1
2700.0,2054,2523,1986,1
2701.0,2078,2526,2068,1
2702.0,2098,2570,2114,1
2703.0,2129,2585,2125,1
2704.0,2153,2561,2098,1
2705.0,2131,2545,2059,1
2706.0,2107,2526,2039,1
2707.0,2082,2518,2027,1
2708.0,2072,2529,2051,1
2709.0,2092,2547,2054,1
2710.0,2105,2552,2058,1
2711.0,2100,2527,2037,1
2712.0,2096,2517,2040,1
2713.0,2084,2522,2024,1
2714.0,2091,2527,2032,1
2715.0,2091,2543,2028,1
2716.0,2083,2538,2014,1
2717.0,2095,2524,2025,1
2718.0,2095,2523,2031,1
2719.0,2093,2534,2009,1
2720.0,2067,2519,2000,1
2721.0,2065,2520,2002,1
2722.0,2064,2529,2007,1
2723.0,2081,2538,2009,1
2724.0,2075,2536,2012,1
2725.0,2070,2539,2013,1
2726.0,2056,2542,2019,1
2727.0,2041,2552,2019,1
2728.0,2038,2560,2031,1
2729.0,2037,2550,2030,1
2730.0,2053,2575,2028,1
2731.0,2052,2598,2031,1
2732.0,2033,2668,2032,1
2733.0,2038,2745,2030,1
2734.0,2068,2649,2049,1
2735.0,2061,2515,2063,1
2736.0,1982,2440,1999,1
2737.0,1914,2444,1938,1
2738.0,1861,2459,1921,1
2739.0,1815,2486,1986,1
2740.0,1809,2529,2074,1
2741.0,1905,2521,2026,1
2742.0,1973,2500,2035,1
2743.0,2051,2486,2046,1
2744.0,2088,2480,2046,1
2745.0,2048,2503,2019,1
2746.0,1995,2505,2041,1
2747.0,1972,2514,2041,1
2748.0,2004,2525,2034,1
2749.0,2036,2533,2037,1
2750.0,2071,2551,2045,1
2751.0,2071,2569,2034,1
2752.0,2075,2596,2045,1
2753.0,2104,2615,2080,1
2754.0,2120,2594,2081,1
2755.0,2129,2543,2049,1
2756.0,2139,2517,2053,1
2757.0,2135,2503,2077,1
2758.0,2117,2517,2112,1
2759.0,2126,2538,2117,1
2760.0,2135,2518,2110,1
2761.0,2139,2503,2093,1
2762.0,2121,2507,2085,1
2763.0,2124,2503,2101,1
2764.0,2137,2513,2091,1
2765.0,2136,2504,2092,1
2766.0,2153,2498,2108,1
2767.0,2148,2502,2106,1
2768.0,2155,2504,2096,1
2769.0,2158,2503,2097,1
2770.0,2163,2504,2096,1
2771.0,2169,2517,2102,1
2772.0,2158,2521,2097,1
2773.0,2155,2515,2085,1
2774.0,2164,2512,2081,1
2775.0,2158,2511,2076,1
2776.0,2156,2508,2059,1
2777.0,2139,2507,2056,1
2778.0,2141,2511,2054,1
2779.0,2149,2523,2067,1
2780.0,2147,2531,2068,1
2781.0,2146,2542,2064,1
2782.0,2139,2538,2065,1
2783.0,2140,2539,2075,1
2784.0,2135,2546,2070,1
2785.0,2123,2543,2049,1
2786.0,2123,2547,2026,1
2787.0,2111,2535,2038,1
2788.0,2111,2545,2025,1
2789.0,2107,2554,2024,1
2790.0,2102,2553,2030,1
2791.0,2098,2553,2030,1
2792.0,2087,2555,2033,1
2793.0,2084,2556,2037,1
2794.0,2083,2560,2041,1
2795.0,2079,2563,2045,1
2796.0,2078,2546,2041,1
2797.0,2077,2539,2042,1
2798.0,2072,2551,2039,1
2799.0,2075,2563,2034,1
2800.0,2068,2558,2035,1
2801.0,2070,2546,2038,1
2802.0,2070,2547,2037,1
2803.0,2064,2541,2046,1
2804.0,2050,2534,2065,1
2805.0,2068,2540,2044,1
2806.0,2077,2525,2063,1
2807.0,2066,2535,2047,1
2808.0,2064,2541,2040,1
2809.0,2048,2546,2028,1
2810.0,2047,2543,2037,1
2811.0,2041,2554,2043,1
2812.0,2031,2567,2053,1
2813.0,2033,2576,2050,1
2814.0,2032,2563,2058,1
2815.0,2037,2540,2066,1
2816.0,2053,2520,2079,1
2817.0,2052,2518,2078,1
2818.0,2087,2511,2107,1
2819.0,2077,2492,2092,1
2820.0,2069,2509,2080,1
2821.0,2077,2505,2085,1
2822.0,2075,2510,2102,1
2823.0,2088,2518,2102,1
2824.0,2093,2524,2102,1
2825.0,2097,2547,2100,1
2826.0,2085,2557,2083,1
2827.0,2087,2559,2057,1
2828.0,2082,2565,2035,1
2829.0,2070,2575,2036,1
2830.0,2072,2579,2039,1
2831.0,2077,2572,2056,1
2832.0,2092,2562,2076,1
2833.0,2099,2543,2090,1
2834.0,2112,2534,2095,1
2835.0,2099,2515,2090,1
2836.0,2106,2510,2077,1
2837.0,2101,2509,2059,1
2838.0,2087,2510,2049,1
2839.0,2091,2514,2044,1
2840.0,2087,2533,2042,1
2841.0,2097,2563,2053,1
2842.0,2092,2587,2055,1
2843.0,2086,2598,2065,1
2844.0,2100,2574,2053,1
2845.0,2099,2555,2056,1
2846.0,2102,2539,2052,1
2847.0,2107,2526,2051,1
2848.0,2112,2530,2060,1
2849.0,2119,2540,2050,1
2850.0,2108,2537,2046,1
2851.0,2115,2547,2079,1
2852.0,2135,2545,2073,1
2853.0,2134,2551,2064,1
2854.0,2118,2543,2071,1
2855.0,2120,2537,2076,1
2856.0,2111,2523,2101,1
2857.0,2138,2512,2075,1
2858.0,2159,2489,2071,1
2859.0,2161,2505,2084,1
2860.0,2171,2492,2094,1
2861.0,2195,2497,2111,1
2862.0,2190,2510,2126,1
2863.0,2185,2516,2138,1
2864.0,2179,2521,2113,1
2865.0,2157,2532,2093,1
2866.0,2153,2537,2073,1
2867.0,2149,2543,2066,1
2868.0,2138,2546,2063,1
2869.0,2129,2560,2055,1
2870.0,2147,2547,2063,1
2871.0,2141,2551,2070,1
2872.0,2138,2540,2073,1
2873.0,2139,2535,2065,1
2874.0,2133,2530,2052,1
2875.0,2135,2530,2052,1
2876.0,2128,2522,2044,1
2877.0,2133,2527,2045,1
2878.0,2144,2533,2045,1
2879.0,2144,2533,2052,1
2880.0,2149,2534,2053,1
2881.0,2142,2531,2062,1
2882.0,2148,2539,2068,1
2883.0,2149,2539,2063,1
2884.0,2139,2538,2063,1
2885.0,2140,2545,2067,1
2886.0,2142,2540,2067,1
2887.0,2138,2536,2066,1
2888.0,2140,2529,2063,1
2889.0,2136,2544,2068,1
2890.0,2134,2526,2068,1
2891.0,2130,2524,2067,1
2892.0,2136,2522,2070,1
2893.0,2138,2534,2072,1
2894.0,2133,2537,2073,1
2895.0,2139,2538,2067,1
2896.0,2137,2541,2072,1
2897.0,2142,2538,2073,1
2898.0,2139,2536,2075,1
2899.0,2139,2537,2069,1
2900.0,2128,2541,2072,1
2901.0,2130,2535,2075,1
2902.0,2139,2541,2072,1
2903.0,2139,2539,2078,1
2904.0,2138,2532,2072,1
2905.0,2141,2529,2075,1
2906.0,2135,2535,2073,1
2907.0,2141,2536,2078,1
2908.0,2143,2530,2075,1
2909.0,2145,2531,2078,1
2910.0,2151,2534,2082,1
2911.0,2150,2538,2087,1
2912.0,2145,2534,2079,1
2913.0,2147,2533,2081,1
2914.0,2145,2529,2083,1
2915.0,2146,2536,2085,1
2916.0,2139,2530,2082,1
2917.0,2144,2531,2079,1
2918.0,2143,2532,2082,1
2919.0,2148,2531,2081,1
2920.0,2146,2532,2076,1
2921.0,2144,2530,2080,1
2922.0,2145,2538,2074,1
2923.0,2144,2533,2070,1
2924.0,2151,2533,2073,1
2925.0,2149,2537,2077,1
2926.0,2150,2527,2077,1
2927.0,2145,2533,2071,1
2928.0,2146,2535,2074,1
2929.0,2144,2532,2078,1
2930.0,2144,2531,2080,1
2931.0,2140,2535,2079,1
2932.0,2141,2529,2078,1
2933.0,2148,2534,2082,1
2934.0,2142,2534,2076,1
2935.0,2146,2533,2081,1
2936.0,2146,2537,2083,1
2937.0,2143,2531,2081,1
2938.0,2142,2535,2084,1
2939.0,2146,2536,2079,1
2940.0,2143,2537,2080,1
2941.0,2143,2534,2085,1
2942.0,2141,2535,2079,1
2943.0,2144,2533,2080,1
2944.0,2143,2535,2075,1
2945.0,2144,2534,2079,1
2946.0,2141,2537,2077,1
2947.0,2146,2532,2080,1
2948.0,2143,2535,2079,1
2949.0,2144,2534,2080,1
2950.0,2142,2533,2075,1
2951.0,2145,2538,2079,1
2952.0,2140,2538,2078,1
2953.0,2142,2535,2080,1
2954.0,2144,2534,2078,1
2955.0,2140,2540,2078,1
2956.0,2146,2537,2083,1
2957.0,2148,2537,2078,1
2958.0,2145,2534,2073,1
2959.0,2145,2530,2079,1
2960.0,2144,2535,2079,1
2961.0,2148,2535,2080,1
2962.0,2147,2536,2078,1
2963.0,2144,2535,2081,1
2964.0,2142,2529,2080,1
2965.0,2141,2529,2081,1
2966.0,2143,2531,2077,1
2967.0,2141,2535,2076,1
2968.0,2144,2537,2077,1
2969.0,2143,2535,2075,1
2970.0,2147,2536,2079,1
2971.0,2146,2533,2073,1
2972.0,2150,2530,2077,1
2973.0,2139,2529,2077,1
2974.0,2146,2536,2075,1
2975.0,2140,2534,2073,1
2976.0,2148,2531,2074,1
2977.0,2144,2531,2079,1
2978.0,2144,2531,2074,1
2979.0,2147,2531,2078,1
2980.0,2142,2534,2078,1
2981.0,2146,2538,2076,1
2982.0,2147,2532,2073,1
2983.0,2144,2532,2071,1
2984.0,2151,2530,2069,1
2985.0,2147,2531,2073,1
2986.0,2141,2537,2075,1
2987.0,2139,2536,2076,1
2988.0,2142,2536,2072,1
2989.0,2153,2539,2068,1
2990.0,2155,2531,2070,1
2991.0,2153,2527,2069,1
2992.0,2149,2534,2068,1
2993.0,2148,2533,2074,1
2994.0,2150,2531,2071,1
2995.0,2144,2533,2069,1
2996.0,2138,2531,2066,1
2997.0,2147,2533,2073,1
2998.0,2145,2527,2070,1
2999.0,2146,2538,2066,1
3000.0,2143,2539,2073,1
3001.0,2140,2539,2070,1
3002.0,2143,2533,2072,1
3003.0,2145,2537,2074,1
3004.0,2142,2536,2072,1
3005.0,2142,2538,2082,1
3006.0,2140,2534,2079,1
3007.0,2143,2531,2077,1
3008.0,2141,2537,2076,1
3009.0,2131,2534,2076,1
3010.0,2135,2535,2072,1
3011.0,2137,2537,2073,1
3012.0,2137,2535,2072,1
3013.0,2136,2533,2077,1
3014.0,2138,2538,2079,1
3015.0,2137,2538,2080,1
3016.0,2142,2533,2077,1
3017.0,2141,2536,2078,1
3018.0,2139,2534,2079,1
3019.0,2144,2535,2083,1
3020.0,2141,2539,2080,1
3021.0,2143,2530,2077,1
3022.0,2140,2533,2076,1
3023.0,2138,2536,2082,1
3024.0,2139,2538,2074,1
3025.0,2144,2533,2071,1
3026.0,2139,2533,2075,1
3027.0,2145,2536,2077,1
3028.0,2136,2532,2071,1
3029.0,2137,2530,2077,1
3030.0,2140,2535,2071,1
3031.0,2139,2536,2074,1
3032.0,2136,2538,2075,1
3033.0,2141,2535,2074,1
3034.0,2142,2534,2077,1
3035.0,2138,2532,2073,1
3036.0,2139,2534,2075,1
3037.0,2141,2531,2076,1
3038.0,2140,2531,2078,1
3039.0,2147,2532,2078,1
3040.0,2142,2530,2081,1
3041.0,2138,2538,2073,1
3042.0,2140,2531,2078,1
3043.0,2138,2535,2076,1
3044.0,2138,2537,2072,1
3045.0,2133,2535,2077,1
3046.0,2137,2536,2075,1
3047.0,2135,2540,2078,1
3048.0,2135,2537,2081,1
3049.0,2137,2537,2078,1
3050.0,2137,2533,2077,1
3051.0,2141,2536,2076,1
3052.0,2138,2531,2078,1
3053.0,2142,2530,2080,1
3054.0,2142,2537,2078,1
3055.0,2139,2533,2083,1
3056.0,2146,2536,2085,1
3057.0,2140,2533,2079,1
3058.0,2144,2537,2077,1
3059.0,2135,2530,2079,1
3060.0,2129,2521,2086,1
3061.0,2132,2526,2086,1
3062.0,2141,2538,2082,1
3063.0,2142,2534,2079,1
3064.0,2135,2530,2080,1
3065.0,2144,2531,2082,1
3066.0,2139,2535,2077,1
3067.0,2132,2535,2080,1
3068.0,2139,2536,2081,1
3069.0,2143,2536,2078,1
3070.0,2139,2534,2076,1
3071.0,2146,2535,2079,1
3072.0,2145,2530,2077,1
3073.0,2141,2530,2079,1
3074.0,2142,2534,2081,1
3075.0,2142,2535,2078,1
3076.0,2139,2531,2084,1
3077.0,2139,2537,2083,1
3078.0,2137,2535,2082,1
3079.0,2137,2536,2084,1
3080.0,2141,2533,2085,1
3081.0,2138,2533,2081,1
3082.0,2135,2533,2082,1
3083.0,2141,2531,2078,1
3084.0,2143,2535,2081,1
3085.0,2140,2539,2081,1
3086.0,2144,2539,2081,1
3087.0,2139,2535,2078,1
3088.0,2142,2530,2079,1
3089.0,2141,2535,2078,1
3090.0,2136,2537,2079,1
3091.0,2137,2538,2079,1
3092.0,2135,2538,2079,1
3093.0,2139,2532,2078,1
3094.0,2143,2533,2081,1
3095.0,2140,2532,2076,1
3096.0,2137,2537,2081,1
3097.0,2138,2531,2078,1
3098.0,2138,2532,2074,1
3099.0,2135,2534,2075,1
3100.0,2136,2536,2081,1
3101.0,2143,2536,2079,1
3102.0,2135,2532,2075,1
3103.0,2140,2531,2074,1
3104.0,2137,2534,2068,1
3105.0,2145,2533,2077,1
3106.0,2132,2541,2075,1
3107.0,2147,2539,2078,1
3108.0,2139,2533,2077,1
3109.0,2141,2533,2077,1
3110.0,2142,2536,2076,1
3111.0,2143,2534,2072,1
3112.0,2143,2534,2072,1
3113.0,2137,2528,2074,1
3114.0,2139,2535,2070,1
3115.0,2140,2532,2078,1
3116.0,2135,2530,2077,1
3117.0,2150,2525,2072,1
3118.0,2144,2529,2083,1
3119.0,2132,2558,2063,1
3120.0,2128,2544,2062,1
3121.0,2127,2537,2058,1
3122.0,2132,2531,2053,1
3123.0,2135,2538,2058,1
3124.0,2140,2533,2054,1
3125.0,2131,2535,2059,1
3126.0,2136,2536,2065,1
3127.0,2138,2528,2062,1
3128.0,2130,2535,2063,1
3129.0,2135,2533,2054,1
3130.0,2136,2534,2062,1
3131.0,2138,2527,2051,1
3132.0,2136,2529,2046,1
3133.0,2136,2532,2040,1
3134.0,2129,2535,2041,1
3135.0,2123,2536,2044,1
3136.0,2123,2537,2049,1
3137.0,2120,2537,2052,1
3138.0,2125,2534,2057,1
3139.0,2120,2535,2055,1
3140.0,2122,2537,2053,1
3141.0,2120,2537,2057,1
3142.0,2121,2542,2060,1
3143.0,2125,2542,2060,1
3144.0,2127,2540,2056,1
3145.0,2128,2540,2061,1
3146.0,2119,2536,2057,1
3147.0,2124,2538,2059,1
3148.0,2128,2539,2061,1
3149.0,2120,2538,2064,1
3150.0,2120,2541,2062,1
3151.0,2121,2542,2063,1
3152.0,2120,2535,2059,1
3153.0,2116,2535,2060,1
3154.0,2124,2539,2059,1
3155.0,2122,2535,2053,1
3156.0,2121,2536,2065,1
3157.0,2119,2536,2063,1
3158.0,2117,2538,2062,1
3159.0,2121,2533,2065,1
3160.0,2117,2536,2062,1
3161.0,2127,2538,2065,1
3162.0,2126,2537,2063,1
3163.0,2124,2536,2066,1
3164.0,2132,2537,2071,1
3165.0,2131,2537,2072,1
3166.0,2135,2537,2070,1
3167.0,2131,2536,2068,1
3168.0,2132,2540,2075,1
3169.0,2132,2536,2077,1
3170.0,2135,2535,2068,1
3171.0,2131,2535,2066,1
3172.0,2127,2534,2073,1
3173.0,2139,2535,2073,1
3174.0,2136,2537,2072,1
3175.0,2135,2536,2068,1
3176.0,2131,2533,2070,1
3177.0,2142,2533,2063,1
3178.0,2134,2537,2068,1
3179.0,2135,2537,2068,1
3180.0,2133,2536,2063,1
3181.0,2136,2533,2069,1
3182.0,2138,2539,2066,1
3183.0,2139,2538,2071,1
3184.0,2136,2538,2066,1
3185.0,2134,2531,2063,1
3186.0,2135,2532,2071,1
3187.0,2137,2531,2074,1
3188.0,2134,2541,2069,1
3189.0,2137,2533,2069,1
3190.0,2135,2535,2070,1
3191.0,2138,2529,2069,1
3192.0,2137,2530,2063,1
3193.0,2138,2533,2066,1
3194.0,2127,2535,2066,1
3195.0,2127,2536,2067,1
3196.0,2126,2539,2069,1
3197.0,2124,2539,2075,1
3198.0,2124,2539,2080,1
3199.0,2125,2542,2072,1
3200.0,2123,2546,2077,1
3201.0,2129,2541,2077,1
3202.0,2130,2536,2076,1
3203.0,2129,2535,2081,1
3204.0,2126,2537,2085,1
3205.0,2130,2538,2085,1
3206.0,2126,2541,2087,1
3207.0,2127,2536,2079,1
3208.0,2123,2531,2076,1
3209.0,2123,2535,2082,1
3210.0,2130,2536,2077,1
3211.0,2127,2539,2083,1
3212.0,2120,2537,2083,1
3213.0,2126,2534,2081,1
3214.0,2127,2531,2083,1
3215.0,2127,2532,2082,1
3216.0,2129,2531,2075,1
3217.0,2122,2539,2078,1
3218.0,2123,2537,2083,1
3219.0,2125,2537,2078,1
3220.0,2124,2535,2079,1
3221.0,2126,2533,2079,1
3222.0,2125,2540,2083,1
3223.0,2124,2535,2079,1
3224.0,2129,2539,2078,1
3225.0,2119,2539,2079,1
3226.0,2132,2536,2077,1
3227.0,2134,2531,2075,1
3228.0,2130,2533,2075,1
3229.0,2128,2534,2078,1
3230.0,2130,2541,2086,1
3231.0,2128,2540,2082,1
3232.0,2125,2540,2075,1
3233.0,2125,2538,2076,1
3234.0,2127,2537,2073,1
3235.0,2123,2538,2071,1
3236.0,2129,2534,2075,1
3237.0,2131,2534,2076,1
3238.0,2125,2535,2077,1
3239.0,2122,2534,2071,1
3240.0,2129,2534,2077,1
3241.0,2129,2538,2069,1
3242.0,2128,2538,2078,1
3243.0,2122,2537,2072,1
3244.0,2125,2535,2072,1
3245.0,2126,2537,2070,1
3246.0,2125,2534,2074,1
3247.0,2126,2535,2077,1
3248.0,2123,2533,2074,1
3249.0,2126,2538,2074,1
3250.0,2125,2535,2073,1
3251.0,2129,2532,2073,1
3252.0,2125,2540,2074,1
3253.0,2123,2537,2079,1
3254.0,2126,2539,2073,1
3255.0,2128,2535,2075,1
3256.0,2123,2536,2075,1
3257.0,2122,2539,2075,1
3258.0,2125,2537,2077,1
3259.0,2122,2531,2076,1
3260.0,2126,2534,2077,1
3261.0,2125,2544,2076,1
3262.0,2123,2536,2078,1
3263.0,2121,2537,2073,1
3264.0,2127,2539,2076,1
3265.0,2126,2537,2079,1
3266.0,2129,2540,2077,1
3267.0,2132,2535,2082,1
3268.0,2121,2540,2081,1
3269.0,2126,2539,2070,1
3270.0,2122,2535,2078,1
3271.0,2125,2538,2082,1
3272.0,2121,2537,2078,1
3273.0,2125,2539,2072,1
3274.0,2131,2541,2080,1
3275.0,2126,2535,2078,1
3276.0,2126,2538,2079,1
3277.0,2127,2536,2078,1
3278.0,2124,2539,2075,1
3279.0,2129,2534,2075,1
3280.0,2126,2534,2075,1
3281.0,2127,2537,2080,1
3282.0,2127,2536,2075,1
3283.0,2121,2535,2076,1
3284.0,2127,2535,2077,1
3285.0,2124,2537,2077,1
3286.0,2127,2534,2070,1
3287.0,2125,2538,2073,1
3288.0,2132,2539,2076,1
3289.0,2127,2537,2076,1
3290.0,2123,2531,2079,1
3291.0,2126,2538,2081,1
3292.0,2124,2537,2073,1
3293.0,2125,2533,2077,1
3294.0,2125,2533,2078,1
3295.0,2125,2542,2077,1
3296.0,2120,2538,2078,1
3297.0,2128,2535,2078,1
3298.0,2122,2537,2077,1
3299.0,2135,2535,2074,1
3300.0,2123,2538,2077,1
3301.0,2116,2542,2077,1
3302.0,2130,2535,2077,1
3303.0,2124,2537,2078,1
3304.0,2127,2539,2073,1
3305.0,2123,2535,2077,1
3306.0,2129,2535,2079,1
3307.0,2129,2537,2082,1
3308.0,2122,2536,2076,1
3309.0,2127,2535,2072,1
3310.0,2132,2538,2081,1
3311.0,2127,2534,2078,1
3312.0,2118,2536,2080,1
3313.0,2127,2535,2075,1
3314.0,2121,2539,2076,1
3315.0,2124,2540,2076,1
3316.0,2123,2543,2079,1
3317.0,2130,2531,2074,1
3318.0,2130,2535,2078,1
3319.0,2117,2539,2077,1
3320.0,2124,2539,2079,1
3321.0,2127,2535,2076,1
3322.0,2128,2537,2078,1
3323.0,2127,2536,2074,1
3324.0,2125,2533,2077,1
3325.0,2128,2531,2077,1
3326.0,2123,2541,2079,1
3327.0,2123,2534,2075,1
3328.0,2127,2539,2075,1
3329.0,2125,2537,2078,1
3330.0,2127,2540,2080,1
3331.0,2126,2535,2075,1
3332.0,2124,2537,2078,1
3333.0,2129,2537,2083,1
3334.0,2127,2536,2080,1
3335.0,2124,2537,2081,1
3336.0,2122,2536,2083,1
3337.0,2125,2543,2077,1
3338.0,2125,2536,2079,1
3339.0,2123,2536,2077,1
3340.0,2129,2535,2081,1
3341.0,2128,2535,2081,1
3342.0,2129,2533,2077,1
3343.0,2126,2533,2073,1
3344.0,2129,2535,2077,1
3345.0,2126,2537,2079,1
3346.0,2129,2536,2079,1
3347.0,2123,2536,2076,1
3348.0,2130,2531,2077,1
3349.0,2129,2537,2074,1
3350.0,2122,2534,2078,1
3351.0,2128,2534,2072,1
3352.0,2129,2535,2081,1
3353.0,2128,2533,2072,1
3354.0,2128,2537,2077,1
3355.0,2124,2537,2080,1
3356.0,2123,2533,2077,1
3357.0,2126,2532,2076,1
3358.0,2127,2535,2078,1
3359.0,2127,2534,2079,1
3360.0,2125,2535,2077,1
3361.0,2127,2533,2081,1
3362.0,2124,2541,2074,1
3363.0,2122,2535,2072,1
3364.0,2128,2543,2070,1
3365.0,2130,2540,2078,1
3366.0,2129,2541,2077,1
3367.0,2128,2537,2080,1
3368.0,2127,2534,2081,1
3369.0,2123,2535,2071,1
3370.0,2127,2538,2077,1
3371.0,2121,2538,2075,1
3372.0,2127,2540,2077,1
3373.0,2127,2538,2076,1
3374.0,2128,2539,2074,1
3375.0,2132,2537,2076,1
3376.0,2123,2538,2075,1
3377.0,2119,2536,2073,1
3378.0,2127,2541,2077,1
3379.0,2124,2536,2074,1
3380.0,2121,2537,2070,1
3381.0,2126,2535,2074,1
3382.0,2117,2535,2067,1
3383.0,2120,2543,2076,1
3384.0,2124,2537,2077,1
3385.0,2123,2541,2070,1
3386.0,2127,2537,2077,1
3387.0,2124,2542,2070,1
3388.0,2125,2537,2072,1
3389.0,2130,2536,2070,1
3390.0,2126,2533,2066,1
3391.0,2120,2541,2071,1
3392.0,2120,2534,2068,1
3393.0,2120,2535,2066,1
3394.0,2119,2533,2067,1
3395.0,2118,2536,2072,1
3396.0,2121,2536,2070,1
3397.0,2121,2535,2072,1
3398.0,2117,2537,2072,1
3399.0,2123,2536,2066,1
3400.0,2113,2523,2075,1
3401.0,2114,2522,2076,1
3402.0,2130,2534,2078,1
3403.0,2128,2538,2068,1
3404.0,2123,2537,2074,1
3405.0,2127,2535,2071,1
3406.0,2119,2535,2075,1
3407.0,2119,2538,2070,1
3408.0,2122,2536,2076,1
3409.0,2125,2539,2073,1
3410.0,2125,2535,2069,1
3411.0,2121,2533,2069,1
3412.0,2121,2534,2065,1
3413.0,2121,2539,2068,1
3414.0,2126,2535,2070,1
3415.0,2131,2535,2073,1
3416.0,2128,2534,2075,1
3417.0,2124,2532,2070,1
3418.0,2126,2537,2073,1
3419.0,2125,2534,2070,1
3420.0,2119,2536,2076,1
3421.0,2123,2536,2076,1
3422.0,2126,2536,2079,1
3423.0,2122,2532,2074,1
3424.0,2128,2536,2077,1
3425.0,2125,2538,2070,1
3426.0,2124,2539,2071,1
3427.0,2119,2539,2072,1
3428.0,2124,2541,2070,1
3429.0,2125,2533,2073,1
3430.0,2128,2533,2070,1
3431.0,2129,2537,2071,1
3432.0,2121,2538,2075,1
3433.0,2126,2535,2078,1
3434.0,2122,2536,2071,1
3435.0,2127,2539,2076,1
3436.0,2129,2540,2078,1
3437.0,2129,2538,2073,1
3438.0,2127,2541,2076,1
3439.0,2126,2539,2076,1
3440.0,2124,2535,2073,1
3441.0,2129,2536,2078,1
3442.0,2127,2537,2085,1
3443.0,2127,2539,2075,1
3444.0,2129,2535,2079,1
3445.0,2126,2535,2074,1
3446.0,2121,2535,2073,1
3447.0,2120,2537,2075,1
3448.0,2123,2533,2076,1
3449.0,2121,2534,2076,1
3450.0,2128,2537,2071,1
3451.0,2127,2536,2077,1
3452.0,2125,2538,2073,1
3453.0,2127,2537,2075,1
3454.0,2126,2540,2076,1
3455.0,2128,2535,2070,1
3456.0,2124,2538,2076,1
3457.0,2128,2539,2073,1
3458.0,2123,2536,2073,1
3459.0,2127,2534,2074,1
3460.0,2129,2534,2075,1
3461.0,2128,2533,2076,1
3462.0,2132,2533,2079,1
3463.0,2130,2535,2075,1
3464.0,2124,2536,2075,1
3465.0,2124,2537,2072,1
3466.0,2133,2540,2074,1
3467.0,2126,2536,2076,1
3468.0,2125,2535,2072,1
3469.0,2123,2537,2075,1
3470.0,2131,2534,2077,1
3471.0,2128,2534,2073,1
3472.0,2128,2535,2077,1
3473.0,2127,2541,2075,1
3474.0,2126,2536,2072,1
3475.0,2126,2535,2072,1
3476.0,2126,2537,2074,1
3477.0,2129,2535,2075,1
3478.0,2127,2536,2076,1
3479.0,2130,2538,2080,1
3480.0,2127,2533,2073,1
3481.0,2123,2533,2076,1
3482.0,2126,2533,2075,1
3483.0,2129,2538,2068,1
3484.0,2125,2531,2077,1
3485.0,2125,2536,2075,1
3486.0,2125,2536,2067,1
3487.0,2129,2535,2067,1
3488.0,2129,2543,2066,1
3489.0,2128,2539,2066,1
3490.0,2123,2541,2064,1
3491.0,2118,2534,2061,1
3492.0,2117,2536,2063,1
3493.0,2118,2539,2057,1
3494.0,2117,2538,2057,1
3495.0,2118,2535,2060,1
3496.0,2120,2540,2061,1
3497.0,2116,2543,2058,1
3498.0,2120,2538,2064,1
3499.0,2120,2539,2063,1
3500.0,2121,2533,2064,1
3501.0,2120,2535,2063,1
3502.0,2123,2538,2061,1
3503.0,2125,2537,2064,1
3504.0,2124,2539,2061,1
3505.0,2125,2539,2064,1
3506.0,2119,2539,2066,1
3507.0,2126,2536,2062,1
3508.0,2120,2536,2066,1
3509.0,2118,2538,2061,1
3510.0,2122,2539,2064,1
3511.0,2117,2536,2062,1
3512.0,2129,2538,2062,1
3513.0,2121,2534,2061,1
3514.0,2120,2537,2061,1
3515.0,2122,2535,2060,1
3516.0,2123,2538,2064,1
3517.0,2122,2535,2058,1
3518.0,2123,2541,2065,1
3519.0,2123,2540,2061,1
3520.0,2126,2531,2065,1
3521.0,2125,2537,2064,1
3522.0,2119,2538,2060,1
3523.0,2125,2537,2063,1
3524.0,2119,2535,2061,1
3525.0,2120,2537,2061,1
3526.0,2123,2537,2066,1
3527.0,2120,2536,2067,1
3528.0,2119,2538,2064,1
3529.0,2124,2538,2065,1
3530.0,2123,2544,2067,1
3531.0,2120,2539,2059,1
3532.0,2116,2535,2065,1
3533.0,2119,2535,2055,1
3534.0,2125,2532,2056,1
3535.0,2120,2536,2055,1
3536.0,2119,2535,2054,1
3537.0,2124,2539,2058,1
3538.0,2126,2535,2054,1
3539.0,2119,2534,2055,1
3540.0,2120,2535,2053,1
3541.0,2126,2535,2050,1
3542.0,2123,2538,2058,1
3543.0,2129,2536,2058,1
3544.0,2122,2531,2060,1
3545.0,2119,2535,2055,1
3546.0,2130,2538,2058,1
3547.0,2127,2541,2062,1
3548.0,2125,2534,2061,1
3549.0,2125,2536,2058,1
3550.0,2125,2539,2062,1
3551.0,2125,2538,2062,1
3552.0,2123,2533,2064,1
3553.0,2122,2531,2058,1
3554.0,2125,2537,2067,1
3555.0,2119,2540,2062,1
3556.0,2123,2531,2067,1
3557.0,2120,2542,2069,1
3558.0,2118,2538,2066,1
3559.0,2121,2541,2068,1
3560.0,2127,2537,2064,1
3561.0,2123,2540,2067,1
3562.0,2116,2531,2062,1
3563.0,2118,2532,2064,1
3564.0,2126,2531,2067,1
3565.0,2121,2541,2063,1
3566.0,2123,2538,2070,1
3567.0,2123,2540,2065,1
3568.0,2121,2538,2063,1
3569.0,2123,2538,2069,1
3570.0,2119,2528,2060,1
3571.0,2117,2528,2065,1
3572.0,2118,2541,2069,1
3573.0,2122,2538,2068,1
3574.0,2120,2539,2063,1
3575.0,2122,2539,2066,1
3576.0,2116,2539,2067,1
3577.0,2116,2538,2064,1
3578.0,2113,2537,2066,1
3579.0,2118,2536,2068,1
3580.0,2124,2535,2070,1
3581.0,2125,2541,2069,1
3582.0,2119,2539,2067,1
3583.0,2120,2534,2059,1
3584.0,2121,2538,2062,1
3585.0,2122,2540,2061,1
3586.0,2119,2538,2058,1
3587.0,2123,2540,2063,1
3588.0,2119,2531,2062,1
3589.0,2121,2536,2060,1
3590.0,2118,2536,2060,1
3591.0,2120,2535,2059,1
3592.0,2119,2537,2062,1
3593.0,2123,2535,2067,1
3594.0,2122,2536,2063,1
3595.0,2122,2539,2068,1
3596.0,2120,2538,2071,1
3597.0,2123,2539,2062,1
3598.0,2121,2540,2066,1
3599.0,2122,2538,2065,1
3600.0,2123,2535,2065,1
3601.0,2119,2539,2063,1
3602.0,2126,2534,2062,1
3603.0,2124,2534,2065,1
3604.0,2125,2538,2066,1
3605.0,2121,2535,2063,1
3606.0,2119,2537,2070,1
3607.0,2123,2530,2064,1
3608.0,2118,2537,2067,1
3609.0,2124,2539,2069,1
3610.0,2123,2540,2068,1
3611.0,2122,2539,2066,1
3612.0,2121,2538,2072,1
3613.0,2122,2537,2073,1
3614.0,2122,2538,2069,1
3615.0,2125,2537,2068,1
3616.0,2123,2535,2067,1
3617.0,2122,2535,2063,1
3618.0,2126,2540,2065,1
3619.0,2122,2538,2066,1
3620.0,2120,2541,2067,1
3621.0,2121,2536,2065,1
3622.0,2123,2537,2068,1
3623.0,2122,2536,2062,1
3624.0,2118,2537,2067,1
3625.0,2121,2538,2071,1
3626.0,2120,2541,2068,1
3627.0,2121,2539,2065,1
3628.0,2119,2537,2070,1
3629.0,2125,2536,2066,1
3630.0,2120,2538,2070,1
3631.0,2123,2540,2073,1
3632.0,2123,2540,2070,1
3633.0,2121,2534,2061,1
3634.0,2123,2532,2067,1
3635.0,2120,2543,2069,1
3636.0,2115,2531,2068,1
3637.0,2120,2537,2066,1
3638.0,2121,2539,2066,1
3639.0,2123,2540,2065,1
3640.0,2122,2535,2070,1
3641.0,2114,2539,2067,1
3642.0,2118,2541,2070,1
3643.0,2117,2540,2068,1
3644.0,2123,2540,2069,1
3645.0,2119,2534,2069,1
3646.0,2123,2537,2070,1
3647.0,2119,2540,2066,1
3648.0,2122,2539,2069,1
3649.0,2122,2537,2066,1
3650.0,2119,2536,2070,1
3651.0,2117,2537,2067,1
3652.0,2120,2541,2067,1
3653.0,2121,2540,2064,1
3654.0,2113,2533,2068,1
3655.0,2123,2533,2061,1
3656.0,2121,2541,2069,1
3657.0,2121,2539,2068,1
3658.0,2125,2540,2069,1
3659.0,2122,2535,2069,1
3660.0,2125,2538,2067,1
3661.0,2123,2534,2072,1
3662.0,2124,2536,2072,1
3663.0,2117,2536,2070,1
3664.0,2121,2543,2067,1
3665.0,2125,2539,2071,1
3666.0,2123,2537,2069,1
3667.0,2121,2541,2069,1
3668.0,2126,2539,2066,1
3669.0,2123,2534,2063,1
3670.0,2117,2538,2067,1
3671.0,2121,2539,2067,1
3672.0,2120,2537,2072,1
3673.0,2120,2537,2071,1
3674.0,2120,2534,2065,1
3675.0,2125,2539,2067,1
3676.0,2118,2535,2068,1
3677.0,2126,2531,2070,1
3678.0,2116,2535,2070,1
3679.0,2121,2536,2069,1
3680.0,2121,2535,2070,1
3681.0,2123,2539,2069,1
3682.0,2117,2539,2070,1
3683.0,2118,2535,2071,1
3684.0,2118,2538,2065,1
3685.0,2118,2538,2069,1
3686.0,2122,2536,2071,1
3687.0,2121,2536,2070,1
3688.0,2123,2539,2071,1
3689.0,2118,2537,2062,1
3690.0,2113,2537,2069,1
3691.0,2123,2540,2073,1
3692.0,2118,2531,2074,1
3693.0,2119,2536,2070,1
3694.0,2118,2534,2069,1
3695.0,2121,2540,2069,1
3696.0,2118,2541,2070,1
3697.0,2121,2540,2070,1
3698.0,2122,2539,2067,1
3699.0,2119,2537,2073,1
3700.0,2115,2540,2066,1
3701.0,2124,2539,2074,1
3702.0,2116,2538,2067,1
3703.0,2120,2534,2069,1
3704.0,2122,2537,2067,1
3705.0,2119,2535,2070,1
3706.0,2119,2534,2068,1
3707.0,2124,2533,2066,1
3708.0,2119,2537,2071,1
3709.0,2119,2539,2072,1
3710.0,2118,2535,2071,1
3711.0,2129,2532,2068,1
3712.0,2128,2539,2067,1
3713.0,2123,2537,2072,1
3714.0,2126,2537,2071,1
3715.0,2119,2539,2071,1
3716.0,2120,2538,2068,1
3717.0,2121,2534,2071,1
3718.0,2123,2538,2067,1
3719.0,2119,2537,2069,1
3720.0,2117,2535,2071,1
3721.0,2120,2538,2071,1
3722.0,2119,2534,2070,1
3723.0,2121,2536,2065,1
3724.0,2118,2533,2067,1
3725.0,2125,2543,2076,1
3726.0,2120,2538,2075,1
3727.0,2117,2542,2068,1
3728.0,2121,2535,2070,1
3729.0,2115,2532,2075,1
3730.0,2122,2539,2074,1
3731.0,2123,2532,2073,1
3732.0,2124,2538,2077,1
3733.0,2128,2533,2073,1
3734.0,2121,2535,2074,1
3735.0,2122,2533,2071,1
3736.0,2119,2538,2069,1
3737.0,2117,2536,2071,1
3738.0,2122,2537,2073,1
3739.0,2119,2536,2066,1
3740.0,2125,2532,2070,1
3741.0,2124,2534,2069,1
3742.0,2125,2541,2067,1
3743.0,2115,2538,2070,1
3744.0,2123,2535,2072,1
3745.0,2122,2535,2069,1
3746.0,2124,2541,2074,1
3747.0,2118,2538,2068,1
3748.0,2119,2533,2069,1
3749.0,2118,2537,2066,1
3750.0,2121,2537,2069,1
3751.0,2121,2538,2070,1
3752.0,2118,2541,2072,1
3753.0,2123,2535,2075,1
3754.0,2117,2540,2063,1
3755.0,2125,2539,2068,1
3756.0,2121,2537,2066,1
3757.0,2124,2536,2069,1
3758.0,2117,2534,2072,1
3759.0,2120,2534,2073,1
3760.0,2124,2537,2071,1
3761.0,2121,2540,2072,1
3762.0,2119,2537,2070,1
3763.0,2118,2539,2070,1
3764.0,2123,2538,2067,1
3765.0,2119,2533,2067,1
3766.0,2119,2539,2069,1
3767.0,2125,2539,2070,1
3768.0,2123,2540,2067,1
3769.0,2119,2540,2067,1
3770.0,2116,2535,2067,1
3771.0,2115,2538,2070,1
3772.0,2121,2541,2070,1
3773.0,2119,2541,2067,1
3774.0,2123,2541,2067,1
3775.0,2121,2537,2063,1
3776.0,2119,2537,2071,1
3777.0,2125,2543,2071,1
3778.0,2120,2534,2066,1
3779.0,2121,2539,2068,1
3780.0,2121,2538,2067,1
3781.0,2123,2534,2068,1
3782.0,2121,2541,2067,1
3783.0,2119,2542,2067,1
3784.0,2120,2538,2066,1
3785.0,2119,2535,2067,1
3786.0,2121,2535,2067,1
3787.0,2119,2543,2069,1
3788.0,2118,2537,2066,1
3789.0,2121,2535,2071,1
3790.0,2120,2535,2068,1
3791.0,2119,2542,2068,1
3792.0,2124,2537,2070,1
3793.0,2120,2531,2067,1
3794.0,2117,2537,2072,1
3795.0,2119,2538,2063,1
3796.0,2119,2541,2069,1
3797.0,2118,2539,2068,1
3798.0,2121,2535,2067,1
3799.0,2115,2534,2069,1
3800.0,2122,2539,2068,1
3801.0,2123,2539,2070,1
3802.0,2120,2538,2068,1
3803.0,2119,2535,2068,1
3804.0,2117,2536,2066,1
3805.0,2117,2535,2067,1
3806.0,2121,2540,2072,1
3807.0,2118,2534,2068,1
3808.0,2121,2539,2070,1
3809.0,2117,2539,2067,1
3810.0,2119,2537,2072,1
3811.0,2119,2537,2070,1
3812.0,2121,2533,2069,1
3813.0,2116,2535,2067,1
3814.0,2123,2539,2071,1
3815.0,2117,2540,2065,1
3816.0,2120,2538,2071,1
3817.0,2121,2537,2069,1
3818.0,2123,2538,2069,1
3819.0,2119,2536,2065,1
3820.0,2125,2543,2064,1
3821.0,2119,2537,2066,1
3822.0,2127,2534,2073,1
3823.0,2116,2539,2069,1
3824.0,2120,2537,2069,1
3825.0,2123,2538,2070,1
3826.0,2124,2538,2076,1
3827.0,2120,2542,2068,1
3828.0,2116,2548,2067,1
3829.0,2119,2543,2064,1
3830.0,2120,2535,2068,1
3831.0,2118,2543,2071,1
3832.0,2120,2541,2064,1
3833.0,2120,2533,2065,1
3834.0,2116,2534,2067,1
3835.0,2119,2531,2060,1
3836.0,2128,2541,2064,1
3837.0,2121,2535,2055,1
3838.0,2123,2539,2055,1
3839.0,2122,2536,2059,1
3840.0,2115,2537,2059,1
3841.0,2122,2535,2058,1
3842.0,2122,2542,2059,1
3843.0,2118,2539,2062,1
3844.0,2117,2536,2060,1
3845.0,2117,2529,2061,1
3846.0,2128,2543,2063,1
3847.0,2127,2539,2062,1
3848.0,2127,2537,2059,1
3849.0,2126,2531,2061,1
3850.0,2119,2536,2063,1
3851.0,2112,2532,2061,1
3852.0,2122,2537,2063,1
3853.0,2126,2539,2061,1
3854.0,2119,2543,2061,1
3855.0,2115,2536,2057,1
3856.0,2118,2535,2061,1
3857.0,2124,2539,2057,1
3858.0,2119,2536,2061,1
3859.0,2115,2539,2056,1
3860.0,2128,2535,2053,1
3861.0,2121,2535,2057,1
3862.0,2126,2537,2054,1
3863.0,2121,2531,2056,1
3864.0,2123,2539,2057,1
3865.0,2125,2534,2054,1
3866.0,2124,2534,2059,1
3867.0,2115,2532,2053,1
3868.0,2122,2538,2055,1
3869.0,2121,2535,2056,1
3870.0,2125,2539,2054,1
3871.0,2120,2542,2054,1
3872.0,2123,2537,2054,1
3873.0,2121,2538,2055,1
3874.0,2119,2539,2058,1
3875.0,2122,2539,2056,1
3876.0,2117,2536,2057,1
3877.0,2122,2535,2057,1
3878.0,2116,2535,2061,1
3879.0,2120,2538,2057,1
3880.0,2126,2539,2060,1
3881.0,2127,2534,2054,1
3882.0,2121,2537,2058,1
3883.0,2119,2537,2064,1
3884.0,2124,2539,2060,1
3885.0,2123,2540,2061,1
3886.0,2124,2542,2062,1
3887.0,2117,2540,2065,1
3888.0,2118,2540,2061,1
3889.0,2118,2534,2065,1
3890.0,2115,2536,2066,1
3891.0,2117,2540,2062,1
3892.0,2121,2541,2065,1
3893.0,2120,2539,2066,1
3894.0,2120,2539,2069,1
3895.0,2124,2535,2070,1
3896.0,2123,2535,2071,1
3897.0,2121,2537,2065,1
3898.0,2119,2541,2065,1
3899.0,2115,2538,2068,1
3900.0,2111,2543,2065,1
3901.0,2118,2540,2068,1
3902.0,2118,2536,2066,1
3903.0,2112,2535,2066,1
3904.0,2114,2538,2068,1
3905.0,2117,2537,2065,1
3906.0,2115,2543,2066,1
3907.0,2113,2537,2069,1
3908.0,2118,2538,2073,1
3909.0,2120,2542,2071,1
3910.0,2112,2546,2070,1
3911.0,2114,2545,2070,1
3912.0,2120,2540,2069,1
3913.0,2116,2538,2075,1
3914.0,2114,2539,2070,1
3915.0,2114,2540,2070,1
3916.0,2111,2544,2068,1
3917.0,2118,2536,2072,1
3918.0,2116,2539,2066,1
3919.0,2122,2535,2071,1
3920.0,2121,2539,2067,1
3921.0,2113,2539,2067,1
3922.0,2117,2539,2071,1
3923.0,2119,2533,2069,1
3924.0,2121,2535,2069,1
3925.0,2116,2540,2066,1
3926.0,2115,2536,2068,1
3927.0,2117,2536,2072,1
3928.0,2119,2537,2068,1
3929.0,2114,2538,2072,1
3930.0,2119,2538,2067,1
3931.0,2118,2536,2069,1
3932.0,2118,2535,2067,1
3933.0,2122,2541,2071,1
3934.0,2118,2537,2071,1
3935.0,2118,2534,2073,1
3936.0,2118,2539,2070,1
3937.0,2115,2535,2070,1
3938.0,2115,2532,2069,1
3939.0,2119,2535,2071,1
3940.0,2120,2542,2071,1
3941.0,2121,2542,2070,1
3942.0,2121,2537,2067,1
3943.0,2115,2541,2069,1
3944.0,2118,2539,2066,1
3945.0,2118,2541,2071,1
3946.0,2112,2538,2063,1
3947.0,2121,2535,2065,1
3948.0,2110,2539,2065,1
3949.0,2114,2537,2065,1
3950.0,2119,2539,2071,1
3951.0,2122,2539,2073,1
3952.0,2120,2541,2066,1
3953.0,2120,2538,2066,1
3954.0,2115,2539,2065,1
3955.0,2114,2540,2066,1
3956.0,2115,2538,2063,1
3957.0,2119,2539,2064,1
3958.0,2120,2541,2074,1
3959.0,2122,2538,2069,1
3960.0,2117,2533,2067,1
3961.0,2119,2541,2069,1
3962.0,2115,2541,2067,1
3963.0,2115,2539,2072,1
3964.0,2122,2538,2068,1
3965.0,2119,2536,2069,1
3966.0,2122,2534,2068,1
3967.0,2118,2535,2066,1
3968.0,2119,2537,2069,1
3969.0,2118,2539,2064,1
3970.0,2123,2542,2065,1
3971.0,2119,2533,2065,1
3972.0,2122,2534,2063,1
3973.0,2117,2538,2066,1
3974.0,2118,2539,2068,1
3975.0,2126,2535,2065,1
3976.0,2123,2535,2066,1
3977.0,2123,2534,2067,1
3978.0,2119,2538,2068,1
3979.0,2125,2534,2068,1
3980.0,2116,2538,2068,1
3981.0,2123,2542,2068,1
3982.0,2121,2538,2069,1
3983.0,2123,2530,2071,1
3984.0,2120,2539,2066,1
3985.0,2127,2540,2071,1
3986.0,2123,2535,2069,1
3987.0,2120,2538,2074,1
3988.0,2120,2532,2069,1
3989.0,2125,2537,2067,1
3990.0,2127,2537,2064,1
3991.0,2122,2535,2063,1
3992.0,2120,2537,2073,1
3993.0,2118,2536,2068,1
3994.0,2115,2533,2069,1
3995.0,2121,2539,2073,1
3996.0,2122,2535,2068,1
3997.0,2119,2535,2071,1
3998.0,2118,2536,2068,1
3999.0,2118,2538,2077,1
4000.0,2121,2543,2069,1
4001.0,2113,2537,2070,1
4002.0,2123,2539,2071,1
4003.0,2125,2532,2066,1
4004.0,2121,2540,2068,1
4005.0,2121,2537,2074,1
4006.0,2115,2536,2069,1
4007.0,2127,2536,2073,1
4008.0,2121,2535,2074,1
4009.0,2123,2538,2075,1
4010.0,2117,2539,2071,1
4011.0,2123,2539,2072,1
4012.0,2117,2537,2076,1
4013.0,2117,2543,2070,1
4014.0,2121,2543,2072,1
4015.0,2122,2540,2076,1
4016.0,2123,2538,2064,1
4017.0,2117,2536,2070,1
4018.0,2115,2539,2064,1
4019.0,2119,2532,2072,1
4020.0,2117,2539,2066,1
4021.0,2119,2539,2072,1
4022.0,2120,2541,2068,1
4023.0,2118,2541,2070,1
4024.0,2120,2532,2072,1
4025.0,2119,2539,2067,1
4026.0,2116,2535,2070,1
4027.0,2116,2539,2072,1
4028.0,2120,2537,2067,1
4029.0,2116,2533,2070,1
4030.0,2125,2539,2065,1
4031.0,2117,2534,2064,1
4032.0,2122,2537,2066,1
4033.0,2118,2538,2068,1
4034.0,2115,2537,2062,1
4035.0,2118,2536,2062,1
4036.0,2116,2538,2066,1
4037.0,2115,2540,2064,1
4038.0,2120,2534,2067,1
4039.0,2116,2534,2073,1
4040.0,2122,2537,2068,1
4041.0,2120,2534,2064,1
4042.0,2122,2536,2064,1
4043.0,2116,2544,2063,1
4044.0,2118,2535,2064,1
4045.0,2115,2536,2064,1
4046.0,2118,2533,2066,1
4047.0,2123,2541,2065,1
4048.0,2118,2537,2062,1
4049.0,2121,2540,2072,1
4050.0,2118,2540,2068,1
4051.0,2123,2542,2070,1
4052.0,2117,2539,2069,1
4053.0,2115,2539,2068,1
4054.0,2115,2531,2059,1
4055.0,2126,2531,2060,1
4056.0,2124,2533,2057,1
4057.0,2125,2535,2056,1
4058.0,2119,2535,2054,1
4059.0,2126,2533,2058,1
4060.0,2117,2533,2060,1
4061.0,2121,2537,2056,1
4062.0,2123,2538,2057,1
4063.0,2114,2540,2061,1
4064.0,2124,2544,2057,1
4065.0,2125,2539,2056,1
4066.0,2121,2541,2061,1
4067.0,2123,2539,2060,1
4068.0,2119,2538,2060,1
4069.0,2120,2535,2063,1
4070.0,2115,2532,2062,1
4071.0,2117,2541,2060,1
4072.0,2125,2531,2059,1
4073.0,2123,2541,2062,1
4074.0,2114,2540,2058,1
4075.0,2118,2540,2055,1
4076.0,2117,2539,2062,1
4077.0,2119,2540,2062,1
4078.0,2117,2537,2065,1
4079.0,2119,2537,2065,1
4080.0,2121,2523,2060,1
4081.0,2121,2526,2064,1
4082.0,2124,2536,2070,1
4083.0,2119,2538,2059,1
4084.0,2122,2536,2068,1
4085.0,2117,2541,2065,1
4086.0,2117,2544,2063,1
4087.0,2115,2538,2066,1
4088.0,2119,2531,2062,1
4089.0,2123,2539,2066,1
4090.0,2122,2538,2071,1
4091.0,2115,2536,2071,1
4092.0,2117,2538,2069,1
4093.0,2117,2536,2071,1
4094.0,2121,2539,2065,1
4095.0,2118,2542,2067,1
4096.0,2118,2537,2070,1
4097.0,2118,2532,2062,1
4098.0,2117,2538,2065,1
4099.0,2115,2538,2068,1
4100.0,2116,2535,2071,1
4101.0,2115,2537,2073,1
4102.0,2115,2542,2066,1
4103.0,2119,2538,2072,1
4104.0,2115,2543,2069,1
4105.0,2124,2541,2072,1
4106.0,2120,2537,2077,1
4107.0,2121,2533,2070,1
4108.0,2119,2542,2067,1
4109.0,2122,2537,2068,1
4110.0,2120,2537,2071,1
4111.0,2122,2534,2069,1
4112.0,2116,2537,2068,1
4113.0,2116,2533,2071,1
4114.0,2120,2536,2069,1
4115.0,2120,2541,2071,1
4116.0,2118,2538,2077,1
4117.0,2121,2539,2075,1
4118.0,2121,2535,2072,1
4119.0,2123,2533,2070,1
4120.0,2124,2538,2068,1
4121.0,2121,2537,2071,1
4122.0,2125,2538,2074,1
4123.0,2123,2533,2074,1
4124.0,2123,2538,2073,1
4125.0,2123,2542,2075,1
4126.0,2123,2538,2077,1
4127.0,2117,2545,2071,1
4128.0,2126,2539,2071,1
4129.0,2117,2537,2068,1
4130.0,2119,2541,2071,1
4131.0,2119,2538,2070,1
4132.0,2117,2543,2076,1
4133.0,2114,2540,2072,1
4134.0,2123,2534,2073,1
4135.0,2122,2539,2072,1
4136.0,2114,2537,2074,1
4137.0,2118,2542,2074,1
4138.0,2113,2540,2073,1
4139.0,2119,2539,2077,1
4140.0,2116,2532,2077,1
4141.0,2119,2542,2074,1
4142.0,2117,2538,2074,1
4143.0,2114,2539,2073,1
4144.0,2119,2538,2071,1
4145.0,2109,2535,2072,1
4146.0,2122,2540,2072,1
4147.0,2120,2538,2071,1
4148.0,2115,2535,2075,1
4149.0,2112,2543,2072,1
4150.0,2123,2542,2070,1
4151.0,2115,2536,2079,1
4152.0,2123,2536,2074,1
4153.0,2119,2541,2074,1
4154.0,2116,2538,2078,1
4155.0,2121,2535,2074,1
4156.0,2122,2541,2073,1
4157.0,2111,2534,2076,1
4158.0,2119,2539,2069,1
4159.0,2116,2534,2074,1
4160.0,2119,2538,2073,1
4161.0,2115,2541,2073,1
4162.0,2117,2543,2067,1
4163.0,2120,2538,2068,1
4164.0,2119,2535,2077,1
4165.0,2117,2537,2077,1
4166.0,2122,2537,2075,1
4167.0,2119,2535,2073,1
4168.0,2122,2536,2075,1
4169.0,2119,2536,2075,1
4170.0,2111,2542,2077,1
4171.0,2118,2535,2076,1
4172.0,2119,2538,2075,1
4173.0,2116,2533,2071,1
4174.0,2120,2536,2075,1
4175.0,2120,2537,2070,1
4176.0,2116,2535,2075,1
4177.0,2118,2535,2070,1
4178.0,2117,2538,2072,1
4179.0,2115,2535,2071,1
4180.0,2118,2539,2075,1
4181.0,2117,2536,2073,1
4182.0,2112,2537,2072,1
4183.0,2119,2537,2072,1
4184.0,2118,2535,2069,1
4185.0,2113,2535,2075,1
4186.0,2118,2535,2071,1
4187.0,2120,2539,2071,1
4188.0,2113,2541,2075,1
4189.0,2121,2534,2078,1
4190.0,2120,2535,2073,1
4191.0,2118,2535,2073,1
4192.0,2119,2539,2075,1
4193.0,2118,2536,2077,1
4194.0,2121,2537,2070,1
4195.0,2119,2537,2074,1
4196.0,2116,2540,2072,1
4197.0,2120,2538,2072,1
4198.0,2122,2539,2071,1
4199.0,2116,2537,2071,1
4200.0,2122,2538,2072,1
4201.0,2123,2537,2077,1
4202.0,2117,2539,2069,1
4203.0,2118,2541,2073,1
4204.0,2121,2541,2071,1
4205.0,2123,2543,2074,1
4206.0,2114,2533,2072,1
4207.0,2122,2535,2073,1
4208.0,2112,2539,2070,1
4209.0,2122,2538,2075,1
4210.0,2121,2538,2068,1
4211.0,2119,2536,2078,1
4212.0,2119,2539,2071,1
4213.0,2118,2540,2070,1
4214.0,2118,2537,2077,1
4215.0,2120,2537,2073,1
4216.0,2120,2536,2073,1
4217.0,2117,2537,2075,1
4218.0,2120,2535,2067,1
4219.0,2121,2536,2073,1
4220.0,2121,2535,2075,1
4221.0,2119,2537,2073,1
4222.0,2120,2538,2076,1
4223.0,2129,2535,2071,1
4224.0,2125,2541,2073,1
4225.0,2116,2542,2072,1
4226.0,2111,2538,2073,1
4227.0,2116,2539,2075,1
4228.0,2117,2535,2073,1
4229.0,2121,2537,2070,1
4230.0,2121,2539,2076,1
4231.0,2119,2535,2075,1
4232.0,2122,2535,2075,1
4233.0,2117,2539,2076,1
4234.0,2117,2537,2078,1
4235.0,2119,2540,2076,1
4236.0,2125,2537,2075,1
4237.0,2114,2540,2073,1
4238.0,2121,2536,2073,1
4239.0,2116,2531,2072,1
4240.0,2114,2537,2073,1
4241.0,2119,2537,2071,1
4242.0,2115,2537,2073,1
4243.0,2122,2538,2075,1
4244.0,2117,2536,2072,1
4245.0,2117,2539,2073,1
4246.0,2115,2537,2074,1
4247.0,2118,2542,2076,1
4248.0,2120,2542,2075,1
4249.0,2119,2539,2073,1
4250.0,2129,2540,2081,1
4251.0,2130,2537,2078,1
4252.0,2122,2536,2072,1
4253.0,2117,2536,2076,1
4254.0,2115,2541,2074,1
4255.0,2119,2542,2073,1
4256.0,2122,2536,2073,1
4257.0,2119,2539,2070,1
4258.0,2122,2537,2071,1
4259.0,2116,2538,2074,1
4260.0,2118,2538,2068,1
4261.0,2121,2542,2074,1
4262.0,2120,2542,2071,1
4263.0,2118,2535,2077,1
4264.0,2121,2535,2074,1
4265.0,2114,2534,2073,1
4266.0,2119,2533,2075,1
4267.0,2119,2541,2073,1
4268.0,2116,2535,2070,1
4269.0,2123,2541,2078,1
4270.0,2116,2534,2068,1
4271.0,2126,2536,2072,1
4272.0,2118,2543,2069,1
4273.0,2118,2535,2070,1
4274.0,2116,2535,2067,1
4275.0,2121,2534,2072,1
4276.0,2118,2538,2074,1
4277.0,2120,2535,2071,1
4278.0,2119,2537,2072,1
4279.0,2117,2540,2069,1
4280.0,2122,2541,2069,1
4281.0,2122,2541,2073,1
4282.0,2123,2540,2071,1
4283.0,2121,2538,2071,1
4284.0,2119,2538,2071,1
4285.0,2117,2538,2070,1
4286.0,2118,2539,2070,1
4287.0,2119,2535,2067,1
4288.0,2115,2538,2063,1
4289.0,2120,2535,2068,1
4290.0,2116,2537,2071,1
4291.0,2119,2535,2073,1
4292.0,2123,2538,2072,1
4293.0,2118,2535,2071,1
4294.0,2115,2536,2071,1
4295.0,2125,2540,2068,1
4296.0,2122,2542,2067,1
4297.0,2117,2544,2068,1
4298.0,2120,2537,2070,1
4299.0,2114,2534,2066,1
4300.0,2120,2539,2074,1
4301.0,2115,2535,2064,1
4302.0,2120,2536,2070,1
4303.0,2116,2539,2069,1
4304.0,2119,2544,2066,1
4305.0,2115,2539,2069,1
4306.0,2121,2539,2070,1
4307.0,2123,2536,2068,1
4308.0,2123,2539,2068,1
4309.0,2112,2533,2064,1
4310.0,2118,2536,2063,1
4311.0,2113,2538,2067,1
4312.0,2120,2537,2062,1
4313.0,2118,2534,2069,1
4314.0,2115,2540,2062,1
4315.0,2118,2533,2059,1
4316.0,2116,2537,2062,1
4317.0,2118,2539,2068,1
4318.0,2117,2540,2063,1
4319.0,2119,2535,2069,1
4320.0,2113,2537,2063,1
4321.0,2120,2537,2064,1
4322.0,2118,2534,2066,1
4323.0,2113,2541,2062,1
4324.0,2115,2534,2060,1
4325.0,2124,2540,2068,1
4326.0,2119,2543,2071,1
4327.0,2117,2536,2063,1
4328.0,2120,2537,2066,1
4329.0,2120,2537,2065,1
4330.0,2119,2541,2068,1
4331.0,2121,2535,2068,1
4332.0,2124,2541,2066,1
4333.0,2115,2537,2067,1
4334.0,2120,2538,2068,1
4335.0,2118,2537,2060,1
4336.0,2114,2539,2067,1
4337.0,2117,2536,2064,1
4338.0,2115,2543,2064,1
4339.0,2119,2534,2067,1
4340.0,2119,2544,2068,1
4341.0,2120,2534,2067,1
4342.0,2119,2537,2068,1
4343.0,2118,2535,2069,1
4344.0,2118,2534,2063,1
4345.0,2117,2538,2069,1
4346.0,2119,2539,2067,1
4347.0,2123,2535,2068,1
4348.0,2124,2534,2070,1
4349.0,2122,2535,2067,1
4350.0,2116,2541,2067,1
4351.0,2121,2535,2063,1
4352.0,2123,2535,2063,1
4353.0,2121,2535,2061,1
4354.0,2118,2533,2057,1
4355.0,2121,2534,2055,1
4356.0,2122,2538,2059,1
4357.0,2122,2537,2060,1
4358.0,2118,2535,2060,1
4359.0,2124,2539,2064,1
4360.0,2121,2533,2062,1
4361.0,2118,2537,2070,1
4362.0,2122,2538,2064,1
4363.0,2122,2537,2062,1
4364.0,2123,2531,2065,1
4365.0,2125,2538,2067,1
4366.0,2118,2536,2063,1
4367.0,2126,2539,2068,1
4368.0,2125,2535,2072,1
4369.0,2120,2539,2066,1
4370.0,2125,2536,2077,1
4371.0,2124,2535,2071,1
4372.0,2125,2536,2072,1
4373.0,2121,2539,2070,1
4374.0,2123,2536,2066,1
4375.0,2121,2536,2066,1
4376.0,2118,2535,2066,1
4377.0,2120,2542,2073,1
4378.0,2120,2535,2071,1
4379.0,2121,2538,2072,1
4380.0,2117,2539,2070,1
4381.0,2117,2541,2066,1
4382.0,2116,2541,2065,1
4383.0,2119,2538,2071,1
4384.0,2111,2536,2066,1
4385.0,2119,2539,2069,1
4386.0,2117,2540,2062,1
4387.0,2121,2539,2066,1
4388.0,2114,2534,2062,1
4389.0,2121,2531,2064,1
4390.0,2117,2533,2062,1
4391.0,2121,2535,2063,1
4392.0,2121,2539,2063,1
4393.0,2119,2532,2066,1
4394.0,2121,2533,2059,1
4395.0,2122,2537,2067,1
4396.0,2123,2536,2065,1
4397.0,2124,2536,2071,1
4398.0,2124,2537,2068,1
4399.0,2127,2533,2069,1
4400.0,2120,2538,2069,1
4401.0,2122,2534,2069,1
4402.0,2120,2537,2069,1
4403.0,2124,2533,2071,1
4404.0,2126,2539,2063,1
4405.0,2118,2531,2067,1
4406.0,2122,2538,2058,1
4407.0,2118,2536,2066,1
4408.0,2123,2538,2063,1
4409.0,2125,2536,2066,1
4410.0,2121,2537,2060,1
4411.0,2118,2535,2059,1
4412.0,2125,2534,2064,1
4413.0,2118,2535,2067,1
4414.0,2122,2537,2065,1
4415.0,2119,2532,2069,1
4416.0,2121,2538,2068,1
4417.0,2124,2539,2067,1
4418.0,2123,2534,2065,1
4419.0,2119,2541,2068,1
4420.0,2124,2534,2079,1
4421.0,2121,2534,2077,1
4422.0,2120,2537,2073,1
4423.0,2120,2537,2068,1
4424.0,2122,2538,2072,1
4425.0,2126,2536,2072,1
4426.0,2119,2531,2069,1
4427.0,2116,2532,2071,1
4428.0,2115,2538,2071,1
4429.0,2124,2536,2080,1
4430.0,2120,2537,2073,1
4431.0,2120,2533,2073,1
4432.0,2121,2535,2078,1
4433.0,2116,2538,2069,1
4434.0,2115,2535,2075,1
4435.0,2119,2535,2082,1
4436.0,2120,2537,2075,1
4437.0,2116,2539,2079,1
4438.0,2112,2537,2076,1
4439.0,2114,2531,2074,1
4440.0,2117,2535,2077,1
4441.0,2120,2538,2078,1
4442.0,2119,2541,2079,1
4443.0,2122,2533,2075,1
4444.0,2119,2539,2075,1
4445.0,2119,2538,2077,1
4446.0,2119,2538,2076,1
4447.0,2115,2537,2075,1
4448.0,2123,2542,2071,1
4449.0,2117,2537,2075,1
4450.0,2119,2533,2076,1
4451.0,2118,2538,2076,1
4452.0,2118,2534,2070,1
4453.0,2120,2537,2073,1
4454.0,2116,2538,2071,1
4455.0,2116,2536,2077,1
4456.0,2118,2539,2075,1
4457.0,2123,2537,2074,1
4458.0,2122,2541,2075,1
4459.0,2120,2533,2077,1
4460.0,2123,2541,2075,1
4461.0,2119,2540,2072,1
4462.0,2124,2537,2075,1
4463.0,2118,2537,2070,1
4464.0,2125,2539,2073,1
4465.0,2115,2534,2074,1
4466.0,2121,2539,2077,1
4467.0,2119,2537,2073,1
4468.0,2121,2539,2074,1
4469.0,2123,2537,2074,1
4470.0,2119,2537,2072,1
4471.0,2119,2543,2074,1
4472.0,2120,2538,2070,1
4473.0,2124,2535,2067,1
4474.0,2121,2537,2074,1
4475.0,2124,2540,2075,1
4476.0,2119,2542,2078,1
4477.0,2118,2533,2075,1
4478.0,2124,2535,2078,1
4479.0,2122,2539,2076,1
4480.0,2121,2536,2073,1
4481.0,2118,2537,2075,1
4482.0,2118,2538,2077,1
4483.0,2118,2540,2073,1
4484.0,2116,2533,2069,1
4485.0,2119,2535,2074,1
4486.0,2120,2537,2068,1
4487.0,2119,2536,2070,1
4488.0,2121,2535,2078,1
4489.0,2123,2531,2077,1
4490.0,2121,2539,2074,1
4491.0,2117,2537,2077,1
4492.0,2120,2536,2074,1
4493.0,2114,2538,2080,1
4494.0,2117,2539,2079,1
4495.0,2116,2536,2076,1
4496.0,2123,2537,2077,1
4497.0,2125,2543,2075,1
4498.0,2121,2536,2075,1
4499.0,2115,2535,2079,1
4500.0,2118,2539,2074,1
4501.0,2118,2534,2076,1
4502.0,2115,2538,2068,1
4503.0,2120,2533,2074,1
4504.0,2117,2544,2075,1
4505.0,2119,2534,2070,1
4506.0,2120,2539,2072,1
4507.0,2124,2538,2073,1
4508.0,2114,2539,2074,1
4509.0,2117,2539,2071,1
4510.0,2118,2537,2074,1
4511.0,2117,2534,2075,1
4512.0,2116,2538,2074,1
4513.0,2117,2538,2077,1
4514.0,2119,2534,2076,1
4515.0,2118,2539,2073,1
4516.0,2113,2538,2072,1
4517.0,2120,2537,2075,1
4518.0,2119,2533,2073,1
4519.0,2117,2536,2069,1
4520.0,2113,2536,2075,1
4521.0,2118,2538,2076,1
4522.0,2119,2545,2073,1
4523.0,2112,2538,2072,1
4524.0,2117,2538,2073,1
4525.0,2119,2537,2075,1
4526.0,2113,2539,2078,1
4527.0,2115,2539,2076,1
4528.0,2118,2540,2075,1
4529.0,2119,2538,2072,1
4530.0,2117,2535,2075,1
4531.0,2112,2537,2076,1
4532.0,2119,2532,2072,1
4533.0,2119,2538,2069,1
4534.0,2121,2536,2074,1
4535.0,2119,2533,2075,1
4536.0,2118,2542,2078,1
4537.0,2113,2543,2075,1
4538.0,2123,2534,2081,1
4539.0,2115,2536,2073,1
4540.0,2122,2535,2071,1
4541.0,2115,2538,2073,1
4542.0,2114,2537,2078,1
4543.0,2117,2539,2071,1
4544.0,2111,2538,2070,1
4545.0,2115,2539,2074,1
4546.0,2114,2540,2073,1
4547.0,2117,2536,2073,1
4548.0,2124,2533,2071,1
4549.0,2119,2532,2080,1
4550.0,2120,2537,2072,1
4551.0,2119,2540,2079,1
4552.0,2115,2539,2075,1
4553.0,2119,2536,2077,1
4554.0,2116,2540,2076,1
4555.0,2120,2539,2077,1
4556.0,2117,2536,2073,1
4557.0,2118,2536,2079,1
4558.0,2115,2536,2075,1
4559.0,2118,2540,2074,1
4560.0,2117,2539,2076,1
4561.0,2115,2537,2075,1
4562.0,2121,2538,2076,1
4563.0,2116,2534,2071,1
4564.0,2118,2539,2076,1
4565.0,2119,2539,2071,1
4566.0,2117,2540,2075,1
4567.0,2119,2539,2073,1
4568.0,2112,2534,2078,1
4569.0,2123,2538,2073,1
4570.0,2118,2537,2073,1
4571.0,2120,2536,2078,1
4572.0,2116,2539,2078,1
4573.0,2118,2538,2077,1
4574.0,2113,2533,2071,1
4575.0,2123,2536,2076,1
4576.0,2121,2541,2071,1
4577.0,2120,2537,2077,1
4578.0,2115,2539,2076,1
4579.0,2116,2533,2077,1
4580.0,2119,2532,2075,1
4581.0,2118,2541,2072,1
4582.0,2115,2541,2076,1
4583.0,2117,2538,2072,1
4584.0,2119,2538,2067,1
4585.0,2118,2537,2070,1
4586.0,2113,2536,2074,1
4587.0,2113,2536,2070,1
4588.0,2118,2540,2071,1
4589.0,2117,2536,2070,1
4590.0,2112,2541,2061,1
4591.0,2113,2537,2062,1
4592.0,2117,2534,2063,1
4593.0,2113,2536,2060,1
4594.0,2117,2535,2065,1
4595.0,2115,2532,2065,1
4596.0,2114,2539,2064,1
4597.0,2113,2540,2061,1
4598.0,2116,2535,2064,1
4599.0,2122,2545,2060,1
4600.0,2121,2542,2062,1
4601.0,2123,2537,2060,1
4602.0,2125,2537,2065,1
4603.0,2121,2531,2065,1
4604.0,2119,2535,2060,1
4605.0,2118,2535,2065,1
4606.0,2128,2537,2062,1
4607.0,2121,2536,2062,1
4608.0,2119,2539,2064,1
4609.0,2115,2540,2067,1
4610.0,2118,2537,2061,1
4611.0,2118,2541,2064,1
4612.0,2118,2542,2059,1
4613.0,2119,2538,2061,1
4614.0,2121,2539,2055,1
4615.0,2119,2538,2059,1
4616.0,2117,2539,2055,1
4617.0,2115,2533,2055,1
4618.0,2115,2535,2055,1
4619.0,2117,2536,2058,1
4620.0,2116,2540,2054,1
4621.0,2114,2538,2049,1
4622.0,2115,2543,2057,1
4623.0,2117,2535,2061,1
4624.0,2112,2541,2063,1
4625.0,2117,2540,2058,1
4626.0,2119,2541,2061,1
4627.0,2122,2541,2066,1
4628.0,2122,2539,2069,1
4629.0,2120,2540,2065,1
4630.0,2113,2543,2063,1
4631.0,2119,2541,2063,1
4632.0,2114,2537,2069,1
4633.0,2118,2537,2069,1
4634.0,2116,2534,2065,1
4635.0,2110,2537,2069,1
4636.0,2115,2539,2065,1
4637.0,2115,2535,2065,1
4638.0,2113,2541,2063,1
4639.0,2115,2534,2060,1
4640.0,2119,2540,2060,1
4641.0,2121,2537,2063,1
4642.0,2119,2542,2067,1
4643.0,2117,2541,2071,1
4644.0,2119,2539,2063,1
4645.0,2117,2536,2061,1
4646.0,2118,2539,2061,1
4647.0,2120,2537,2063,1
4648.0,2120,2537,2070,1
4649.0,2120,2535,2065,1
4650.0,2112,2542,2071,1
4651.0,2113,2536,2067,1
4652.0,2115,2543,2067,1
4653.0,2116,2541,2063,1
4654.0,2120,2541,2059,1
4655.0,2115,2540,2062,1
4656.0,2119,2534,2054,1
4657.0,2117,2535,2049,1
4658.0,2118,2534,2051,1
4659.0,2114,2532,2051,1
4660.0,2118,2531,2052,1
4661.0,2119,2539,2051,1
4662.0,2122,2535,2053,1
4663.0,2118,2541,2060,1
4664.0,2123,2537,2058,1
4665.0,2118,2543,2057,1
4666.0,2116,2542,2056,1
4667.0,2116,2535,2059,1
4668.0,2123,2533,2060,1
4669.0,2120,2538,2060,1
4670.0,2119,2539,2059,1
4671.0,2113,2532,2056,1
4672.0,2123,2536,2061,1
4673.0,2112,2538,2061,1
4674.0,2112,2535,2057,1
4675.0,2116,2539,2058,1
4676.0,2120,2543,2055,1
4677.0,2116,2537,2057,1
4678.0,2116,2540,2055,1
4679.0,2117,2540,2055,1
4680.0,2117,2538,2054,1
4681.0,2119,2539,2054,1
4682.0,2115,2539,2059,1
4683.0,2123,2537,2063,1
4684.0,2122,2534,2062,1
4685.0,2116,2534,2063,1
4686.0,2118,2536,2060,1
4687.0,2121,2540,2065,1
4688.0,2113,2538,2063,1
4689.0,2117,2537,2066,1
4690.0,2119,2536,2066,1
4691.0,2121,2542,2062,1
4692.0,2117,2540,2057,1
4693.0,2118,2537,2060,1
4694.0,2123,2538,2062,1
4695.0,2122,2534,2068,1
4696.0,2116,2536,2069,1
4697.0,2116,2533,2068,1
4698.0,2118,2535,2063,1
4699.0,2120,2539,2065,1
4700.0,2122,2535,2065,1
4701.0,2117,2539,2066,1
4702.0,2116,2538,2068,1
4703.0,2112,2534,2064,1
4704.0,2122,2539,2063,1
4705.0,2125,2535,2065,1
4706.0,2121,2538,2071,1
4707.0,2120,2538,2065,1
4708.0,2116,2538,2062,1
4709.0,2120,2534,2064,1
4710.0,2114,2536,2065,1
4711.0,2115,2540,2060,1
4712.0,2116,2532,2060,1
4713.0,2115,2539,2068,1
4714.0,2120,2537,2061,1
4715.0,2115,2539,2067,1
4716.0,2112,2540,2069,1
4717.0,2119,2537,2067,1
4718.0,2113,2540,2067,1
4719.0,2118,2536,2070,1
4720.0,2120,2538,2066,1
4721.0,2120,2536,2072,1
4722.0,2121,2539,2066,1
4723.0,2120,2539,2069,1
4724.0,2122,2537,2069,1
4725.0,2119,2533,2068,1
4726.0,2121,2538,2069,1
4727.0,2112,2535,2063,1
4728.0,2114,2537,2068,1
4729.0,2123,2541,2064,1
4730.0,2120,2541,2063,1
4731.0,2114,2537,2062,1
4732.0,2122,2537,2068,1
4733.0,2113,2537,2060,1
4734.0,2116,2539,2064,1
4735.0,2112,2535,2064,1
4736.0,2117,2544,2067,1
4737.0,2115,2535,2063,1
4738.0,2115,2536,2069,1
4739.0,2119,2537,2066,1
4740.0,2115,2539,2069,1
4741.0,2118,2535,2066,1
4742.0,2119,2544,2066,1
4743.0,2121,2538,2072,1
4744.0,2119,2535,2071,1
4745.0,2115,2538,2065,1
4746.0,2117,2535,2072,1
4747.0,2117,2532,2073,1
4748.0,2119,2545,2075,1
4749.0,2119,2539,2069,1
4750.0,2122,2540,2067,1
4751.0,2117,2543,2065,1
4752.0,2118,2534,2072,1
4753.0,2112,2537,2071,1
4754.0,2121,2537,2066,1
4755.0,2124,2537,2071,1
4756.0,2119,2540,2066,1
4757.0,2119,2534,2063,1
4758.0,2118,2537,2065,1
4759.0,2117,2534,2066,1
4760.0,2104,2531,2052,1
4761.0,2102,2530,2054,1
4762.0,2115,2534,2063,1
4763.0,2119,2538,2065,1
4764.0,2120,2533,2063,1
4765.0,2121,2535,2066,1
4766.0,2117,2535,2066,1
4767.0,2116,2538,2068,1
4768.0,2117,2541,2064,1
4769.0,2112,2539,2069,1
4770.0,2119,2536,2067,1
4771.0,2119,2541,2064,1
4772.0,2119,2538,2070,1
4773.0,2115,2539,2064,1
4774.0,2114,2534,2065,1
4775.0,2116,2536,2063,1
4776.0,2123,2536,2071,1
4777.0,2118,2538,2064,1
4778.0,2121,2534,2065,1
4779.0,2118,2535,2069,1
4780.0,2115,2536,2067,1
4781.0,2116,2538,2072,1
4782.0,2116,2539,2064,1
4783.0,2114,2536,2068,1
4784.0,2116,2534,2067,1
4785.0,2120,2540,2067,1
4786.0,2121,2538,2067,1
4787.0,2115,2532,2067,1
4788.0,2114,2539,2067,1
4789.0,2118,2544,2073,1
4790.0,2108,2536,2071,1
4791.0,2118,2542,2072,1
4792.0,2125,2537,2073,1
4793.0,2116,2537,2075,1
4794.0,2115,2536,2069,1
4795.0,2118,2533,2070,1
4796.0,2113,2540,2065,1
4797.0,2118,2535,2069,1
4798.0,2113,2533,2067,1
4799.0,2117,2540,2069,1
4800.0,2116,2537,2066,1
4801.0,2114,2540,2062,1
4802.0,2114,2537,2069,1
4803.0,2117,2541,2067,1
4804.0,2117,2540,2065,1
4805.0,2115,2538,2072,1
4806.0,2110,2539,2071,1
4807.0,2121,2538,2068,1
4808.0,2113,2536,2070,1
4809.0,2116,2539,2069,1
4810.0,2119,2533,2071,1
4811.0,2116,2539,2071,1
4812.0,2116,2533,2070,1
4813.0,2117,2539,2069,1
4814.0,2117,2535,2072,1
4815.0,2109,2541,2073,1
4816.0,2122,2541,2071,1
4817.0,2123,2536,2075,1
4818.0,2119,2543,2071,1
4819.0,2122,2538,2071,1
4820.0,2117,2534,2073,1
4821.0,2117,2538,2072,1
4822.0,2117,2538,2065,1
4823.0,2117,2539,2071,1
4824.0,2120,2533,2065,1
4825.0,2120,2538,2065,1
4826.0,2115,2541,2068,1
4827.0,2121,2535,2074,1
4828.0,2118,2541,2072,1
4829.0,2117,2542,2069,1
4830.0,2121,2539,2067,1
4831.0,2114,2543,2069,1
4832.0,2125,2540,2070,1
4833.0,2121,2538,2068,1
4834.0,2122,2537,2071,1
4835.0,2121,2535,2074,1
4836.0,2121,2540,2069,1
4837.0,2117,2539,2069,1
4838.0,2119,2534,2071,1
4839.0,2117,2535,2071,1
4840.0,2120,2533,2068,1
4841.0,2118,2535,2070,1
4842.0,2120,2537,2071,1
4843.0,2119,2537,2066,1
4844.0,2116,2538,2069,1
4845.0,2122,2537,2076,1
4846.0,2123,2539,2068,1
4847.0,2121,2537,2074,1
4848.0,2123,2536,2072,1
4849.0,2119,2542,2070,1
4850.0,2123,2540,2073,1
4851.0,2123,2535,2071,1
4852.0,2122,2538,2069,1
4853.0,2119,2536,2072,1
4854.0,2123,2535,2071,1
4855.0,2117,2538,2073,1
4856.0,2127,2540,2071,1
4857.0,2120,2539,2070,1
4858.0,2118,2535,2066,1
4859.0,2122,2535,2073,1
4860.0,2127,2537,2077,1
4861.0,2124,2535,2075,1
4862.0,2121,2535,2071,1
4863.0,2117,2544,2075,1
4864.0,2118,2537,2074,1
4865.0,2121,2537,2074,1
4866.0,2116,2535,2070,1
4867.0,2119,2537,2072,1
4868.0,2115,2541,2073,1
4869.0,2117,2534,2066,1
4870.0,2118,2535,2074,1
4871.0,2117,2538,2067,1
4872.0,2115,2539,2071,1
4873.0,2117,2536,2076,1
4874.0,2123,2539,2080,1
4875.0,2126,2542,2075,1
4876.0,2123,2538,2076,1
4877.0,2121,2534,2077,1
4878.0,2122,2532,2080,1
4879.0,2120,2539,2092,1
4880.0,2124,2547,2091,1
4881.0,2122,2547,2082,1
4882.0,2128,2537,2079,1
4883.0,2119,2540,2077,1
4884.0,2120,2538,2068,1
4885.0,2112,2543,2066,1
4886.0,2103,2547,2055,1
4887.0,2087,2547,2031,1
4888.0,2078,2541,2030,1
4889.0,2079,2541,2040,1
4890.0,2078,2549,2052,1
4891.0,2104,2534,2072,1
4892.0,2117,2533,2080,1
4893.0,2134,2506,2094,1
4894.0,2144,2489,2119,1
4895.0,2161,2496,2127,1
4896.0,2163,2511,2115,1
4897.0,2161,2516,2113,1
4898.0,2152,2502,2113,1
4899.0,2134,2501,2105,1
4900.0,2117,2524,2093,1
4901.0,2112,2548,2102,1
4902.0,2105,2560,2112,1
4903.0,2096,2554,2122,1
4904.0,2086,2560,2115,1
4905.0,2068,2574,2106,1
4906.0,2071,2575,2097,1
4907.0,2063,2567,2081,1
4908.0,2058,2543,2072,1
4909.0,2068,2537,2067,1
4910.0,2074,2537,2064,1
4911.0,2075,2540,2065,1
4912.0,2078,2537,2062,1
4913.0,2082,2534,2059,1
4914.0,2085,2539,2051,1
4915.0,2092,2548,2050,1
4916.0,2098,2540,2040,1
4917.0,2095,2537,2027,1
4918.0,2095,2537,2043,1
4919.0,2103,2544,2053,1
4920.0,2104,2540,2059,1
4921.0,2116,2548,2055,1
4922.0,2109,2536,2053,1
4923.0,2125,2546,2035,1
4924.0,2109,2541,2042,1
4925.0,2105,2533,2051,1
4926.0,2108,2535,2051,1
4927.0,2115,2537,2060,1
4928.0,2114,2532,2056,1
4929.0,2118,2525,2051,1
4930.0,2114,2532,2064,1
4931.0,2116,2529,2065,1
4932.0,2117,2533,2063,1
4933.0,2116,2538,2070,1
4934.0,2125,2551,2075,1
4935.0,2130,2558,2084,1
4936.0,2131,2558,2088,1
4937.0,2135,2541,2084,1
4938.0,2135,2531,2089,1
4939.0,2136,2529,2089,1
4940.0,2131,2523,2086,1
4941.0,2135,2518,2088,1
4942.0,2131,2521,2098,1
4943.0,2124,2519,2097,1
4944.0,2126,2536,2097,1
4945.0,2126,2539,2098,1
4946.0,2125,2546,2096,1
4947.0,2121,2545,2097,1
4948.0,2129,2542,2093,1
4949.0,2121,2541,2091,1
4950.0,2125,2545,2085,1
4951.0,2133,2534,2081,1
4952.0,2133,2530,2092,1
4953.0,2130,2532,2084,1
4954.0,2134,2531,2086,1
4955.0,2130,2530,2087,1
4956.0,2132,2533,2083,1
4957.0,2126,2542,2081,1
4958.0,2131,2539,2075,1
4959.0,2122,2537,2074,1
4960.0,2129,2529,2079,1
4961.0,2123,2538,2092,1
4962.0,2112,2555,2100,1
4963.0,2112,2582,2100,1
4964.0,2144,2610,2107,1
4965.0,2155,2596,2073,1
4966.0,2155,2553,2056,1
4967.0,2132,2517,2072,1
4968.0,2109,2501,2082,1
4969.0,2111,2510,2080,1
4970.0,2100,2507,2063,1
4971.0,2123,2494,2070,1
4972.0,2143,2507,2066,1
4973.0,2154,2537,2054,1
4974.0,2126,2540,2036,1
4975.0,2114,2519,2061,1
4976.0,2108,2483,2087,1
4977.0,2131,2498,2075,1
4978.0,2179,2541,2043,1
4979.0,2195,2555,2029,1
4980.0,2191,2553,2036,1
4981.0,2183,2545,2041,1
4982.0,2209,2533,2068,1
4983.0,2200,2537,2069,1
4984.0,2187,2533,2061,1
4985.0,2173,2528,2060,1
4986.0,2180,2512,2074,1
4987.0,2176,2507,2087,1
4988.0,2178,2499,2082,1
4989.0,2169,2498,2078,1
4990.0,2169,2501,2067,1
4991.0,2165,2508,2056,1
4992.0,2178,2523,2041,1
4993.0,2179,2547,2038,1
4994.0,2173,2553,2041,1
4995.0,2184,2549,2049,1
4996.0,2174,2537,2067,1
4997.0,2171,2541,2084,1
4998.0,2165,2533,2096,1
4999.0,2165,2531,2101,1
5000.0,2161,2524,2093,1
5001.0,2156,2519,2090,1
5002.0,2160,2516,2095,1
5003.0,2143,2510,2099,1
5004.0,2145,2525,2099,1
5005.0,2151,2522,2102,1
5006.0,2150,2524,2104,1
5007.0,2145,2534,2102,1
5008.0,2140,2540,2102,1
5009.0,2142,2539,2102,1
5010.0,2139,2545,2104,1
5011.0,2133,2542,2112,1
5012.0,2127,2538,2114,1
5013.0,2120,2532,2117,1
5014.0,2115,2527,2122,1
5015.0,2115,2526,2117,1
5016.0,2112,2531,2125,1
5017.0,2131,2517,2137,1
5018.0,2119,2531,2126,1
5019.0,2103,2536,2118,1
5020.0,2114,2547,2117,1
5021.0,2104,2541,2119,1
5022.0,2115,2535,2133,1
5023.0,2122,2548,2121,1
5024.0,2102,2544,2125,1
5025.0,2106,2534,2122,1
5026.0,2106,2529,2127,1
5027.0,2109,2533,2125,1
5028.0,2096,2534,2130,1
5029.0,2091,2536,2117,1
5030.0,2091,2532,2119,1
5031.0,2098,2534,2126,1
5032.0,2091,2541,2126,1
5033.0,2094,2540,2119,1
5034.0,2082,2538,2118,1
5035.0,2078,2541,2115,1
5036.0,2076,2540,2104,1
5037.0,2076,2543,2112,1
5038.0,2075,2539,2113,1
5039.0,2077,2539,2110,1
5040.0,2074,2537,2105,1
5041.0,2075,2537,2104,1
5042.0,2072,2543,2110,1
5043.0,2076,2544,2097,1
5044.0,2080,2537,2097,1
5045.0,2085,2542,2100,1
