timestamp,accX,accY,accZ,class
0.0,1983,2438,1825,1
1.0,1948,2442,1797,1
2.0,1927,2388,1784,1
3.0,1960,2319,1831,1
4.0,1967,2274,1871,1
5.0,1991,2252,1882,1
6.0,2010,2263,1893,1
7.0,2037,2292,1919,1
8.0,2041,2306,1925,1
9.0,2043,2298,1913,1
10.0,1998,2336,1884,1
11.0,1962,2371,1834,1
12.0,1940,2391,1798,1
13.0,1925,2404,1801,1
14.0,1937,2328,1808,1
15.0,1929,2310,1822,1
16.0,1933,2302,1829,1
17.0,1947,2305,1838,1
18.0,1971,2305,1839,1
19.0,1983,2317,1824,1
20.0,1999,2305,1824,1
21.0,1995,2297,1815,1
22.0,2002,2304,1811,1
23.0,2013,2309,1811,1
24.0,1998,2322,1786,1
25.0,1968,2288,1758,1
26.0,1969,2261,1751,1
27.0,1941,2265,1728,1
28.0,1938,2265,1742,1
29.0,1936,2290,1735,1
30.0,1942,2293,1730,1
31.0,1938,2243,1735,1
32.0,1932,2219,1737,1
33.0,1927,2217,1729,1
34.0,1918,2212,1718,1
35.0,1925,2215,1734,1
36.0,1938,2263,1730,1
37.0,1933,2276,1729,1
38.0,1934,2298,1742,1
39.0,1957,2335,1771,1
40.0,1995,2383,1797,1
41.0,2024,2400,1818,1
42.0,2013,2371,1811,1
43.0,1953,2309,1777,1
44.0,1955,2263,1775,1
45.0,1980,2265,1816,1
46.0,1980,2253,1803,1
47.0,1947,2248,1794,1
48.0,1943,2228,1778,1
49.0,1930,2203,1760,1
50.0,1907,2167,1736,1
51.0,1878,2172,1701,1
52.0,1901,2200,1678,1
53.0,1928,2229,1688,1
54.0,1936,2238,1694,1
55.0,1933,2234,1706,1
56.0,1956,2246,1725,1
57.0,1964,2250,1747,1
58.0,1966,2263,1740,1
59.0,1957,2272,1741,1
60.0,1944,2264,1736,1
61.0,1943,2258,1747,1
62.0,1947,2244,1761,1
63.0,1936,2251,1760,1
64.0,1942,2258,1750,1
65.0,1934,2287,1729,1
66.0,1931,2293,1733,1
67.0,1938,2287,1748,1
68.0,1953,2269,1779,1
69.0,1986,2272,1815,1
70.0,2005,2297,1832,1
71.0,1990,2312,1808,1
72.0,1989,2318,1798,1
73.0,1996,2316,1805,1
74.0,2000,2294,1806,1
75.0,1963,2292,1762,1
76.0,1940,2272,1737,1
77.0,1937,2241,1735,1
78.0,1927,2183,1732,1
79.0,1903,2151,1711,1
80.0,1890,2135,1655,1
81.0,1843,2138,1572,1
82.0,1833,2119,1557,1
83.0,1864,2163,1611,1
84.0,1886,2242,1614,1
85.0,1992,2412,1662,1
86.0,2074,2493,1709,1
87.0,2066,2443,1724,1
88.0,2077,2404,1765,1
89.0,2109,2429,1823,1
90.0,2112,2416,1870,1
91.0,2060,2348,1887,1
92.0,2019,2282,1886,1
93.0,2001,2230,1925,1
94.0,1969,2189,1908,1
95.0,1880,2149,1889,1
96.0,1882,2146,1828,1
97.0,1856,2138,1781,1
98.0,1857,2143,1766,1
99.0,1875,2170,1749,1
100.0,1866,2218,1716,1
101.0,1885,2258,1670,1
102.0,1886,2260,1618,1
103.0,1926,2243,1641,1
104.0,2012,2292,1699,1
105.0,2048,2281,1757,1
106.0,2052,2249,1745,1
107.0,2027,2239,1712,1
108.0,2014,2226,1683,1
109.0,2010,2240,1692,1
110.0,1994,2240,1684,1
111.0,1962,2214,1674,1
112.0,1918,2195,1665,1
113.0,1899,2175,1659,1
114.0,1877,2147,1665,1
115.0,1846,2124,1675,1
116.0,1776,2111,1617,1
117.0,1716,2136,1593,1
118.0,1691,2219,1597,1
119.0,1680,2312,1619,1
120.0,1706,2367,1677,1
121.0,1728,2420,1737,1
122.0,1792,2445,1803,1
123.0,1930,2485,1903,1
124.0,2054,2527,1974,1
125.0,2130,2570,2000,1
126.0,2104,2590,1975,1
127.0,2090,2545,1975,1
128.0,2098,2501,1964,1
129.0,2155,2469,2007,1
130.0,2192,2355,2033,1
131.0,2112,2287,1992,1
132.0,2047,2285,1942,1
133.0,2060,2281,1923,1
134.0,2100,2230,1928,1
135.0,2102,2208,1961,1
136.0,2065,2199,1940,1
137.0,2014,2243,1871,1
138.0,1969,2242,1830,1
139.0,1927,2221,1779,1
140.0,1885,2146,1742,1
141.0,1834,2103,1691,1
142.0,1811,2076,1662,1
143.0,1831,2129,1638,1
144.0,1947,2219,1673,1
145.0,2003,2255,1705,1
146.0,1982,2189,1697,1
147.0,1942,2155,1679,1
148.0,1944,2179,1675,1
149.0,1957,2211,1685,1
150.0,2011,2289,1700,1
151.0,2062,2299,1740,1
152.0,2033,2263,1751,1
153.0,2034,2231,1753,1
154.0,2044,2236,1757,1
155.0,2022,2251,1743,1
156.0,1980,2243,1728,1
157.0,1962,2254,1718,1
158.0,1961,2253,1722,1
159.0,1962,2260,1735,1
160.0,1975,2296,1742,1
161.0,2001,2357,1755,1
162.0,2028,2388,1790,1
163.0,2089,2370,1827,1
164.0,2067,2310,1847,1
165.0,2033,2300,1837,1
166.0,2035,2311,1834,1
167.0,2034,2308,1841,1
168.0,2022,2310,1829,1
169.0,2024,2308,1819,1
170.0,2023,2238,1785,1
171.0,2022,2238,1787,1
172.0,2021,2237,1787,1
173.0,2012,2249,1785,1
174.0,2010,2249,1765,1
175.0,2000,2261,1753,1
176.0,2008,2290,1740,1
177.0,1995,2301,1731,1
178.0,1981,2307,1718,1
179.0,1994,2313,1729,1
180.0,2009,2303,1754,1
181.0,2005,2285,1764,1
182.0,1998,2292,1773,1
183.0,2011,2282,1796,1
184.0,2033,2261,1807,1
185.0,2017,2254,1822,1
186.0,2003,2241,1817,1
187.0,2024,2255,1825,1
188.0,2018,2256,1817,1
189.0,2010,2263,1819,1
190.0,2018,2262,1811,1
191.0,2015,2246,1804,1
192.0,2026,2260,1795,1
193.0,2023,2271,1778,1
194.0,2013,2277,1772,1
195.0,2001,2282,1747,1
196.0,1989,2279,1740,1
197.0,1987,2261,1748,1
198.0,1983,2275,1744,1
199.0,1986,2272,1726,1
200.0,1959,2263,1706,1
201.0,1950,2244,1709,1
202.0,1950,2252,1722,1
203.0,1948,2252,1723,1
204.0,1954,2275,1707,1
205.0,1960,2289,1699,1
206.0,1946,2294,1695,1
207.0,1937,2310,1688,1
208.0,1958,2337,1714,1
209.0,2004,2360,1744,1
210.0,2042,2351,1779,1
211.0,2061,2323,1826,1
212.0,2082,2278,1867,1
213.0,2099,2263,1891,1
214.0,2125,2280,1906,1
215.0,2099,2275,1898,1
216.0,2100,2275,1883,1
217.0,2052,2252,1887,1
218.0,1961,2259,1824,1
219.0,1987,2258,1793,1
220.0,1997,2233,1784,1
221.0,1967,2216,1763,1
222.0,1915,2194,1689,1
223.0,1884,2199,1652,1
224.0,1905,2221,1639,1
225.0,1930,2211,1652,1
226.0,1908,2205,1646,1
227.0,1927,2205,1655,1
228.0,1961,2217,1670,1
229.0,1956,2226,1677,1
230.0,1963,2235,1675,1
231.0,1969,2268,1663,1
232.0,1975,2268,1683,1
233.0,1997,2241,1725,1
234.0,1991,2243,1736,1
235.0,2002,2254,1759,1
236.0,2026,2266,1783,1
237.0,2036,2246,1811,1
238.0,2020,2243,1815,1
239.0,1997,2247,1789,1
240.0,1970,2268,1770,1
241.0,1965,2283,1770,1
242.0,1951,2305,1767,1
243.0,1942,2328,1762,1
244.0,1933,2334,1779,1
245.0,1930,2322,1798,1
246.0,1936,2321,1801,1
247.0,1947,2332,1811,1
248.0,1983,2343,1821,1
249.0,1999,2341,1835,1
250.0,1990,2295,1837,1
251.0,1977,2277,1820,1
252.0,1989,2269,1831,1
253.0,2024,2291,1850,1
254.0,2029,2298,1849,1
255.0,2004,2284,1831,1
256.0,1975,2267,1791,1
257.0,1968,2257,1769,1
258.0,1978,2248,1762,1
259.0,1956,2251,1740,1
260.0,1957,2258,1736,1
261.0,1954,2268,1725,1
262.0,1935,2236,1719,1
263.0,1931,2224,1722,1
264.0,1944,2183,1762,1
265.0,1959,2179,1800,1
266.0,1952,2199,1814,1
267.0,1897,2251,1795,1
268.0,1890,2327,1739,1
269.0,1884,2485,1693,1
270.0,1923,2610,1698,1
271.0,1950,2714,1719,1
272.0,1958,2735,1727,1
273.0,1920,2623,1795,1
274.0,1917,2485,1872,1
275.0,1948,2341,1964,1
276.0,1952,2217,2018,1
277.0,1969,2145,2029,1
278.0,1971,2123,1997,1
279.0,1946,2084,1979,1
280.0,1903,2047,1942,1
281.0,1869,2046,1895,1
282.0,1864,2099,1858,1
283.0,1855,2149,1866,1
284.0,1840,2220,1828,1
285.0,1806,2223,1755,1
286.0,1742,2226,1679,1
287.0,1725,2299,1654,1
288.0,1814,2422,1707,1
289.0,1857,2484,1726,1
290.0,1925,2517,1738,1
291.0,2004,2624,1737,1
292.0,2117,2757,1767,1
293.0,2158,2797,1789,1
294.0,2125,2769,1779,1
295.0,2024,2725,1751,1
296.0,1971,2647,1765,1
297.0,1961,2557,1824,1
298.0,1940,2450,1883,1
299.0,1900,2319,1906,1
300.0,1880,2237,1911,1
301.0,1866,2172,1910,1
302.0,1842,2054,1902,1
303.0,1834,1925,1928,1
304.0,1824,1897,1922,1
305.0,1831,1893,1873,1
306.0,1848,1903,1865,1
307.0,1858,1906,1865,1
308.0,1901,1934,1912,1
309.0,2013,2034,1986,1
310.0,2012,2137,1947,1
311.0,1912,2235,1783,1
312.0,1872,2343,1653,1
313.0,1971,2486,1634,1
314.0,2158,2641,1739,1
315.0,2270,2675,1785,1
316.0,2266,2656,1745,1
317.0,2272,2645,1730,1
318.0,2235,2581,1750,1
319.0,2233,2515,1811,1
320.0,2214,2461,1848,1
321.0,2117,2388,1808,1
322.0,2035,2362,1774,1
323.0,1999,2312,1786,1
324.0,1977,2258,1803,1
325.0,1941,2191,1797,1
326.0,1921,2120,1799,1
327.0,1931,2078,1811,1
328.0,1955,2035,1845,1
329.0,1962,2005,1855,1
330.0,1947,1988,1833,1
331.0,1946,1986,1817,1
332.0,1924,2004,1806,1
333.0,1946,2024,1805,1
334.0,1998,2076,1817,1
335.0,2024,2144,1843,1
336.0,2032,2206,1842,1
337.0,1996,2231,1797,1
338.0,1955,2243,1764,1
339.0,1954,2226,1768,1
340.0,1941,2265,1782,1
341.0,1939,2267,1780,1
342.0,1930,2281,1775,1
343.0,1939,2376,1716,1
344.0,1969,2464,1691,1
345.0,2018,2562,1682,1
346.0,2122,2714,1677,1
347.0,2189,2850,1671,1
348.0,2142,2885,1563,1
349.0,2106,2790,1559,1
350.0,2102,2638,1663,1
351.0,2052,2461,1754,1
352.0,2003,2264,1821,1
353.0,1991,2144,1858,1
354.0,1949,2014,1879,1
355.0,1947,1972,1874,1
356.0,1909,1929,1866,1
357.0,1891,1879,1872,1
358.0,1877,1855,1926,1
359.0,1842,1972,1873,1
360.0,1771,2154,1756,1
361.0,1776,2341,1646,1
362.0,1842,2510,1613,1
363.0,1952,2498,1689,1
364.0,2003,2428,1759,1
365.0,2049,2337,1819,1
366.0,2103,2270,1863,1
367.0,2138,2285,1894,1
368.0,2208,2310,1905,1
369.0,2168,2263,1881,1
370.0,2124,2224,1836,1
371.0,2089,2201,1802,1
372.0,2081,2203,1800,1
373.0,2076,2211,1796,1
374.0,2069,2282,1769,1
375.0,2097,2354,1769,1
376.0,2103,2355,1756,1
377.0,2063,2315,1726,1
378.0,2045,2296,1701,1
379.0,2086,2301,1744,1
380.0,2100,2331,1772,1
381.0,2135,2354,1793,1
382.0,2098,2327,1806,1
383.0,2072,2279,1825,1
384.0,2071,2269,1845,1
385.0,2069,2255,1845,1
386.0,2025,2315,1815,1
387.0,2032,2325,1762,1
388.0,2058,2276,1819,1
389.0,2087,2294,1859,1
390.0,2080,2273,1868,1
391.0,2070,2280,1840,1
392.0,2064,2259,1837,1
393.0,2062,2253,1907,1
394.0,2131,2243,1924,1
395.0,2181,2213,1974,1
396.0,2141,2254,1876,1
397.0,2143,2283,1802,1
398.0,2116,2301,1756,1
399.0,2081,2213,1760,1
400.0,2126,2243,1832,1
401.0,2104,2306,1827,1
402.0,2033,2317,1775,1
403.0,2254,2079,1630,1
404.0,2158,2095,1674,1
405.0,2103,2218,1751,1
406.0,2115,2293,1780,1
407.0,2097,2282,1739,1
408.0,2108,2286,1763,1
409.0,2064,2231,1749,1
410.0,2020,2281,1863,1
411.0,1942,2371,1886,1
412.0,2131,2210,1816,1
413.0,2067,2261,1768,1
414.0,2065,2235,1881,1
415.0,2103,2262,1978,1
416.0,2077,2212,1922,1
417.0,2127,2269,1881,1
418.0,2088,2321,1906,1
419.0,2036,2226,1944,1
420.0,2044,2289,1794,1
421.0,2152,2447,2006,1
422.0,2065,2344,1992,1
423.0,2072,2417,2107,1
424.0,1970,2185,2069,1
425.0,1924,2143,2083,1
426.0,2102,2247,2082,1
427.0,2064,2431,1702,1
428.0,2209,2518,2148,1
429.0,2216,2359,1913,1
430.0,2135,2312,1896,1
431.0,2042,2199,2001,1
432.0,2145,2305,1954,1
433.0,2552,2326,1635,1
434.0,2214,2262,1914,1
435.0,2261,2232,1873,1
436.0,2165,2215,1955,1
437.0,2071,2174,1964,1
438.0,2240,2147,1850,1
439.0,2141,2190,1920,1
440.0,2147,2260,2086,1
441.0,2076,2283,2114,1
442.0,2153,2230,1957,1
443.0,2206,2278,1979,1
444.0,2202,2254,2001,1
445.0,2031,2271,2004,1
446.0,2133,2247,2011,1
447.0,2206,2291,1959,1
448.0,2171,2289,1908,1
449.0,2042,2213,1997,1
450.0,2397,2284,1999,1
451.0,2234,2369,2033,1
452.0,2127,2327,2032,1
453.0,2053,2275,2051,1
454.0,2037,2277,2045,1
455.0,2098,2236,1977,1
456.0,2167,2270,1983,1
457.0,2211,2307,1930,1
458.0,2238,2302,1906,1
459.0,2079,2276,2009,1
460.0,2033,2283,1958,1
461.0,1987,2281,1995,1
462.0,2051,2357,1978,1
463.0,2118,2375,1938,1
464.0,2052,2368,1922,1
465.0,2038,2338,1903,1
466.0,2014,2278,1967,1
467.0,1995,2357,2037,1
468.0,1996,2349,2016,1
469.0,2011,2379,1975,1
470.0,1997,2335,1988,1
471.0,2036,2382,1935,1
472.0,2020,2380,1959,1
473.0,2001,2330,1980,1
474.0,1968,2333,1956,1
475.0,1989,2331,1971,1
476.0,1987,2363,1983,1
477.0,1987,2330,1960,1
478.0,1961,2302,1933,1
479.0,2000,2250,1965,1
480.0,2096,2104,1998,1
481.0,2072,2215,2182,1
482.0,2117,2487,1985,1
483.0,2011,2503,2171,1
484.0,2091,2374,2080,1
485.0,2149,2357,2071,1
486.0,2122,2393,2173,1
487.0,2047,2389,2095,1
488.0,2067,2295,2091,1
489.0,2002,2279,2095,1
490.0,2022,2270,2077,1
491.0,2029,2395,2090,1
492.0,2044,2387,2061,1
493.0,2056,2341,1981,1
494.0,1987,2322,2058,1
495.0,2021,2315,2033,1
496.0,2047,2308,2036,1
497.0,2042,2292,2036,1
498.0,2012,2248,2071,1
499.0,1994,2209,2068,1
500.0,2023,2306,2080,1
501.0,1969,2381,2102,1
502.0,2005,2326,2071,1
503.0,2029,2373,2071,1
504.0,2014,2320,2071,1
505.0,2013,2258,2061,1
506.0,1963,2349,2135,1
507.0,1965,2344,2109,1
508.0,1977,2343,2111,1
509.0,1961,2328,2133,1
510.0,1980,2287,2061,1
511.0,1979,2292,2067,1
512.0,1931,2360,2122,1
513.0,1945,2400,2127,1
514.0,1942,2369,2139,1
515.0,1937,2423,2101,1
516.0,1936,2113,2132,1
517.0,1920,2235,2093,1
518.0,1933,2319,2103,1
519.0,1925,2312,2094,1
520.0,1918,2346,2142,1
521.0,1953,2135,2081,1
522.0,1872,2401,2109,1
523.0,1918,2411,2191,1
524.0,1948,2390,2104,1
525.0,1863,2458,2063,1
526.0,1994,2462,2155,1
527.0,1937,2364,2145,1
528.0,1869,2376,2188,1
529.0,1983,2263,2204,1
530.0,1959,2269,2198,1
531.0,1809,2323,2047,1
532.0,1938,2339,1984,1
533.0,1913,2333,2025,1
534.0,1988,2515,2182,1
535.0,1904,2315,2378,1
536.0,1868,2340,2242,1
537.0,1874,2299,2152,1
538.0,1925,2322,2098,1
539.0,1938,2375,2074,1
540.0,1898,2407,2143,1
541.0,1891,2429,2162,1
542.0,1916,2429,2116,1
543.0,1959,2314,2079,1
544.0,1932,2311,1974,1
545.0,1876,2274,2083,1
546.0,1857,2289,2153,1
547.0,1903,2301,2196,1
548.0,1916,2350,2169,1
549.0,1886,2322,2141,1
550.0,1910,2299,2138,1
551.0,1888,2361,2148,1
552.0,1864,2334,2169,1
553.0,1893,2331,2144,1
554.0,1894,2329,2139,1
555.0,1891,2339,2140,1
556.0,1894,2337,2127,1
557.0,1884,2350,2100,1
558.0,1871,2358,2092,1
559.0,1898,2389,2109,1
560.0,1870,2462,2116,1
561.0,1811,2550,2132,1
562.0,1817,2543,2119,1
563.0,1835,2530,2096,1
564.0,1875,2532,2091,1
565.0,1853,2497,2146,1
566.0,1891,2462,2190,1
567.0,1899,2335,2100,1
568.0,1900,2231,2003,1
569.0,1892,2149,1979,1
570.0,1906,2058,1924,1
571.0,1928,1985,1918,1
572.0,1877,2038,2029,1
573.0,1975,2198,2011,1
574.0,1831,2222,2056,1
575.0,1839,2403,2206,1
576.0,1797,2443,2237,1
577.0,1807,2481,2259,1
578.0,1821,2462,2224,1
579.0,1851,2391,2152,1
580.0,1886,2330,2070,1
581.0,1889,2303,2016,1
582.0,1866,2296,1989,1
583.0,1847,2286,1956,1
584.0,1862,2273,1957,1
585.0,1889,2273,2006,1
586.0,1891,2293,2053,1
587.0,1875,2319,2095,1
588.0,1858,2343,2083,1
589.0,1849,2338,2066,1
590.0,1864,2334,2073,1
591.0,1867,2328,2089,1
592.0,1884,2318,2073,1
593.0,1881,2332,2071,1
594.0,1864,2334,2051,1
595.0,1878,2326,2046,1
596.0,1881,2340,2068,1
597.0,1913,2323,2098,1
598.0,1859,2087,2087,1
599.0,1903,2215,1995,1
600.0,1972,2614,2102,1
601.0,1993,2769,2164,1
602.0,1969,2474,2100,1
603.0,1952,2271,2045,1
604.0,1948,2291,2045,1
605.0,1952,2353,2074,1
606.0,1959,2436,2075,1
607.0,1887,2869,3,1
608.0,1938,2444,1602,1
609.0,1958,2270,2018,1
610.0,1961,2317,2071,1
611.0,1959,2282,2063,1
612.0,1965,2343,2065,1
613.0,1976,2395,2098,1
614.0,1965,2358,2075,1
615.0,1948,2297,2065,1
616.0,1957,2285,2079,1
617.0,1960,2326,2068,1
618.0,1965,2361,2079,1
619.0,1965,2391,2083,1
620.0,1960,2376,2076,1
621.0,1959,2304,2059,1
622.0,1952,2263,2052,1
623.0,1948,2273,2054,1
624.0,1961,2315,2066,1
625.0,1969,2415,2080,1
626.0,1971,2484,2099,1
627.0,1963,2311,2066,1
628.0,1954,2267,2061,1
629.0,1961,2330,2068,1
630.0,1963,2369,2070,1
631.0,1960,2376,2073,1
632.0,1969,2405,2077,1
633.0,1964,2368,2077,1
634.0,1964,2336,2061,1
635.0,1966,2369,2073,1
636.0,1985,2385,2028,1
637.0,1993,2354,2012,1
638.0,1975,2343,2057,1
639.0,1962,2324,2071,1
640.0,1979,2335,2039,1
641.0,1965,2347,2076,1
642.0,1961,2361,2083,1
643.0,1964,2371,2083,1
644.0,1955,2362,2081,1
645.0,1960,2353,2077,1
646.0,1957,2347,2074,1
647.0,1957,2335,2077,1
648.0,1955,2326,2070,1
649.0,1951,2333,2075,1
650.0,1959,2354,2084,1
651.0,1962,2341,2078,1
652.0,1959,2323,2073,1
653.0,1959,2339,2073,1
654.0,1960,2356,2080,1
655.0,1961,2351,2079,1
656.0,1963,2395,2082,1
657.0,1964,2373,2081,1
658.0,1964,2343,2071,1
659.0,1965,2348,2073,1
660.0,1964,2342,2070,1
661.0,1960,2350,2076,1
662.0,1957,2345,2071,1
663.0,1957,2345,2068,1
664.0,1961,2348,2076,1
665.0,1963,2358,2071,1
666.0,1967,2369,2076,1
667.0,1972,2397,2082,1
668.0,1966,2375,2073,1
669.0,1961,2375,2077,1
670.0,1961,2367,2076,1
671.0,1963,2363,2070,1
672.0,1960,2355,2072,1
673.0,1961,2355,2066,1
674.0,1957,2338,2066,1
675.0,1957,2357,2069,1
676.0,1965,2368,2070,1
677.0,1959,2365,2070,1
678.0,1963,2358,2069,1
679.0,1964,2350,2068,1
680.0,1965,2352,2072,1
681.0,1966,2352,2074,1
682.0,1962,2349,2071,1
683.0,1963,2342,2065,1
684.0,1960,2343,2068,1
685.0,1959,2327,2061,1
686.0,1955,2309,2061,1
687.0,1958,2338,2066,1
688.0,1958,2336,2066,1
689.0,1957,2326,2066,1
690.0,1966,2348,2070,1
691.0,1964,2407,2082,1
692.0,1966,2411,2090,1
693.0,1959,2374,2077,1
694.0,1962,2386,2072,1
695.0,1970,2415,2086,1
696.0,1972,2397,2075,1
697.0,1963,2355,2067,1
698.0,1959,2335,2069,1
699.0,1957,2316,2060,1
700.0,1959,2314,2061,1
701.0,1962,2313,2064,1
702.0,1968,2319,2066,1
703.0,1962,2340,2069,1
704.0,1960,2343,2068,1
705.0,1965,2345,2070,1
706.0,1957,2353,2072,1
707.0,1963,2346,2069,1
708.0,1957,2322,2066,1
709.0,1954,2330,2061,1
710.0,1956,2347,2067,1
711.0,1964,2374,2071,1
712.0,1965,2374,2077,1
713.0,1963,2339,2069,1
714.0,1954,2318,2070,1
715.0,1957,2303,2063,1
716.0,1998,2390,2075,1
717.0,2532,2168,2059,1
718.0,1969,2339,2081,1
719.0,1962,2247,2058,1
720.0,1942,2252,2062,1
721.0,1954,2314,2074,1
722.0,1961,2409,2093,1
723.0,1964,2402,2091,1
724.0,1957,2370,2081,1
725.0,1993,2321,2327,1
726.0,1963,2300,2065,1
727.0,1974,2385,2085,1
728.0,1951,2398,2082,1
729.0,1957,2372,2081,1
730.0,1952,2355,2075,1
731.0,1954,2380,2081,1
732.0,1958,2380,2084,1
733.0,1957,2388,2081,1
734.0,1952,2380,2083,1
735.0,1959,2377,2082,1
736.0,1955,2369,2079,1
737.0,1943,2343,2198,1
738.0,1929,2337,2128,1
739.0,1927,2335,2111,1
740.0,1931,2336,2114,1
741.0,1883,2351,2284,1
742.0,1918,2354,2151,1
743.0,1947,2353,2071,1
744.0,1947,2352,2072,1
745.0,1946,2349,2083,1
746.0,1952,2364,2082,1
747.0,1960,2406,2085,1
748.0,1964,2387,2084,1
749.0,1946,2308,2060,1
750.0,1946,2301,2058,1
751.0,1959,2335,2073,1
752.0,1959,2393,2078,1
753.0,1964,2423,2088,1
754.0,1956,2369,2078,1
755.0,1952,2365,2080,1
756.0,1955,2357,2076,1
757.0,1955,2353,2082,1
758.0,1956,2338,2075,1
759.0,1951,2343,2071,1
760.0,1952,2368,2078,1
761.0,1952,2376,2078,1
762.0,1959,2358,2078,1
763.0,1961,2344,2074,1
764.0,1956,2306,2063,1
765.0,1946,2301,2062,1
766.0,1957,2343,2065,1
767.0,1954,2345,2074,1
768.0,1947,2338,2070,1
769.0,1955,2317,2063,1
770.0,1947,2314,2062,1
771.0,1947,2311,2064,1
772.0,1952,2330,2069,1
773.0,1948,2306,2066,1
774.0,1952,2332,2071,1
775.0,1951,2336,2066,1
776.0,1956,2338,2066,1
777.0,1953,2345,2064,1
778.0,1959,2326,2061,1
779.0,1955,2297,2060,1
780.0,1952,2295,2057,1
781.0,1946,2311,2058,1
782.0,1950,2353,2070,1
783.0,1958,2380,2078,1
784.0,1953,2383,2084,1
785.0,1953,2391,2081,1
786.0,1958,2409,2081,1
787.0,1963,2427,2085,1
788.0,1959,2435,2086,1
789.0,1956,2415,2085,1
790.0,1958,2399,2079,1
791.0,1966,2389,2071,1
792.0,1963,2400,2076,1
793.0,1958,2390,2076,1
794.0,1955,2388,2076,1
795.0,1957,2387,2080,1
796.0,1954,2360,2074,1
797.0,1956,2362,2072,1
798.0,1953,2359,2073,1
799.0,1956,2363,2076,1
800.0,1951,2358,2080,1
801.0,1959,2360,2074,1
802.0,1955,2360,2077,1
803.0,1977,2355,2054,1
804.0,2317,2395,1889,1
805.0,1965,2311,2052,1
806.0,1952,2287,2060,1
807.0,1954,2291,2061,1
808.0,1975,2312,2001,1
809.0,1990,2376,2017,1
810.0,1993,2401,1989,1
811.0,1953,2328,2061,1
812.0,1946,2291,2058,1
813.0,1952,2302,2059,1
814.0,1954,2332,2067,1
815.0,1958,2353,2078,1
816.0,1955,2367,2077,1
817.0,1957,2348,2055,1
818.0,1956,2307,2052,1
819.0,1949,2301,2052,1
820.0,1954,2327,2061,1
821.0,1959,2362,2059,1
822.0,1969,2391,2031,1
823.0,1962,2399,2070,1
824.0,1874,2374,2173,1
825.0,1584,2283,2063,1
826.0,1824,2371,2046,1
827.0,1965,2418,2082,1
828.0,1965,2445,2083,1
829.0,1958,2418,2084,1
830.0,1962,2411,2085,1
831.0,1961,2411,2088,1
832.0,1958,2399,2084,1
833.0,1952,2345,2080,1
834.0,1952,2326,2070,1
835.0,1950,2323,2068,1
836.0,1955,2329,2066,1
837.0,1954,2319,2073,1
838.0,1955,2321,2071,1
839.0,1956,2304,2066,1
840.0,1956,2312,2065,1
841.0,1955,2328,2068,1
842.0,1955,2341,2073,1
843.0,1959,2350,2069,1
844.0,1959,2368,2076,1
845.0,1956,2378,2079,1
846.0,1956,2358,2071,1
847.0,1953,2339,2069,1
848.0,1953,2327,2067,1
849.0,1951,2326,2067,1
850.0,1948,2348,2078,1
851.0,1950,2347,2076,1
852.0,1948,2338,2071,1
853.0,1957,2341,2074,1
854.0,1945,2354,2035,1
855.0,1953,2355,2071,1
856.0,1959,2374,2080,1
857.0,1954,2371,2079,1
858.0,1950,2341,2083,1
859.0,1955,2349,2069,1
860.0,1959,2358,2072,1
861.0,1951,2340,2065,1
862.0,1959,2339,2069,1
863.0,1950,2336,2067,1
864.0,1953,2335,2067,1
865.0,1960,2363,2063,1
866.0,1955,2347,2063,1
867.0,2163,2300,2166,1
868.0,2417,2183,2171,1
869.0,2043,2651,2151,1
870.0,2037,2391,2097,1
871.0,1973,2402,2035,1
872.0,1921,2177,2017,1
873.0,1912,2134,2011,1
874.0,1505,2455,1738,1
875.0,1935,2394,1947,1
876.0,2015,2449,1927,1
877.0,2025,2397,2051,1
878.0,2025,2314,2099,1
879.0,1977,2294,2043,1
880.0,1938,2347,2003,1
881.0,1929,2378,2004,1
882.0,1932,2369,2037,1
883.0,1934,2293,2035,1
884.0,1948,2385,2055,1
885.0,2003,2367,2060,1
886.0,1995,2317,2062,1
887.0,2047,2334,2109,1
888.0,1941,2366,2162,1
889.0,1746,2381,2169,1
890.0,1747,2464,2074,1
891.0,1828,2400,2012,1
892.0,1870,2341,2010,1
893.0,1907,2268,2047,1
894.0,1952,2346,2075,1
895.0,1938,2339,2072,1
896.0,1931,2292,2059,1
897.0,1933,2316,2066,1
898.0,1938,2365,2071,1
899.0,1905,2307,2071,1
900.0,1919,2424,2102,1
901.0,1911,2336,2092,1
902.0,1891,2339,2082,1
903.0,1895,2386,2093,1
904.0,1908,2375,2085,1
905.0,1947,2424,2095,1
906.0,1947,2377,2082,1
907.0,2007,2272,2079,1
908.0,2027,2201,2128,1
909.0,2057,2329,2149,1
910.0,2057,2386,2178,1
911.0,1945,2325,2335,1
912.0,1861,2210,2419,1
913.0,1819,2287,2418,1
914.0,1830,2309,2348,1
915.0,1903,2287,2233,1
916.0,1920,2257,2138,1
917.0,1886,2483,1843,1
918.0,1891,2390,1629,1
919.0,1929,2356,1885,1
920.0,1951,2234,2099,1
921.0,1931,2313,2155,1
922.0,1899,2307,2186,1
923.0,1871,2274,2200,1
924.0,1849,2278,2263,1
925.0,1845,2301,2276,1
926.0,1865,2282,2248,1
927.0,2049,2374,1910,1
928.0,1973,2325,1854,1
929.0,2002,2483,2046,1
930.0,1943,2428,2184,1
931.0,1857,2244,2165,1
932.0,1925,2102,2107,1
933.0,1957,2216,2111,1
934.0,1989,2335,2041,1
935.0,1980,2326,1984,1
936.0,1956,2435,1956,1
937.0,1907,2411,1950,1
938.0,1878,2568,2059,1
939.0,1944,2396,2137,1
940.0,1933,2315,2177,1
941.0,1927,2403,2211,1
942.0,1926,2456,2190,1
943.0,1936,2447,2135,1
944.0,1926,2465,2066,1
945.0,1937,2529,2012,1
946.0,1906,2562,1984,1
947.0,1883,2472,1964,1
948.0,1886,2385,1962,1
949.0,1907,2294,1986,1
950.0,1924,2175,1997,1
951.0,1944,2131,1994,1
952.0,1945,2223,2002,1
953.0,1921,2367,2011,1
954.0,1898,2426,2037,1
955.0,1880,2483,2077,1
956.0,1879,2392,2094,1
957.0,1891,2398,2092,1
958.0,1885,2466,2092,1
959.0,1873,2452,2097,1
960.0,1875,2380,2104,1
961.0,1903,2274,2075,1
962.0,1918,2292,2022,1
963.0,1924,2389,1953,1
964.0,1894,2415,1922,1
965.0,1917,2371,1867,1
966.0,2003,2340,1867,1
967.0,2050,2326,1863,1
968.0,2080,2368,1860,1
969.0,2014,2391,1870,1
970.0,1909,2391,1870,1
971.0,1835,2387,1858,1
972.0,1797,2329,1826,1
973.0,1750,2193,1828,1
974.0,1762,2282,1813,1
975.0,1803,2312,1830,1
976.0,1840,2386,1830,1
977.0,1862,2311,1837,1
978.0,1868,2279,1849,1
979.0,1873,2231,1864,1
980.0,1893,2160,1820,1
981.0,1911,2255,1789,1
982.0,1913,2441,1867,1
983.0,1919,2645,2024,1
984.0,1973,2799,2216,1
985.0,1953,2208,2140,1
986.0,2005,2175,2004,1
987.0,1893,2207,1963,1
988.0,1873,2411,995,1
989.0,1934,1817,1987,1
990.0,2253,2093,1087,1
991.0,2031,1991,1728,1
992.0,1973,1846,1969,1
993.0,2222,2775,1416,1
994.0,2146,2131,1705,1
995.0,2183,2028,1590,1
996.0,2093,2118,1614,1
997.0,2043,2117,1598,1
998.0,2049,2063,1616,1
999.0,2027,2021,1600,1
1000.0,2023,2046,1610,1
1001.0,2022,2038,1586,1
1002.0,2018,1995,1612,1
1003.0,2030,2044,1634,1
1004.0,2005,2031,1658,1
1005.0,1990,1903,1631,1
1006.0,1964,1965,1622,1
1007.0,1955,1999,1543,1
1008.0,1950,1982,1640,1
1009.0,1944,1939,1154,1
1010.0,1975,1995,1622,1
1011.0,1969,2056,1608,1
1012.0,1961,2130,1653,1
1013.0,1937,2111,1676,1
1014.0,1971,2120,1562,1
1015.0,1943,2050,1687,1
1016.0,1951,2077,1654,1
1017.0,1933,2104,1619,1
1018.0,1940,2085,1639,1
1019.0,1934,2037,1618,1
1020.0,1976,2050,1601,1
1021.0,1974,2050,1600,1
1022.0,1973,2050,1598,1
1023.0,1971,2051,1599,1
1024.0,1975,2052,1597,1
1025.0,1977,2057,1612,1
1026.0,1975,2037,1646,1
1027.0,1961,2025,1619,1
1028.0,1967,2005,1630,1
1029.0,1953,2013,1627,1
1030.0,1959,2016,1640,1
1031.0,1980,2035,1599,1
1032.0,1974,2036,1619,1
1033.0,1972,2031,1626,1
1034.0,1965,2028,1618,1
1035.0,1959,2025,1635,1
1036.0,1969,2021,1606,1
1037.0,1965,2015,1638,1
1038.0,1979,2026,1609,1
1039.0,1963,2041,1616,1
1040.0,1967,2037,1644,1
1041.0,1975,2016,1619,1
1042.0,1963,2029,1634,1
1043.0,1968,2007,1595,1
1044.0,1965,1996,1619,1
1045.0,1971,1994,1611,1
1046.0,1960,2010,1621,1
1047.0,1962,2019,1618,1
1048.0,1971,2020,1620,1
1049.0,1966,2023,1624,1
1050.0,1969,2024,1620,1
1051.0,1968,2032,1619,1
1052.0,1968,2024,1624,1
1053.0,1965,2027,1621,1
1054.0,1965,2028,1621,1
1055.0,1967,2025,1620,1
1056.0,1961,2025,1622,1
1057.0,1966,2023,1623,1
1058.0,1970,2020,1619,1
1059.0,1971,2024,1624,1
1060.0,1971,2028,1615,1
1061.0,1969,2027,1618,1
1062.0,1966,2023,1622,1
1063.0,1971,2033,1619,1
1064.0,1971,2020,1619,1
1065.0,1967,2020,1622,1
1066.0,1969,2022,1620,1
1067.0,1965,2025,1623,1
1068.0,1967,2025,1624,1
1069.0,1967,2024,1612,1
1070.0,1970,2028,1621,1
1071.0,1968,2029,1620,1
1072.0,1967,2026,1617,1
1073.0,1966,2021,1622,1
1074.0,1969,2026,1624,1
1075.0,1968,2028,1621,1
1076.0,1968,2023,1622,1
1077.0,1970,2025,1620,1
1078.0,1962,2022,1620,1
1079.0,1961,2029,1620,1
1080.0,1970,2022,1627,1
1081.0,1956,2035,1592,1
1082.0,1967,2021,1613,1
1083.0,1961,2028,1620,1
1084.0,1967,2026,1639,1
1085.0,1978,2023,1605,1
1086.0,1973,2019,1627,1
1087.0,1973,2032,1620,1
1088.0,1962,2041,1626,1
1089.0,1976,2018,1632,1
1090.0,1967,2037,1621,1
1091.0,1970,2031,1624,1
1092.0,1959,2031,1620,1
1093.0,1981,2001,1623,1
1094.0,1953,2036,1625,1
1095.0,1965,2044,1621,1
1096.0,1962,2021,1618,1
1097.0,1963,2022,1621,1
1098.0,1966,2024,1635,1
1099.0,1971,2021,1604,1
1100.0,1972,2023,1635,1
1101.0,1972,2022,1622,1
1102.0,1971,2034,1630,1
1103.0,1991,2031,1598,1
1104.0,1982,2031,1610,1
1105.0,1956,2035,1614,1
1106.0,1975,2022,1621,1
1107.0,1949,2022,1630,1
1108.0,1958,2027,1613,1
1109.0,1986,2024,1639,1
1110.0,1965,2031,1627,1
1111.0,1977,2015,1618,1
1112.0,1976,2019,1613,1
1113.0,1890,2045,1602,1
1114.0,1971,2024,1619,1
1115.0,1951,2028,1615,1
1116.0,1966,2011,1617,1
1117.0,1969,2026,1616,1
1118.0,1961,2024,1618,1
1119.0,1978,2028,1619,1
1120.0,1965,2020,1627,1
1121.0,1986,2043,1608,1
1122.0,1969,2039,1630,1
1123.0,1981,2043,1616,1
1124.0,1989,2029,1612,1
1125.0,1957,2033,1620,1
1126.0,1959,2035,1609,1
1127.0,1973,2030,1629,1
1128.0,1980,2040,1628,1
1129.0,1977,2058,1636,1
1130.0,1981,2055,1615,1
1131.0,1963,2045,1620,1
1132.0,1952,2041,1639,1
1133.0,1964,2040,1626,1
1134.0,1957,2018,1599,1
1135.0,1965,2003,1603,1
1136.0,1965,2011,1599,1
1137.0,1945,2024,1639,1
1138.0,1952,2038,1631,1
1139.0,1914,2025,1607,1
1140.0,1772,1727,1576,1
1141.0,1889,1894,1455,1
1142.0,2060,2086,1575,1
1143.0,2183,2185,1590,1
1144.0,1983,2229,1768,1
1145.0,1882,2091,1510,1
1146.0,1920,1998,1611,1
1147.0,1968,2015,1572,1
1148.0,1967,2017,1604,1
1149.0,2022,1914,1466,1
1150.0,2063,2178,1664,1
1151.0,2091,2279,1740,1
1152.0,2036,2213,1716,1
1153.0,1920,2101,1658,1
1154.0,1949,2089,1714,1
1155.0,1895,2063,1715,1
1156.0,1882,2159,1685,1
1157.0,1895,2189,1727,1
1158.0,1978,2223,1758,1
1159.0,2004,2157,1742,1
1160.0,1981,2064,1799,1
1161.0,2006,2087,1757,1
1162.0,2001,2196,1470,1
1163.0,1979,2341,1561,1
1164.0,1861,2603,1541,1
1165.0,2019,1981,2033,1
1166.0,1929,2259,1596,1
1167.0,1980,1844,1477,1
1168.0,1925,2031,1582,1
1169.0,1942,2075,1789,1
1170.0,1969,2143,1506,1
1171.0,1961,2073,1673,1
1172.0,1959,2068,1620,1
1173.0,1973,2064,1609,1
1174.0,1932,1998,1665,1
1175.0,1945,1985,1679,1
1176.0,1962,1986,1558,1
1177.0,1967,2001,1589,1
1178.0,1952,2013,1631,1
1179.0,1945,2004,1659,1
1180.0,1955,1990,1586,1
1181.0,1935,1929,1520,1
1182.0,1893,1747,1649,1
1183.0,1920,1845,1472,1
1184.0,1938,1968,1639,1
1185.0,1953,2036,1614,1
1186.0,1963,2064,1624,1
1187.0,1985,2055,1623,1
1188.0,1940,2003,1610,1
1189.0,1925,1979,1633,1
1190.0,1968,2043,1633,1
1191.0,1964,2042,1635,1
1192.0,1975,2039,1642,1
1193.0,1969,2056,1647,1
1194.0,1975,2069,1629,1
1195.0,1974,2088,1599,1
1196.0,1976,2115,1606,1
1197.0,1977,2087,1740,1
1198.0,1975,2140,1666,1
1199.0,1937,2184,1631,1
1200.0,1949,2178,1680,1
1201.0,1943,2168,1721,1
1202.0,1979,2263,1678,1
1203.0,1988,2309,1730,1
1204.0,1997,2351,1763,1
1205.0,1980,2318,1896,1
1206.0,1990,2407,2021,1
1207.0,2015,2625,2100,1
1208.0,1971,2355,2054,1
1209.0,1968,2295,2042,1
1210.0,1978,2319,2046,1
1211.0,1951,2136,2015,1
1212.0,1964,2227,2025,1
1213.0,1982,2347,2028,1
1214.0,2012,2554,2075,1
1215.0,2007,2603,2058,1
1216.0,2128,2456,761,1
1217.0,1814,2204,1280,1
1218.0,1959,2389,1949,1
1219.0,1947,2283,2029,1
1220.0,1949,2208,2030,1
1221.0,1976,2338,2064,1
1222.0,1987,2492,2087,1
1223.0,1994,2403,2072,1
1224.0,1979,2334,2056,1
1225.0,1989,2415,2074,1
1226.0,1972,2377,2072,1
1227.0,1977,2364,2064,1
1228.0,1987,2369,2056,1
1229.0,1981,2366,2051,1
1230.0,1982,2307,2046,1
1231.0,1962,2231,2038,1
1232.0,1972,2297,2043,1
1233.0,1978,2350,2051,1
1234.0,1980,2394,2045,1
1235.0,1983,2407,2053,1
1236.0,1970,2355,2024,1
1237.0,1963,2311,2006,1
1238.0,1921,2301,1929,1
1239.0,1897,2350,1868,1
1240.0,1933,2280,1947,1
1241.0,1964,2290,2035,1
1242.0,1983,2415,2067,1
1243.0,1987,2435,2073,1
1244.0,2001,2517,2089,1
1245.0,1980,2375,2069,1
1246.0,1972,2328,2051,1
1247.0,1984,2414,2067,1
1248.0,1963,2253,2047,1
1249.0,1984,2387,2063,1
1250.0,1994,2506,2086,1
1251.0,2009,2556,2089,1
1252.0,1993,2442,2072,1
1253.0,1978,2318,2048,1
1254.0,1989,2369,2057,1
1255.0,1967,2253,2039,1
1256.0,1970,2201,2015,1
1257.0,1978,2243,2019,1
1258.0,1991,2315,2013,1
1259.0,1983,2313,2009,1
1260.0,1976,2341,1996,1
1261.0,1966,2342,1989,1
1262.0,1961,2318,1983,1
1263.0,1975,2319,1993,1
1264.0,1978,2364,2025,1
1265.0,1982,2359,2035,1
1266.0,1990,2398,2049,1
1267.0,1995,2405,2052,1
1268.0,1984,2327,2035,1
1269.0,1989,2343,2039,1
1270.0,1987,2359,2034,1
1271.0,1985,2342,2032,1
1272.0,1979,2353,2027,1
1273.0,1968,2419,2025,1
1274.0,1960,2318,2010,1
1275.0,1962,2295,1999,1
1276.0,1977,2371,2013,1
1277.0,1975,2347,2008,1
1278.0,1996,2477,2006,1
1279.0,1988,2435,1983,1
1280.0,1944,2240,1950,1
1281.0,1937,2204,1970,1
1282.0,1969,2286,1981,1
1283.0,1986,2397,2007,1
1284.0,1988,2389,2007,1
1285.0,1991,2507,2015,1
1286.0,1968,2368,1984,1
1287.0,1952,2272,1989,1
1288.0,1981,2393,2002,1
1289.0,1994,2423,1985,1
1290.0,1990,2360,1971,1
1291.0,1967,2319,1965,1
1292.0,1943,2275,1961,1
1293.0,1940,2281,1958,1
1294.0,1953,2287,1954,1
1295.0,1947,2272,1965,1
1296.0,1952,2329,1972,1
1297.0,1956,2363,1995,1
1298.0,1944,2306,1981,1
1299.0,1953,2406,1970,1
1300.0,1953,2379,1960,1
1301.0,1945,2337,1946,1
1302.0,1947,2346,1954,1
1303.0,1945,2270,1972,1
1304.0,1947,2235,1990,1
1305.0,1973,2454,1999,1
1306.0,1975,2611,1996,1
1307.0,1952,2286,1931,1
1308.0,1951,2279,1972,1
1309.0,1961,2347,1997,1
1310.0,1958,2361,1995,1
1311.0,1949,2391,1991,1
1312.0,1952,2369,1991,1
1313.0,1945,2361,1979,1
1314.0,1952,2369,1973,1
1315.0,1955,2309,1960,1
1316.0,1978,2403,1981,1
1317.0,1958,2376,1962,1
1318.0,1953,2335,1958,1
1319.0,1954,2315,1969,1
1320.0,1954,2358,1984,1
1321.0,1962,2361,1984,1
1322.0,1954,2313,1984,1
1323.0,1957,2335,1996,1
1324.0,1961,2342,2005,1
1325.0,1955,2353,2005,1
1326.0,1956,2373,1997,1
1327.0,1956,2379,1994,1
1328.0,1961,2393,1962,1
1329.0,1952,2383,1943,1
1330.0,1937,2350,1948,1
1331.0,1943,2336,1966,1
1332.0,1959,2358,1968,1
1333.0,1961,2339,1979,1
1334.0,1962,2327,2000,1
1335.0,1965,2373,2011,1
1336.0,1955,2394,1999,1
1337.0,1952,2355,1987,1
1338.0,1942,2357,1980,1
1339.0,1934,2347,1978,1
1340.0,1950,2381,1977,1
1341.0,1952,2380,1968,1
1342.0,1956,2382,1965,1
1343.0,1950,2350,1961,1
1344.0,1972,2382,1970,1
1345.0,1962,2305,1955,1
1346.0,1951,2243,1964,1
1347.0,1963,2389,1996,1
1348.0,1939,2330,1987,1
1349.0,1949,2351,1994,1
1350.0,1936,2171,1977,1
1351.0,1961,2385,1999,1
1352.0,1957,2576,2005,1
1353.0,1929,2355,1958,1
1354.0,1975,2259,1934,1
1355.0,1991,2403,1991,1
1356.0,1996,2403,1982,1
1357.0,1970,2315,1947,1
1358.0,1968,2395,1958,1
1359.0,1957,2364,1961,1
1360.0,1957,2360,2006,1
1361.0,1958,2360,2006,1
1362.0,1955,2361,2002,1
1363.0,1941,2343,1991,1
1364.0,1955,2348,1988,1
1365.0,1960,2353,1981,1
1366.0,1964,2390,1982,1
1367.0,1946,2371,1966,1
1368.0,1943,2324,1948,1
1369.0,1968,2324,1959,1
1370.0,1992,2371,1966,1
1371.0,1973,2323,1951,1
1372.0,1961,2362,1976,1
1373.0,1951,2370,1972,1
1374.0,1945,2342,1967,1
1375.0,1932,2339,1980,1
1376.0,1942,2339,1982,1
1377.0,1956,2370,1997,1
1378.0,1956,2309,1984,1
1379.0,1958,2319,1987,1
1380.0,1964,2382,1989,1
1381.0,1963,2310,1978,1
1382.0,1955,2249,1986,1
1383.0,1953,2329,1986,1
1384.0,1925,2303,1985,1
1385.0,1924,2253,1984,1
1386.0,1945,2251,2005,1
1387.0,1963,2296,2039,1
1388.0,2014,2547,2071,1
1389.0,2019,2691,2092,1
1390.0,1999,2446,2052,1
1391.0,1969,2347,2045,1
1392.0,1965,2340,2039,1
1393.0,1956,2339,2031,1
1394.0,1962,2351,2027,1
1395.0,1979,2450,2038,1
1396.0,1944,2335,2013,1
1397.0,1954,2369,2019,1
1398.0,1955,2354,2022,1
1399.0,1966,2359,2022,1
1400.0,1982,2408,2033,1
1401.0,1969,2324,2023,1
1402.0,1985,2382,2044,1
1403.0,1984,2317,2034,1
1404.0,1982,2343,2043,1
1405.0,1987,2349,2043,1
1406.0,1986,2365,2052,1
1407.0,1984,2336,2047,1
1408.0,1972,2330,2044,1
1409.0,1975,2297,2045,1
1410.0,1970,2326,2046,1
1411.0,1978,2366,2054,1
1412.0,1982,2414,2057,1
1413.0,1964,2340,2039,1
1414.0,1966,2353,2040,1
1415.0,1957,2318,2029,1
1416.0,1951,2375,2036,1
1417.0,1957,2344,2026,1
1418.0,1953,2346,2025,1
1419.0,1947,2280,2014,1
1420.0,1962,2407,2034,1
1421.0,1970,2410,2035,1
1422.0,1961,2333,2028,1
1423.0,1967,2340,2028,1
1424.0,1972,2366,2038,1
1425.0,1973,2344,2042,1
1426.0,1965,2355,2038,1
1427.0,1964,2348,2046,1
1428.0,1966,2350,2040,1
1429.0,1963,2361,2045,1
1430.0,1969,2354,2045,1
1431.0,1960,2354,2047,1
1432.0,1965,2345,2043,1
1433.0,1960,2291,2036,1
1434.0,1971,2416,2060,1
1435.0,1968,2375,2053,1
1436.0,1965,2343,2038,1
1437.0,1965,2361,2037,1
1438.0,1967,2373,2034,1
1439.0,1962,2325,2019,1
1440.0,1958,2303,2023,1
1441.0,1967,2371,2030,1
1442.0,1963,2347,2022,1
1443.0,1961,2363,2029,1
1444.0,1961,2374,2032,1
1445.0,1969,2371,2027,1
1446.0,1969,2362,2037,1
1447.0,1963,2334,2029,1
1448.0,1964,2317,2020,1
1449.0,1966,2322,2032,1
1450.0,1965,2293,2033,1
1451.0,1973,2385,2043,1
1452.0,1974,2416,2059,1
1453.0,1971,2351,2039,1
1454.0,1966,2349,2039,1
1455.0,1967,2352,2039,1
1456.0,1962,2348,2033,1
1457.0,1962,2346,2034,1
1458.0,1960,2354,2033,1
1459.0,1967,2345,2027,1
1460.0,1962,2345,2031,1
1461.0,1965,2365,2034,1
1462.0,1961,2348,2035,1
1463.0,1962,2310,2031,1
1464.0,1962,2325,2039,1
1465.0,1966,2348,2046,1
1466.0,1973,2373,2053,1
1467.0,1967,2390,2053,1
1468.0,1970,2409,2055,1
1469.0,1976,2454,2055,1
1470.0,1949,2340,2028,1
1471.0,1947,2259,2014,1
1472.0,1956,2335,2030,1
1473.0,1956,2377,2031,1
1474.0,1960,2407,2037,1
1475.0,1957,2399,2035,1
1476.0,1964,2411,2027,1
1477.0,1952,2329,2020,1
1478.0,1945,2279,2013,1
1479.0,1956,2293,2018,1
1480.0,1970,2373,2034,1
1481.0,1963,2343,2030,1
1482.0,1962,2317,2031,1
1483.0,1962,2330,2033,1
1484.0,1960,2314,2034,1
1485.0,1970,2381,2039,1
1486.0,1965,2394,2043,1
1487.0,1953,2337,2025,1
1488.0,1957,2401,2032,1
1489.0,1962,2466,2036,1
1490.0,1927,2196,1990,1
1491.0,1941,2267,2005,1
1492.0,1945,2358,2011,1
1493.0,1949,2246,1997,1
1494.0,1950,2281,2012,1
1495.0,1956,2281,2019,1
1496.0,1981,2428,2047,1
1497.0,1995,2528,2061,1
1498.0,1970,2389,2043,1
1499.0,1972,2381,2044,1
1500.0,1964,2328,2028,1
1501.0,1961,2309,2024,1
1502.0,1967,2344,2030,1
1503.0,1964,2326,2023,1
1504.0,1969,2335,2019,1
1505.0,1972,2344,2020,1
1506.0,1962,2340,2018,1
1507.0,1965,2373,2030,1
1508.0,1957,2349,2031,1
1509.0,1961,2359,2033,1
1510.0,1960,2370,2033,1
1511.0,1950,2353,2032,1
1512.0,1954,2338,2029,1
1513.0,1962,2348,2032,1
1514.0,1957,2324,2031,1
1515.0,1963,2331,2031,1
1516.0,1963,2375,2035,1
1517.0,1963,2351,2039,1
1518.0,1965,2367,2040,1
1519.0,1966,2362,2035,1
1520.0,1962,2339,2029,1
1521.0,1966,2352,2029,1
1522.0,1967,2351,2024,1
1523.0,1967,2361,2025,1
1524.0,1969,2368,2023,1
1525.0,1969,2402,2036,1
1526.0,1963,2378,2023,1
1527.0,1943,2268,2006,1
1528.0,1947,2279,2013,1
1529.0,1969,2369,2033,1
1530.0,1942,2290,2007,1
1531.0,1941,2292,2011,1
1532.0,1948,2289,2025,1
1533.0,1958,2345,2030,1
1534.0,1968,2374,2037,1
1535.0,1965,2369,2038,1
1536.0,1968,2372,2036,1
1537.0,1952,2331,2029,1
1538.0,1963,2386,2028,1
1539.0,1957,2350,2020,1
1540.0,1955,2342,2021,1
1541.0,1961,2346,2011,1
1542.0,1964,2379,2023,1
1543.0,1953,2348,2015,1
1544.0,1965,2342,2012,1
1545.0,1965,2352,2019,1
1546.0,1960,2348,2020,1
1547.0,1959,2342,2023,1
1548.0,1965,2339,2026,1
1549.0,1965,2333,2028,1
1550.0,1966,2363,2036,1
1551.0,1965,2359,2034,1
1552.0,1956,2351,2034,1
1553.0,1953,2365,2031,1
1554.0,1958,2338,2027,1
1555.0,1961,2342,2025,1
1556.0,1963,2357,2028,1
1557.0,1967,2360,2022,1
1558.0,1961,2362,2026,1
1559.0,1961,2358,2023,1
1560.0,1962,2359,2022,1
1561.0,1962,2358,2017,1
1562.0,1966,2327,2014,1
1563.0,1965,2359,2018,1
1564.0,1965,2347,2022,1
1565.0,1963,2350,2034,1
1566.0,1962,2338,2025,1
1567.0,1963,2342,2033,1
1568.0,1965,2358,2034,1
1569.0,1969,2346,2034,1
1570.0,1962,2359,2034,1
1571.0,1959,2345,2027,1
1572.0,1964,2340,2037,1
1573.0,1966,2359,2029,1
1574.0,1975,2383,2031,1
1575.0,1959,2344,2027,1
1576.0,1955,2343,2027,1
1577.0,1959,2357,2033,1
1578.0,1968,2375,2035,1
1579.0,1957,2341,2027,1
1580.0,1967,2353,2029,1
1581.0,1966,2357,2027,1
1582.0,1959,2355,2028,1
1583.0,1966,2354,2033,1
1584.0,1964,2358,2028,1
1585.0,1969,2376,2034,1
1586.0,1965,2330,2024,1
1587.0,1969,2359,2029,1
1588.0,1968,2363,2037,1
1589.0,1971,2347,2030,1
1590.0,1973,2350,2026,1
1591.0,1964,2342,2025,1
1592.0,1968,2354,2028,1
1593.0,1968,2359,2027,1
1594.0,1961,2341,2028,1
1595.0,1960,2346,2025,1
1596.0,1967,2353,2027,1
1597.0,1967,2358,2023,1
1598.0,1968,2358,2027,1
1599.0,1975,2358,2025,1
1600.0,1968,2347,2023,1
1601.0,1970,2347,2022,1
1602.0,1973,2348,2027,1
1603.0,1968,2347,2023,1
1604.0,1962,2353,2021,1
1605.0,1963,2348,2022,1
1606.0,1968,2334,2022,1
1607.0,1965,2333,2023,1
1608.0,1966,2369,2033,1
1609.0,1973,2373,2037,1
1610.0,1966,2346,2030,1
1611.0,1968,2337,2029,1
1612.0,1963,2348,2033,1
1613.0,1973,2371,2036,1
1614.0,1972,2376,2030,1
1615.0,1961,2335,2030,1
1616.0,1972,2360,2026,1
1617.0,1965,2351,2026,1
1618.0,1969,2349,2026,1
1619.0,1971,2350,2032,1
1620.0,1963,2363,2029,1
1621.0,1963,2363,2030,1
1622.0,1964,2351,2032,1
1623.0,1965,2357,2028,1
1624.0,1961,2328,2024,1
1625.0,1964,2299,2022,1
1626.0,1974,2394,2042,1
1627.0,1973,2370,2039,1
1628.0,1966,2355,2034,1
1629.0,1967,2335,2031,1
1630.0,1976,2356,2031,1
1631.0,1968,2355,2033,1
1632.0,1963,2363,2028,1
1633.0,1964,2344,2025,1
1634.0,1970,2352,2024,1
1635.0,1975,2352,2027,1
1636.0,1969,2344,2029,1
1637.0,1968,2365,2024,1
1638.0,1956,2351,2020,1
1639.0,1963,2346,2023,1
1640.0,1965,2356,2026,1
1641.0,1961,2359,2024,1
1642.0,1965,2352,2026,1
1643.0,1963,2353,2029,1
1644.0,1965,2356,2026,1
1645.0,1970,2345,2032,1
1646.0,1966,2357,2030,1
1647.0,1968,2347,2035,1
1648.0,1969,2345,2026,1
1649.0,1974,2352,2030,1
1650.0,1966,2356,2029,1
1651.0,1965,2358,2026,1
1652.0,1965,2343,2024,1
1653.0,1967,2339,2023,1
1654.0,1966,2359,2026,1
1655.0,1962,2364,2019,1
1656.0,1960,2341,2022,1
1657.0,1963,2361,2025,1
1658.0,1965,2369,2026,1
1659.0,1959,2347,2021,1
1660.0,1959,2340,2026,1
1661.0,1956,2357,2024,1
1662.0,1960,2352,2027,1
1663.0,1960,2339,2019,1
1664.0,1965,2339,2021,1
1665.0,1966,2358,2029,1
1666.0,1966,2351,2025,1
1667.0,1965,2367,2027,1
1668.0,1962,2332,2023,1
1669.0,1973,2356,2031,1
1670.0,1965,2346,2029,1
1671.0,1971,2363,2032,1
1672.0,1969,2369,2028,1
1673.0,1963,2356,2023,1
1674.0,1962,2349,2024,1
1675.0,1958,2350,2024,1
1676.0,1967,2350,2020,1
1677.0,1962,2355,2024,1
1678.0,1961,2340,2019,1
1679.0,1964,2346,2020,1
1680.0,1967,2374,2030,1
1681.0,1964,2344,2023,1
1682.0,1968,2352,2024,1
1683.0,1963,2349,2025,1
1684.0,1967,2346,2027,1
1685.0,1969,2356,2026,1
1686.0,1966,2355,2028,1
1687.0,1966,2333,2023,1
1688.0,1963,2338,2028,1
1689.0,1964,2347,2030,1
1690.0,1971,2356,2025,1
1691.0,1960,2358,2028,1
1692.0,1965,2347,2027,1
1693.0,1967,2334,2025,1
1694.0,1963,2356,2029,1
1695.0,1968,2356,2027,1
1696.0,1964,2359,2031,1
1697.0,1959,2347,2029,1
1698.0,1956,2347,2029,1
1699.0,1965,2378,2025,1
1700.0,1961,2353,2022,1
1701.0,1962,2352,2023,1
1702.0,1965,2356,2031,1
1703.0,1959,2350,2027,1
1704.0,1961,2343,2028,1
1705.0,1965,2346,2029,1
1706.0,1967,2348,2036,1
1707.0,1973,2363,2038,1
1708.0,1972,2353,2031,1
1709.0,1967,2341,2034,1
1710.0,1968,2344,2038,1
1711.0,1966,2355,2033,1
1712.0,1957,2367,2036,1
1713.0,1971,2503,2058,1
1714.0,1948,2268,2014,1
1715.0,1965,2368,2035,1
1716.0,1963,2371,2031,1
1717.0,1968,2352,2037,1
1718.0,1960,2330,2027,1
1719.0,1970,2356,2037,1
1720.0,1963,2349,2034,1
1721.0,1964,2340,2034,1
1722.0,1965,2337,2036,1
1723.0,1960,2355,2036,1
1724.0,1967,2345,2033,1
1725.0,1964,2349,2034,1
1726.0,1963,2359,2031,1
1727.0,1960,2336,2033,1
1728.0,1960,2339,2026,1
1729.0,1966,2354,2039,1
1730.0,1960,2382,2040,1
1731.0,1959,2371,2035,1
1732.0,1968,2400,2040,1
1733.0,1954,2302,2026,1
1734.0,1968,2360,2031,1
1735.0,1962,2358,2034,1
1736.0,1966,2361,2032,1
1737.0,1960,2347,2033,1
1738.0,1960,2338,2036,1
1739.0,1963,2347,2032,1
1740.0,1964,2358,2036,1
1741.0,1962,2351,2039,1
1742.0,1954,2351,2035,1
1743.0,1956,2333,2037,1
1744.0,1960,2365,2039,1
1745.0,1961,2369,2038,1
1746.0,1957,2354,2038,1
1747.0,1961,2350,2035,1
1748.0,1965,2365,2040,1
1749.0,1958,2336,2032,1
1750.0,1965,2327,2032,1
1751.0,1923,2184,2003,1
1752.0,1972,2376,2041,1
1753.0,1957,2343,2037,1
1754.0,1948,2339,2031,1
1755.0,1960,2347,2032,1
1756.0,1966,2355,2036,1
1757.0,1964,2356,2040,1
1758.0,1965,2356,2040,1
1759.0,1966,2359,2037,1
1760.0,1959,2345,2034,1
1761.0,1959,2349,2033,1
1762.0,1958,2350,2034,1
1763.0,1954,2367,2043,1
1764.0,1959,2366,2031,1
1765.0,1957,2351,2029,1
1766.0,1957,2345,2037,1
1767.0,1961,2336,2027,1
1768.0,1960,2341,2032,1
1769.0,1964,2344,2036,1
1770.0,1965,2331,2033,1
1771.0,1968,2338,2039,1
1772.0,1964,2292,2029,1
1773.0,1987,2486,2065,1
1774.0,1954,2320,2027,1
1775.0,1959,2359,2042,1
1776.0,1959,2339,2035,1
1777.0,1960,2369,2038,1
1778.0,1962,2361,2034,1
1779.0,1962,2354,2032,1
1780.0,1957,2350,2034,1
1781.0,1966,2352,2027,1
1782.0,1962,2362,2033,1
1783.0,1967,2383,2032,1
1784.0,1963,2371,2034,1
1785.0,1955,2361,2033,1
1786.0,1957,2369,2027,1
1787.0,1959,2323,2019,1
1788.0,1964,2340,2020,1
1789.0,1960,2330,2030,1
1790.0,1957,2353,2031,1
1791.0,1964,2383,2034,1
1792.0,1958,2357,2034,1
1793.0,1960,2390,2035,1
1794.0,1961,2347,2026,1
1795.0,1954,2369,2027,1
1796.0,1950,2368,2019,1
1797.0,1950,2363,2016,1
1798.0,1939,2306,2013,1
1799.0,1945,2285,2011,1
1800.0,1956,2333,2022,1
1801.0,1959,2297,2022,1
1802.0,1959,2373,2041,1
1803.0,1976,2383,2039,1
1804.0,1964,2418,2042,1
1805.0,1948,2344,2025,1
1806.0,1940,2331,2020,1
1807.0,1951,2361,2028,1
1808.0,1955,2360,2024,1
1809.0,1956,2367,2023,1
1810.0,1952,2351,2017,1
1811.0,1956,2349,2024,1
1812.0,1958,2320,2014,1
1813.0,1965,2359,2027,1
1814.0,1959,2370,2031,1
1815.0,1964,2397,2037,1
1816.0,1953,2346,2027,1
1817.0,1957,2321,2021,1
1818.0,1959,2355,2028,1
1819.0,1960,2348,2031,1
1820.0,1957,2354,2026,1
1821.0,1955,2352,2029,1
1822.0,1963,2374,2030,1
1823.0,1954,2374,2025,1
1824.0,1954,2367,2019,1
1825.0,1952,2332,2020,1
1826.0,1953,2316,2019,1
1827.0,1956,2329,2023,1
1828.0,1969,2390,2039,1
1829.0,1956,2355,2026,1
1830.0,1954,2356,2030,1
1831.0,1957,2353,2021,1
1832.0,1951,2365,2027,1
1833.0,1955,2365,2030,1
1834.0,1954,2370,2023,1
1835.0,1953,2363,2023,1
1836.0,1955,2379,2019,1
1837.0,1950,2369,2017,1
1838.0,1945,2321,2007,1
1839.0,1949,2318,2011,1
1840.0,1957,2354,2018,1
1841.0,1961,2361,2024,1
1842.0,1957,2361,2024,1
1843.0,1951,2339,2019,1
1844.0,1956,2351,2023,1
1845.0,1949,2340,2023,1
1846.0,1955,2359,2028,1
1847.0,1952,2313,2023,1
1848.0,1955,2317,2023,1
1849.0,1960,2297,2027,1
1850.0,1967,2366,2035,1
1851.0,1981,2457,2049,1
1852.0,1961,2374,2033,1
1853.0,1963,2374,2032,1
1854.0,1952,2375,2027,1
1855.0,1952,2367,2023,1
1856.0,1943,2343,2016,1
1857.0,1954,2348,2019,1
1858.0,1958,2314,2018,1
1859.0,1962,2344,2028,1
1860.0,1982,2401,2034,1
1861.0,1966,2339,2029,1
1862.0,1977,2408,2051,1
1863.0,1966,2337,2035,1
1864.0,1971,2340,2036,1
1865.0,1968,2338,2037,1
1866.0,1965,2355,2044,1
1867.0,1971,2348,2043,1
1868.0,1967,2337,2037,1
1869.0,1974,2391,2039,1
1870.0,1924,2244,1987,1
1871.0,1923,2240,1987,1
1872.0,1927,2195,1983,1
1873.0,1935,2215,1991,1
1874.0,1962,2360,2016,1
1875.0,1962,2393,2015,1
1876.0,1958,2404,2017,1
1877.0,1955,2422,2028,1
1878.0,1942,2345,2015,1
1879.0,1936,2264,2012,1
1880.0,1942,2306,2017,1
1881.0,1960,2351,2028,1
1882.0,1951,2319,2027,1
1883.0,1953,2278,2023,1
1884.0,1953,2291,2031,1
1885.0,1972,2440,2050,1
1886.0,1966,2388,2037,1
1887.0,1951,2383,2030,1
1888.0,1941,2354,2017,1
1889.0,1939,2331,2010,1
1890.0,1949,2369,2010,1
1891.0,1953,2394,2005,1
1892.0,1952,2333,1994,1
1893.0,1968,2372,2004,1
1894.0,1979,2411,2005,1
1895.0,1987,2357,2005,1
1896.0,1993,2357,2005,1
1897.0,1993,2343,2001,1
1898.0,1995,2352,2003,1
1899.0,1995,2355,2006,1
1900.0,1988,2396,2006,1
1901.0,1994,2395,2001,1
1902.0,1983,2368,1999,1
1903.0,1980,2363,1996,1
1904.0,1978,2337,1991,1
1905.0,1972,2332,1986,1
1906.0,1968,2290,1983,1
1907.0,1989,2345,1993,1
1908.0,2006,2424,1998,1
1909.0,2010,2396,1989,1
1910.0,1987,2242,1960,1
1911.0,1967,2217,1974,1
1912.0,1973,2309,2000,1
1913.0,1974,2301,2002,1
1914.0,1979,2310,2003,1
1915.0,1984,2344,2007,1
1916.0,1999,2377,2007,1
1917.0,1999,2358,1985,1
1918.0,1998,2367,1960,1
1919.0,2010,2376,1938,1
1920.0,1999,2369,1932,1
1921.0,1972,2379,1938,1
1922.0,1967,2382,1934,1
1923.0,1951,2351,1945,1
1924.0,1937,2344,1970,1
1925.0,1939,2363,1979,1
1926.0,1932,2356,1985,1
1927.0,1936,2355,1988,1
1928.0,1943,2356,1996,1
1929.0,1943,2353,2007,1
1930.0,1944,2337,2015,1
1931.0,1947,2345,2013,1
1932.0,1963,2376,2022,1
1933.0,1969,2359,2015,1
1934.0,1970,2347,2010,1
1935.0,1979,2362,2006,1
1936.0,1981,2386,1993,1
1937.0,1981,2385,1975,1
1938.0,1975,2372,1968,1
1939.0,1955,2371,1969,1
1940.0,1949,2372,1970,1
1941.0,1942,2370,1979,1
1942.0,1947,2368,1994,1
1943.0,1950,2363,1995,1
1944.0,1948,2344,1998,1
1945.0,1946,2355,2009,1
1946.0,1950,2365,2010,1
1947.0,1966,2359,2019,1
1948.0,1957,2329,2016,1
1949.0,1965,2326,2018,1
1950.0,1954,2352,2019,1
1951.0,1967,2375,2023,1
1952.0,1964,2376,2011,1
1953.0,1964,2352,2001,1
1954.0,1958,2332,1996,1
1955.0,1953,2319,2000,1
1956.0,1947,2342,2001,1
1957.0,1942,2379,1995,1
1958.0,1935,2378,1987,1
1959.0,1936,2360,1985,1
1960.0,1932,2361,1981,1
1961.0,1935,2355,1986,1
1962.0,1937,2345,1995,1
1963.0,1946,2347,2004,1
1964.0,1953,2356,2004,1
1965.0,1954,2358,2007,1
1966.0,1958,2354,2012,1
1967.0,1957,2349,2012,1
1968.0,1960,2347,2012,1
1969.0,1962,2351,2007,1
1970.0,1962,2358,2004,1
1971.0,1954,2367,1997,1
1972.0,1948,2359,1986,1
1973.0,1947,2362,1987,1
1974.0,1943,2362,1976,1
1975.0,1941,2361,1979,1
1976.0,1938,2361,1986,1
1977.0,1937,2351,1992,1
1978.0,1939,2350,1999,1
1979.0,1951,2347,2005,1
1980.0,1958,2342,2006,1
1981.0,1965,2339,2016,1
1982.0,1964,2341,2009,1
1983.0,1960,2345,2011,1
1984.0,1962,2349,2016,1
1985.0,1959,2349,2014,1
1986.0,1959,2343,2012,1
1987.0,1959,2352,2011,1
1988.0,1959,2354,2015,1
1989.0,1950,2355,2014,1
1990.0,1951,2363,2009,1
1991.0,1948,2359,2010,1
1992.0,1942,2363,2010,1
1993.0,1944,2369,2009,1
1994.0,1938,2363,2007,1
1995.0,1937,2359,2005,1
1996.0,1942,2354,2001,1
1997.0,1935,2358,1997,1
1998.0,1946,2372,1999,1
1999.0,1959,2364,2004,1
2000.0,1964,2365,2008,1
2001.0,1964,2368,2017,1
2002.0,1959,2364,2022,1
2003.0,1959,2376,2029,1
2004.0,1963,2377,2035,1
2005.0,1965,2366,2039,1
2006.0,1963,2354,2048,1
2007.0,1964,2341,2046,1
2008.0,1968,2329,2042,1
2009.0,1961,2327,2038,1
2010.0,1968,2327,2039,1
2011.0,1960,2335,2033,1
2012.0,1962,2348,2038,1
2013.0,1959,2357,2034,1
2014.0,1957,2347,2031,1
2015.0,1962,2356,2031,1
2016.0,1960,2367,2034,1
2017.0,1960,2382,2027,1
2018.0,1952,2382,2023,1
2019.0,1949,2377,2013,1
2020.0,1943,2360,2012,1
2021.0,1945,2354,2013,1
2022.0,1942,2357,2006,1
2023.0,1945,2359,2006,1
2024.0,1940,2361,2015,1
2025.0,1947,2356,2017,1
2026.0,1948,2345,2017,1
2027.0,1951,2331,2016,1
2028.0,1952,2329,2020,1
2029.0,1956,2334,2022,1
2030.0,1957,2348,2027,1
2031.0,1949,2347,2021,1
2032.0,1957,2341,2023,1
2033.0,1958,2357,2024,1
2034.0,1951,2362,2018,1
2035.0,1947,2347,2011,1
2036.0,1950,2361,2006,1
2037.0,1948,2371,2000,1
2038.0,1951,2359,1997,1
2039.0,1949,2356,1985,1
2040.0,1954,2369,1973,1
2041.0,1951,2367,1973,1
2042.0,1956,2363,1981,1
2043.0,1951,2359,1991,1
2044.0,1949,2352,2001,1
2045.0,1950,2350,2013,1
2046.0,1953,2350,2016,1
2047.0,1950,2355,2016,1
2048.0,1947,2340,2023,1
2049.0,1951,2341,2025,1
2050.0,1953,2336,2021,1
2051.0,1949,2343,2025,1
2052.0,1952,2346,2027,1
2053.0,1948,2357,2025,1
2054.0,1957,2362,2015,1
2055.0,1947,2361,2013,1
2056.0,1950,2364,2002,1
2057.0,1950,2367,1998,1
2058.0,1951,2364,1983,1
2059.0,1947,2358,1988,1
2060.0,1949,2369,1980,1
2061.0,1946,2355,1978,1
2062.0,1947,2362,1983,1
2063.0,1954,2359,1994,1
2064.0,1949,2365,2004,1
2065.0,1951,2357,2009,1
2066.0,1954,2356,2013,1
2067.0,1950,2360,2025,1
2068.0,1958,2357,2025,1
2069.0,1955,2356,2025,1
2070.0,1956,2351,2024,1
2071.0,1956,2347,2029,1
2072.0,1956,2348,2019,1
2073.0,1960,2349,2018,1
2074.0,1959,2358,2009,1
2075.0,1964,2363,2003,1
2076.0,1964,2356,2000,1
2077.0,1963,2356,1995,1
2078.0,1964,2358,1990,1
2079.0,1959,2356,1989,1
2080.0,1964,2342,1990,1
2081.0,1952,2346,1998,1
2082.0,1952,2347,2007,1
2083.0,1958,2357,2008,1
2084.0,1962,2352,2021,1
2085.0,1957,2352,2027,1
2086.0,1953,2349,2024,1
2087.0,1957,2353,2034,1
2088.0,1955,2349,2031,1
2089.0,1954,2350,2026,1
2090.0,1950,2348,2021,1
2091.0,1952,2350,2017,1
2092.0,1951,2359,2010,1
2093.0,1945,2366,2013,1
2094.0,1947,2363,2007,1
2095.0,1942,2372,2000,1
2096.0,1949,2369,1996,1
2097.0,1956,2371,1982,1
2098.0,1962,2364,1988,1
2099.0,1956,2366,1990,1
2100.0,1962,2351,1989,1
2101.0,1969,2345,2003,1
2102.0,1962,2344,1998,1
2103.0,1971,2340,2012,1
2104.0,1967,2351,2018,1
2105.0,1970,2344,2016,1
2106.0,1962,2349,2026,1
2107.0,1967,2344,2025,1
2108.0,1962,2349,2025,1
2109.0,1962,2349,2027,1
2110.0,1955,2350,2030,1
2111.0,1959,2357,2018,1
2112.0,1960,2357,2008,1
2113.0,1961,2357,2003,1
2114.0,1963,2359,2001,1
2115.0,1970,2362,1999,1
2116.0,1969,2358,1990,1
2117.0,1969,2357,1996,1
2118.0,1970,2359,1996,1
2119.0,1968,2358,1998,1
2120.0,1971,2355,2006,1
2121.0,1966,2350,2010,1
2122.0,1961,2351,2013,1
2123.0,1962,2353,2016,1
2124.0,1959,2355,2024,1
2125.0,1959,2357,2025,1
2126.0,1951,2355,2025,1
2127.0,1958,2358,2025,1
2128.0,1953,2358,2023,1
2129.0,1953,2356,2015,1
2130.0,1964,2359,2014,1
2131.0,1959,2361,2014,1
2132.0,1960,2359,2008,1
2133.0,1961,2355,2007,1
2134.0,1972,2359,2006,1
2135.0,1964,2349,2003,1
2136.0,1963,2350,1997,1
2137.0,1970,2351,2002,1
2138.0,1965,2357,2004,1
2139.0,1964,2356,2010,1
2140.0,1966,2353,2012,1
2141.0,1959,2347,2016,1
2142.0,1956,2347,2018,1
2143.0,1959,2352,2022,1
2144.0,1955,2350,2018,1
2145.0,1953,2347,2025,1
2146.0,1958,2350,2020,1
2147.0,1965,2352,2021,1
2148.0,1963,2354,2012,1
2149.0,1962,2354,2014,1
2150.0,1964,2355,2013,1
2151.0,1962,2355,2007,1
2152.0,1958,2358,2004,1
2153.0,1956,2362,1999,1
2154.0,1957,2354,2005,1
2155.0,1959,2356,2004,1
2156.0,1965,2359,2007,1
2157.0,1966,2355,2007,1
2158.0,1968,2356,2016,1
2159.0,1964,2356,2014,1
2160.0,1965,2354,2017,1
2161.0,1968,2354,2016,1
2162.0,1962,2359,2020,1
2163.0,1966,2354,2021,1
2164.0,1957,2354,2017,1
2165.0,1957,2350,2017,1
2166.0,1954,2347,2011,1
2167.0,1962,2352,2017,1
2168.0,1958,2351,2013,1
2169.0,1964,2353,2021,1
2170.0,1963,2352,2015,1
2171.0,1961,2357,2012,1
2172.0,1957,2354,2009,1
2173.0,1962,2352,2013,1
2174.0,1956,2353,2008,1
2175.0,1954,2356,2018,1
2176.0,1956,2352,2017,1
2177.0,1963,2348,2013,1
2178.0,1961,2357,2016,1
2179.0,1962,2354,2021,1
2180.0,1968,2354,2010,1
2181.0,1960,2355,2015,1
2182.0,1967,2354,2017,1
2183.0,1964,2353,2012,1
2184.0,1967,2352,2015,1
2185.0,1966,2351,2015,1
2186.0,1963,2355,2011,1
2187.0,1965,2352,2014,1
2188.0,1959,2354,2014,1
2189.0,1957,2353,2019,1
2190.0,1962,2351,2017,1
2191.0,1959,2353,2011,1
2192.0,1963,2353,2012,1
2193.0,1963,2354,2013,1
2194.0,1968,2352,2018,1
2195.0,1969,2353,2011,1
2196.0,1962,2355,2015,1
2197.0,1962,2350,2019,1
2198.0,1965,2353,2017,1
2199.0,1962,2351,2020,1
2200.0,1960,2359,2016,1
2201.0,1952,2355,2018,1
2202.0,1959,2354,2023,1
2203.0,1961,2347,2023,1
2204.0,1958,2353,2015,1
2205.0,1962,2356,2014,1
2206.0,1964,2346,2016,1
2207.0,1960,2354,2018,1
2208.0,1958,2355,2014,1
2209.0,1954,2353,2013,1
2210.0,1961,2353,2026,1
2211.0,1960,2352,2023,1
2212.0,1963,2353,2018,1
2213.0,1960,2360,2018,1
2214.0,1966,2354,2017,1
2215.0,1968,2349,2020,1
2216.0,1967,2349,2022,1
2217.0,1965,2351,2017,1
2218.0,1970,2351,2017,1
2219.0,1961,2352,2021,1
2220.0,1958,2356,2021,1
2221.0,1956,2349,2021,1
2222.0,1956,2356,2019,1
2223.0,1949,2351,2020,1
2224.0,1955,2354,2021,1
2225.0,1951,2360,2019,1
2226.0,1955,2354,2012,1
2227.0,1953,2353,2021,1
2228.0,1962,2352,2015,1
2229.0,1957,2355,2021,1
2230.0,1963,2358,2013,1
2231.0,1966,2357,2019,1
2232.0,1956,2359,2018,1
2233.0,1956,2356,2018,1
2234.0,1956,2351,2020,1
2235.0,1957,2352,2019,1
2236.0,1963,2355,2018,1
2237.0,1959,2355,2018,1
2238.0,1953,2353,2021,1
2239.0,1951,2353,2022,1
2240.0,1954,2355,2018,1
2241.0,1956,2356,2017,1
2242.0,1954,2350,2014,1
2243.0,1951,2357,2018,1
2244.0,1959,2355,2018,1
2245.0,1962,2353,2018,1
2246.0,1958,2351,2012,1
2247.0,1961,2353,2015,1
2248.0,1957,2357,2017,1
2249.0,1954,2355,2017,1
2250.0,1953,2356,2013,1
2251.0,1955,2354,2013,1
2252.0,1951,2354,2019,1
2253.0,1956,2359,2017,1
2254.0,1958,2357,2018,1
2255.0,1955,2356,2017,1
2256.0,1950,2357,2015,1
2257.0,1947,2358,2019,1
2258.0,1951,2350,2014,1
2259.0,1944,2349,2018,1
2260.0,1952,2358,2017,1
2261.0,1950,2349,2011,1
2262.0,1949,2340,2013,1
2263.0,1956,2348,2007,1
2264.0,1954,2352,2008,1
2265.0,1955,2353,2001,1
2266.0,1959,2356,2002,1
2267.0,1963,2354,2006,1
2268.0,1961,2351,1997,1
2269.0,1958,2350,2005,1
2270.0,1961,2351,2007,1
2271.0,1964,2352,2009,1
2272.0,1963,2353,2002,1
2273.0,1963,2356,2007,1
2274.0,1968,2358,2010,1
2275.0,1971,2359,2007,1
2276.0,1981,2363,2003,1
2277.0,1973,2353,2004,1
2278.0,1973,2354,2003,1
2279.0,1972,2356,2005,1
2280.0,1966,2359,2003,1
2281.0,1963,2349,1998,1
2282.0,1961,2347,1995,1
2283.0,1959,2353,1998,1
2284.0,1959,2352,1996,1
2285.0,1969,2349,1999,1
2286.0,1971,2354,2000,1
2287.0,1973,2349,2003,1
2288.0,1974,2353,2001,1
2289.0,1976,2361,2006,1
2290.0,1971,2360,1999,1
2291.0,1969,2359,2004,1
2292.0,1974,2355,2005,1
2293.0,1970,2344,2004,1
2294.0,1970,2347,2007,1
2295.0,1971,2351,2010,1
2296.0,1964,2349,2010,1
2297.0,1961,2348,2013,1
2298.0,1962,2354,2011,1
2299.0,1967,2357,2008,1
2300.0,1966,2355,1998,1
2301.0,1957,2354,2002,1
2302.0,1962,2365,2006,1
2303.0,1959,2358,2003,1
2304.0,1960,2355,1995,1
2305.0,1956,2355,1994,1
2306.0,1959,2350,1998,1
2307.0,1964,2343,1993,1
2308.0,1972,2362,1995,1
2309.0,1973,2359,1999,1
2310.0,1977,2347,2000,1
2311.0,1974,2345,2003,1
2312.0,1971,2345,1998,1
2313.0,1973,2350,2005,1
2314.0,1969,2353,2006,1
2315.0,1961,2351,2002,1
2316.0,1965,2353,2005,1
2317.0,1963,2359,2007,1
2318.0,1965,2363,2012,1
2319.0,1965,2353,2006,1
2320.0,1970,2353,2007,1
2321.0,1966,2348,2006,1
2322.0,1960,2345,1992,1
2323.0,1956,2353,1998,1
2324.0,1949,2353,2002,1
2325.0,1949,2362,1999,1
2326.0,1950,2355,2002,1
2327.0,1953,2353,2000,1
2328.0,1957,2356,2001,1
2329.0,1961,2351,2003,1
2330.0,1958,2353,2003,1
2331.0,1955,2349,2004,1
2332.0,1956,2354,2006,1
2333.0,1952,2356,2009,1
2334.0,1956,2356,2009,1
2335.0,1956,2352,2003,1
2336.0,1959,2360,2005,1
2337.0,1960,2352,2001,1
2338.0,1955,2355,2005,1
2339.0,1953,2360,1996,1
2340.0,1954,2353,2002,1
2341.0,1955,2354,2003,1
2342.0,1965,2352,1999,1
2343.0,1960,2346,2005,1
2344.0,1964,2349,2003,1
2345.0,1958,2353,2005,1
2346.0,1953,2351,2003,1
2347.0,1951,2358,2008,1
2348.0,1954,2357,2001,1
2349.0,1948,2357,2004,1
2350.0,1956,2356,2008,1
2351.0,1959,2359,2002,1
2352.0,1963,2353,2006,1
2353.0,1959,2352,2005,1
2354.0,1960,2354,2006,1
2355.0,1962,2353,2007,1
2356.0,1963,2349,2008,1
2357.0,1963,2346,2003,1
2358.0,1964,2356,2005,1
2359.0,1963,2348,2003,1
2360.0,1957,2352,2000,1
2361.0,1958,2355,1998,1
2362.0,1960,2352,1995,1
2363.0,1955,2346,1994,1
2364.0,1951,2343,1999,1
2365.0,1947,2347,2004,1
2366.0,1946,2354,2008,1
2367.0,1950,2369,2013,1
2368.0,1945,2373,2009,1
2369.0,1946,2371,2007,1
2370.0,1950,2356,2002,1
2371.0,1955,2352,2000,1
2372.0,1958,2350,2000,1
2373.0,1966,2347,2004,1
2374.0,1958,2352,2003,1
2375.0,1960,2356,2006,1
2376.0,1969,2358,2002,1
2377.0,1973,2352,2002,1
2378.0,1967,2359,1995,1
2379.0,1972,2361,2003,1
2380.0,1982,2359,1996,1
2381.0,1979,2360,1997,1
2382.0,1973,2365,1999,1
2383.0,1961,2354,1995,1
2384.0,1957,2355,2003,1
2385.0,1953,2351,1997,1
2386.0,1959,2344,1999,1
2387.0,1960,2343,2002,1
2388.0,1959,2337,2003,1
2389.0,1969,2341,2008,1
2390.0,1958,2349,2003,1
2391.0,1960,2350,2000,1
2392.0,1961,2359,2004,1
2393.0,1967,2350,2005,1
2394.0,1968,2349,1999,1
2395.0,1975,2345,1999,1
2396.0,1977,2346,2002,1
2397.0,1969,2353,1999,1
2398.0,1969,2355,1996,1
2399.0,1980,2359,1993,1
2400.0,1974,2359,1994,1
2401.0,1978,2355,1996,1
2402.0,1979,2352,1997,1
2403.0,1979,2352,1991,1
2404.0,1976,2353,1995,1
2405.0,1968,2356,1999,1
2406.0,1965,2351,1999,1
2407.0,1959,2351,2005,1
2408.0,1962,2344,2006,1
2409.0,1958,2347,2006,1
2410.0,1961,2360,2004,1
2411.0,1978,2356,2007,1
2412.0,1983,2354,2008,1
2413.0,1981,2349,2009,1
2414.0,1982,2345,2007,1
2415.0,1980,2351,2004,1
2416.0,1961,2348,2007,1
2417.0,1955,2343,1998,1
2418.0,1957,2343,1999,1
2419.0,1955,2349,2006,1
2420.0,1946,2357,2007,1
2421.0,1950,2355,2008,1
2422.0,1963,2355,2009,1
2423.0,1968,2348,2007,1
2424.0,1970,2350,2009,1
2425.0,1970,2352,2009,1
2426.0,1968,2357,2009,1
2427.0,1964,2358,2000,1
2428.0,1970,2352,2004,1
2429.0,1963,2351,2005,1
2430.0,1967,2355,2009,1
2431.0,1971,2353,2005,1
2432.0,1962,2357,2012,1
2433.0,1962,2350,2014,1
2434.0,1961,2364,2019,1
2435.0,1963,2370,2016,1
2436.0,1955,2357,2009,1
2437.0,1959,2356,2015,1
2438.0,1955,2353,2021,1
2439.0,1958,2355,2020,1
2440.0,1954,2358,2013,1
2441.0,1949,2358,2017,1
2442.0,1950,2358,2014,1
2443.0,1951,2360,2020,1
2444.0,1947,2363,2014,1
2445.0,1956,2360,2013,1
2446.0,1951,2354,2016,1
2447.0,1945,2345,2014,1
2448.0,1952,2349,2014,1
2449.0,1949,2352,2018,1
2450.0,1944,2350,2019,1
2451.0,1943,2353,2025,1
2452.0,1946,2355,2023,1
2453.0,1941,2353,2020,1
2454.0,1947,2350,2027,1
2455.0,1940,2355,2026,1
2456.0,1945,2351,2021,1
2457.0,1949,2355,2023,1
2458.0,1948,2358,2027,1
2459.0,1951,2355,2024,1
2460.0,1961,2358,2026,1
2461.0,1955,2352,2021,1
2462.0,1962,2352,2022,1
2463.0,1962,2341,2016,1
2464.0,1969,2353,2017,1
2465.0,1968,2355,2013,1
2466.0,1977,2360,2010,1
2467.0,1974,2358,2005,1
2468.0,1971,2353,2007,1
2469.0,1965,2356,2008,1
2470.0,1965,2360,2013,1
2471.0,1953,2359,2010,1
2472.0,1949,2355,2010,1
2473.0,1949,2353,2019,1
2474.0,1945,2355,2015,1
2475.0,1944,2348,2020,1
2476.0,1947,2359,2019,1
2477.0,1951,2351,2027,1
2478.0,1952,2347,2019,1
2479.0,1956,2349,2023,1
2480.0,1961,2353,2023,1
2481.0,1958,2351,2022,1
2482.0,1962,2349,2015,1
2483.0,1957,2357,2008,1
2484.0,1956,2355,2012,1
2485.0,1950,2355,2012,1
2486.0,1951,2360,2011,1
2487.0,1949,2358,2019,1
2488.0,1953,2344,2015,1
2489.0,1957,2342,2010,1
2490.0,1971,2353,2019,1
2491.0,1976,2350,2015,1
2492.0,1971,2353,2019,1
2493.0,1975,2363,2013,1
2494.0,1968,2361,2011,1
2495.0,1958,2358,2011,1
2496.0,1951,2343,2010,1
2497.0,1951,2354,2013,1
2498.0,1938,2350,2015,1
2499.0,1944,2351,2019,1
2500.0,1943,2351,2026,1
2501.0,1952,2344,2021,1
2502.0,1960,2350,2015,1
2503.0,1960,2354,2022,1
2504.0,1968,2347,2013,1
2505.0,1964,2347,2014,1
2506.0,1963,2347,2011,1
2507.0,1962,2355,2011,1
2508.0,1955,2358,2007,1
2509.0,1954,2355,2006,1
2510.0,1952,2355,2004,1
2511.0,1953,2360,2005,1
2512.0,1952,2358,2004,1
2513.0,1964,2355,2002,1
2514.0,1963,2359,2000,1
2515.0,1968,2369,2009,1
2516.0,1971,2386,2015,1
2517.0,1966,2334,1998,1
2518.0,1967,2343,2000,1
2519.0,1963,2359,2003,1
2520.0,1963,2354,1999,1
2521.0,1968,2349,1999,1
2522.0,1969,2361,1993,1
2523.0,1967,2359,1991,1
2524.0,1970,2363,1988,1
2525.0,1967,2361,1985,1
2526.0,1960,2355,1992,1
2527.0,1959,2353,1997,1
2528.0,1960,2353,1998,1
2529.0,1961,2357,2003,1
2530.0,1958,2356,2016,1
2531.0,1963,2357,2021,1
2532.0,1967,2347,2021,1
2533.0,1976,2353,2019,1
2534.0,1969,2343,2017,1
2535.0,1968,2340,2021,1
2536.0,1982,2345,2018,1
2537.0,1980,2357,2012,1
2538.0,1984,2354,2006,1
2539.0,1991,2358,1997,1
2540.0,1991,2354,1991,1
2541.0,1988,2355,1987,1
2542.0,1980,2356,1985,1
2543.0,1974,2359,1986,1
2544.0,1972,2363,1991,1
2545.0,1967,2357,1990,1
2546.0,1964,2345,1994,1
2547.0,1970,2350,2001,1
2548.0,1975,2348,2005,1
2549.0,1973,2348,2012,1
2550.0,1968,2345,1997,1
2551.0,1971,2344,2003,1
2552.0,1972,2357,2005,1
2553.0,1964,2355,1999,1
2554.0,1959,2345,1994,1
2555.0,1963,2349,1991,1
2556.0,1962,2353,1990,1
2557.0,1961,2355,1983,1
2558.0,1962,2348,1980,1
2559.0,1958,2352,1980,1
2560.0,1962,2358,1981,1
2561.0,1961,2366,1986,1
2562.0,1955,2367,1984,1
2563.0,1952,2378,1976,1
2564.0,1952,2359,1978,1
2565.0,1957,2378,1985,1
2566.0,1950,2387,1989,1
2567.0,1946,2357,1985,1
2568.0,1954,2348,1983,1
2569.0,1960,2345,1984,1
2570.0,1960,2310,1989,1
2571.0,1950,2302,1991,1
2572.0,1937,2343,1991,1
2573.0,1920,2362,1990,1
2574.0,1917,2351,1996,1
2575.0,1917,2354,1991,1
2576.0,1914,2357,1997,1
2577.0,1903,2365,1994,1
2578.0,1901,2375,1987,1
2579.0,1898,2377,1994,1
2580.0,1911,2375,1996,1
2581.0,1915,2366,1998,1
2582.0,1909,2352,2000,1
2583.0,1920,2341,2008,1
2584.0,1927,2340,2009,1
2585.0,1931,2347,2003,1
2586.0,1921,2324,2000,1
2587.0,1924,2358,2003,1
2588.0,1934,2383,2002,1
2589.0,1933,2359,1987,1
2590.0,1936,2352,1976,1
2591.0,1938,2366,1972,1
2592.0,1940,2367,1967,1
2593.0,1942,2350,1976,1
2594.0,1947,2340,1983,1
2595.0,1952,2342,1985,1
2596.0,1954,2341,1998,1
2597.0,1957,2310,1997,1
2598.0,1956,2318,2006,1
2599.0,1965,2405,2009,1
2600.0,1962,2437,1987,1
2601.0,1940,2437,1981,1
2602.0,1928,2384,1965,1
2603.0,1908,2344,1960,1
2604.0,1916,2343,1978,1
2605.0,1934,2344,1983,1
2606.0,1955,2334,1986,1
2607.0,1965,2333,1997,1
2608.0,1966,2330,2006,1
2609.0,1965,2336,2004,1
2610.0,1968,2346,2013,1
2611.0,1969,2350,2007,1
2612.0,1965,2351,1998,1
2613.0,1972,2357,1991,1
2614.0,1966,2352,1986,1
2615.0,1967,2355,1980,1
2616.0,1969,2359,1979,1
2617.0,1967,2360,1975,1
2618.0,1971,2365,1972,1
2619.0,1968,2366,1965,1
2620.0,1966,2364,1967,1
2621.0,1969,2358,1978,1
2622.0,1964,2362,1981,1
2623.0,1967,2355,1985,1
2624.0,1961,2358,1995,1
2625.0,1957,2357,1989,1
2626.0,1952,2354,1996,1
2627.0,1951,2348,1999,1
2628.0,1944,2355,2007,1
2629.0,1939,2355,2004,1
2630.0,1929,2349,2004,1
2631.0,1932,2354,2005,1
2632.0,1929,2351,2007,1
2633.0,1925,2357,2004,1
2634.0,1923,2355,2008,1
2635.0,1929,2355,2007,1
2636.0,1932,2355,2007,1
2637.0,1932,2360,2003,1
2638.0,1936,2365,2007,1
2639.0,1941,2355,2008,1
2640.0,1940,2357,2001,1
2641.0,1939,2360,1998,1
2642.0,1950,2359,2007,1
2643.0,1948,2363,2001,1
2644.0,1947,2360,1996,1
2645.0,1956,2353,1997,1
2646.0,1959,2356,1996,1
2647.0,1960,2355,1993,1
2648.0,1956,2359,1994,1
2649.0,1962,2358,1991,1
2650.0,1961,2354,1998,1
2651.0,1959,2355,1995,1
2652.0,1960,2359,1996,1
2653.0,1965,2355,2001,1
2654.0,1960,2354,2002,1
2655.0,1961,2356,1998,1
2656.0,1959,2352,2001,1
2657.0,1957,2357,2000,1
2658.0,1958,2356,2001,1
2659.0,1956,2357,1999,1
2660.0,1953,2347,1996,1
2661.0,1956,2351,2000,1
2662.0,1958,2348,2001,1
2663.0,1957,2352,2000,1
2664.0,1955,2360,2002,1
2665.0,1959,2353,1999,1
2666.0,1961,2361,1997,1
2667.0,1965,2362,2007,1
2668.0,1961,2358,1995,1
2669.0,1968,2350,1995,1
2670.0,1971,2349,1995,1
2671.0,1960,2347,1999,1
2672.0,1967,2351,2000,1
2673.0,1965,2354,1997,1
2674.0,1969,2350,1998,1
2675.0,1971,2357,1994,1
2676.0,1967,2351,1997,1
2677.0,1964,2354,1989,1
2678.0,1972,2350,1993,1
2679.0,1967,2343,1998,1
2680.0,1964,2345,1995,1
2681.0,1963,2349,1997,1
2682.0,1963,2343,1990,1
2683.0,1961,2350,1995,1
2684.0,1973,2361,1995,1
2685.0,1981,2369,1987,1
2686.0,1975,2356,1985,1
2687.0,1977,2356,1982,1
2688.0,1973,2372,1987,1
2689.0,1978,2373,1992,1
2690.0,1982,2368,1988,1
2691.0,1996,2352,1983,1
2692.0,2005,2363,1989,1
2693.0,2020,2403,1995,1
2694.0,2039,2383,2038,1
2695.0,1979,2338,1946,1
2696.0,1971,2360,1969,1
2697.0,1974,2319,1974,1
2698.0,1962,2257,1987,1
2699.0,1969,2233,1992,1
2700.0,1972,2286,1998,1
2701.0,1974,2299,1996,1
2702.0,1980,2317,1992,1
2703.0,1993,2353,1980,1
2704.0,2003,2376,1969,1
2705.0,2014,2385,1950,1
2706.0,2000,2410,1945,1
2707.0,1979,2392,1951,1
2708.0,1966,2384,1954,1
2709.0,1961,2370,1966,1
2710.0,1950,2375,1981,1
2711.0,1941,2350,1992,1
2712.0,1938,2329,1994,1
2713.0,1935,2348,2004,1
2714.0,1944,2347,2012,1
2715.0,1953,2347,2014,1
2716.0,1970,2347,2003,1
2717.0,1971,2346,2004,1
2718.0,1978,2346,2004,1
2719.0,1978,2337,1998,1
2720.0,2001,2387,1976,1
2721.0,1996,2386,1975,1
2722.0,1996,2373,1975,1
2723.0,1987,2358,1973,1
2724.0,1971,2376,1974,1
2725.0,1975,2411,1975,1
2726.0,1966,2393,1959,1
2727.0,1961,2378,1968,1
2728.0,1952,2337,1974,1
2729.0,1961,2370,1981,1
2730.0,1979,2395,1992,1
2731.0,1992,2410,1995,1
2732.0,1994,2397,2002,1
2733.0,1993,2354,2004,1
2734.0,1981,2332,2000,1
2735.0,1963,2310,2004,1
2736.0,1966,2307,1999,1
2737.0,1969,2329,2017,1
2738.0,1973,2317,2021,1
2739.0,1975,2295,2018,1
2740.0,1969,2298,2023,1
2741.0,1985,2317,2019,1
2742.0,1992,2355,2012,1
2743.0,2007,2403,2002,1
2744.0,2027,2409,1988,1
2745.0,2020,2381,1947,1
2746.0,2023,2359,1910,1
2747.0,2008,2362,1899,1
2748.0,1960,2369,1939,1
2749.0,1940,2353,1973,1
2750.0,1929,2315,1986,1
2751.0,1938,2316,1997,1
2752.0,1941,2343,2003,1
2753.0,1940,2370,2009,1
2754.0,1942,2381,2016,1
2755.0,1947,2370,2018,1
2756.0,1934,2365,2006,1
2757.0,1934,2369,2002,1
2758.0,1925,2369,1991,1
2759.0,1909,2371,1979,1
2760.0,1917,2369,1953,1
2761.0,1936,2361,1946,1
2762.0,1942,2365,1943,1
2763.0,1956,2373,1951,1
2764.0,1967,2356,1961,1
2765.0,1977,2374,1967,1
2766.0,1983,2364,1984,1
2767.0,1980,2358,1995,1
2768.0,1985,2357,1999,1
2769.0,1973,2356,2007,1
2770.0,1958,2351,2007,1
2771.0,1947,2347,2003,1
2772.0,1945,2347,2006,1
2773.0,1936,2352,2008,1
2774.0,1930,2343,2003,1
2775.0,1935,2349,2009,1
2776.0,1935,2360,2005,1
2777.0,1935,2367,2004,1
2778.0,1934,2360,2008,1
2779.0,1937,2359,2004,1
2780.0,1934,2357,1999,1
2781.0,1940,2356,2003,1
2782.0,1945,2364,1999,1
2783.0,1947,2351,2002,1
2784.0,1950,2339,1996,1
2785.0,1956,2353,2005,1
2786.0,1962,2364,2006,1
2787.0,1961,2375,2002,1
2788.0,1963,2364,2009,1
2789.0,1959,2354,2012,1
2790.0,1947,2346,2007,1
2791.0,1947,2354,2011,1
2792.0,1945,2357,2011,1
2793.0,1944,2351,2011,1
2794.0,1941,2342,2007,1
2795.0,1944,2335,2010,1
2796.0,1948,2347,2011,1
2797.0,1953,2355,2017,1
2798.0,1952,2353,2012,1
2799.0,1954,2354,2017,1
2800.0,1950,2362,2017,1
2801.0,1953,2362,2009,1
2802.0,1953,2356,2010,1
2803.0,1953,2353,2003,1
2804.0,1957,2357,2007,1
2805.0,1956,2352,1998,1
2806.0,1951,2357,2001,1
2807.0,1951,2355,2000,1
2808.0,1961,2355,1999,1
2809.0,1961,2357,2003,1
2810.0,1968,2362,2006,1
2811.0,1962,2353,2010,1
2812.0,1961,2354,2007,1
2813.0,1957,2352,2011,1
2814.0,1950,2356,2015,1
2815.0,1953,2352,2009,1
2816.0,1947,2354,2009,1
2817.0,1945,2361,2005,1
2818.0,1943,2364,2006,1
2819.0,1945,2359,1997,1
2820.0,1945,2363,1999,1
2821.0,1945,2355,1999,1
2822.0,1946,2363,2000,1
2823.0,1949,2352,2003,1
2824.0,1949,2349,2002,1
2825.0,1952,2351,2003,1
2826.0,1955,2351,2007,1
2827.0,1961,2356,2009,1
2828.0,1957,2351,2011,1
2829.0,1961,2347,2014,1
2830.0,1960,2350,2006,1
2831.0,1961,2352,2005,1
2832.0,1954,2355,2010,1
2833.0,1956,2350,2005,1
2834.0,1951,2358,2003,1
2835.0,1954,2359,2003,1
2836.0,1951,2358,2003,1
2837.0,1949,2356,2006,1
2838.0,1953,2355,1999,1
2839.0,1953,2353,2011,1
2840.0,1954,2351,2010,1
2841.0,1954,2349,2009,1
2842.0,1950,2349,2015,1
2843.0,1948,2354,2014,1
2844.0,1956,2352,2011,1
2845.0,1954,2354,2009,1
2846.0,1953,2356,2007,1
2847.0,1957,2354,2007,1
2848.0,1956,2355,2010,1
2849.0,1957,2353,2005,1
2850.0,1955,2354,2006,1
2851.0,1959,2355,2007,1
2852.0,1959,2350,2003,1
2853.0,1958,2355,2010,1
2854.0,1955,2354,2007,1
2855.0,1955,2359,2009,1
2856.0,1959,2362,2004,1
2857.0,1955,2351,2011,1
2858.0,1951,2356,2014,1
2859.0,1949,2355,2009,1
2860.0,1950,2352,2014,1
2861.0,1948,2353,2008,1
2862.0,1951,2354,2014,1
2863.0,1945,2357,2010,1
2864.0,1950,2351,2007,1
2865.0,1946,2352,2015,1
2866.0,1951,2348,2015,1
2867.0,1950,2357,2008,1
2868.0,1954,2359,2008,1
2869.0,1947,2353,2001,1
2870.0,1943,2355,2008,1
2871.0,1949,2351,2005,1
2872.0,1951,2361,2011,1
2873.0,1940,2356,2004,1
2874.0,1944,2351,2008,1
2875.0,1945,2362,2008,1
2876.0,1945,2355,2010,1
2877.0,1942,2357,2012,1
2878.0,1947,2354,2009,1
2879.0,1944,2353,2009,1
2880.0,1945,2348,2011,1
2881.0,1948,2359,2013,1
2882.0,1940,2359,2006,1
2883.0,1939,2358,2008,1
2884.0,1939,2350,2007,1
2885.0,1934,2354,2009,1
2886.0,1940,2360,2009,1
2887.0,1937,2360,2015,1
2888.0,1942,2351,2010,1
2889.0,1945,2355,2009,1
2890.0,1948,2352,2005,1
2891.0,1948,2354,2006,1
2892.0,1947,2352,2010,1
2893.0,1943,2358,2009,1
2894.0,1949,2355,2011,1
2895.0,1945,2354,2009,1
2896.0,1947,2351,2008,1
2897.0,1940,2355,2008,1
2898.0,1939,2357,2015,1
2899.0,1945,2350,2011,1
2900.0,1937,2353,2011,1
2901.0,1939,2352,2007,1
2902.0,1939,2351,2011,1
2903.0,1937,2354,2009,1
2904.0,1937,2353,2012,1
2905.0,1940,2357,2015,1
2906.0,1934,2347,2011,1
2907.0,1938,2352,2009,1
2908.0,1947,2356,2015,1
2909.0,1947,2351,2009,1
2910.0,1941,2354,2011,1
2911.0,1947,2355,2008,1
2912.0,1947,2358,2008,1
2913.0,1949,2352,2007,1
2914.0,1944,2354,2005,1
2915.0,1950,2353,2008,1
2916.0,1947,2361,2003,1
2917.0,1947,2358,2008,1
2918.0,1944,2357,2009,1
2919.0,1942,2360,2008,1
2920.0,1943,2358,2015,1
2921.0,1937,2358,2019,1
2922.0,1941,2359,2023,1
2923.0,1935,2359,2024,1
2924.0,1937,2359,2021,1
2925.0,1942,2352,2024,1
2926.0,1933,2351,2025,1
2927.0,1934,2352,2026,1
2928.0,1937,2359,2022,1
2929.0,1934,2351,2021,1
2930.0,1931,2348,2019,1
2931.0,1932,2356,2018,1
2932.0,1930,2365,2014,1
2933.0,1929,2355,2016,1
2934.0,1929,2350,2006,1
2935.0,1928,2354,2004,1
2936.0,1927,2354,2007,1
2937.0,1936,2355,2013,1
2938.0,1936,2363,2017,1
2939.0,1932,2354,2018,1
2940.0,1937,2350,2018,1
2941.0,1932,2358,2025,1
2942.0,1939,2356,2026,1
2943.0,1936,2359,2027,1
2944.0,1931,2359,2025,1
2945.0,1928,2354,2022,1
2946.0,1930,2359,2018,1
2947.0,1934,2357,2016,1
2948.0,1935,2357,2012,1
2949.0,1944,2357,2005,1
2950.0,1946,2357,2008,1
2951.0,1948,2350,2009,1
2952.0,1952,2350,2004,1
2953.0,1954,2357,2011,1
2954.0,1955,2355,2009,1
2955.0,1956,2357,2006,1
2956.0,1957,2359,2006,1
2957.0,1948,2354,2011,1
2958.0,1950,2349,2003,1
2959.0,1949,2354,2007,1
2960.0,1952,2358,2006,1
2961.0,1948,2360,2008,1
2962.0,1952,2355,2010,1
2963.0,1945,2352,2008,1
2964.0,1946,2354,2007,1
2965.0,1941,2361,2007,1
2966.0,1942,2354,2009,1
2967.0,1946,2347,2009,1
2968.0,1953,2349,2008,1
2969.0,1954,2356,2011,1
2970.0,1957,2345,2012,1
2971.0,1957,2351,2018,1
2972.0,1963,2351,2019,1
2973.0,1957,2365,2019,1
2974.0,1944,2364,2023,1
2975.0,1941,2363,2015,1
2976.0,1940,2363,2017,1
2977.0,1932,2361,2006,1
2978.0,1927,2359,2007,1
2979.0,1929,2359,2007,1
2980.0,1929,2361,2004,1
2981.0,1936,2357,2008,1
2982.0,1942,2358,2008,1
2983.0,1945,2364,2008,1
2984.0,1943,2357,2003,1
2985.0,1962,2356,2015,1
2986.0,1962,2355,2015,1
2987.0,1963,2349,2013,1
2988.0,1963,2343,2012,1
2989.0,1967,2349,2005,1
2990.0,1966,2349,2006,1
2991.0,1965,2353,2006,1
2992.0,1961,2351,2001,1
2993.0,1965,2353,1999,1
2994.0,1958,2355,2001,1
2995.0,1950,2355,2002,1
2996.0,1933,2356,2006,1
2997.0,1941,2359,2003,1
2998.0,1944,2358,2004,1
2999.0,1959,2354,2013,1
3000.0,1964,2348,2005,1
3001.0,1969,2358,2012,1
3002.0,1959,2353,2006,1
3003.0,1963,2351,2007,1
3004.0,1965,2358,2011,1
3005.0,1959,2353,2007,1
3006.0,1952,2355,2002,1
3007.0,1957,2355,2007,1
3008.0,1951,2357,2004,1
3009.0,1954,2359,2003,1
3010.0,1954,2355,2006,1
3011.0,1955,2357,2003,1
3012.0,1957,2353,2000,1
3013.0,1954,2359,2009,1
3014.0,1952,2353,2009,1
3015.0,1956,2354,2009,1
3016.0,1955,2354,2003,1
3017.0,1958,2353,2011,1
3018.0,1960,2354,2005,1
3019.0,1955,2353,2006,1
3020.0,1959,2352,2009,1
3021.0,1959,2357,2005,1
3022.0,1963,2357,2003,1
3023.0,1957,2355,2013,1
3024.0,1963,2358,2008,1
3025.0,1959,2354,2001,1
3026.0,1950,2354,2005,1
3027.0,1951,2355,2008,1
3028.0,1957,2350,2005,1
3029.0,1954,2353,2010,1
3030.0,1954,2351,1999,1
3031.0,1950,2356,2006,1
3032.0,1953,2355,2004,1
3033.0,1960,2355,2001,1
3034.0,1961,2360,2003,1
3035.0,1966,2355,2006,1
3036.0,1961,2346,2004,1
3037.0,1960,2350,2002,1
3038.0,1960,2353,2004,1
3039.0,1969,2355,2003,1
3040.0,1965,2355,2003,1
3041.0,1963,2356,1998,1
3042.0,1956,2351,2001,1
3043.0,1958,2351,1999,1
3044.0,1958,2357,1998,1
3045.0,1960,2353,1996,1
3046.0,1951,2350,1998,1
3047.0,1954,2352,1998,1
3048.0,1953,2349,1998,1
3049.0,1965,2354,1999,1
3050.0,1959,2355,2000,1
3051.0,1961,2356,1998,1
3052.0,1961,2359,1998,1
3053.0,1956,2358,2002,1
3054.0,1958,2359,1998,1
3055.0,1955,2356,1999,1
3056.0,1962,2366,1994,1
3057.0,1953,2358,1994,1
3058.0,1964,2361,1996,1
3059.0,1960,2363,1999,1
3060.0,1965,2346,2013,1
3061.0,1965,2346,2011,1
3062.0,1962,2351,2001,1
3063.0,1954,2335,1998,1
3064.0,1954,2351,1996,1
3065.0,1957,2363,1997,1
3066.0,1961,2373,1998,1
3067.0,1958,2366,1992,1
3068.0,1955,2352,1989,1
3069.0,1964,2335,1986,1
3070.0,1969,2342,2001,1
3071.0,1973,2335,1997,1
3072.0,1973,2342,2004,1
3073.0,1979,2341,2005,1
3074.0,1986,2358,2009,1
3075.0,1985,2359,1998,1
3076.0,1979,2355,1993,1
3077.0,1983,2367,1984,1
3078.0,1986,2395,1975,1
3079.0,1978,2359,1956,1
3080.0,1972,2319,1957,1
3081.0,1978,2341,1963,1
3082.0,1985,2331,1969,1
3083.0,2001,2347,1977,1
3084.0,2004,2354,1974,1
3085.0,2007,2336,1978,1
3086.0,2006,2335,1985,1
3087.0,2013,2345,1993,1
3088.0,2004,2345,1989,1
3089.0,1997,2347,1988,1
3090.0,1992,2337,1980,1
3091.0,1994,2354,1976,1
3092.0,1983,2361,1971,1
3093.0,1977,2357,1962,1
3094.0,1967,2363,1967,1
3095.0,1956,2367,1974,1
3096.0,1958,2353,1978,1
3097.0,1960,2361,1989,1
3098.0,1962,2363,1996,1
3099.0,1968,2360,2006,1
3100.0,1975,2357,2009,1
3101.0,1977,2356,2016,1
3102.0,1979,2353,2015,1
3103.0,1979,2345,2011,1
3104.0,1979,2346,2015,1
3105.0,1979,2339,2012,1
3106.0,1978,2345,2009,1
3107.0,1984,2356,2012,1
3108.0,1980,2354,2008,1
3109.0,1975,2348,2003,1
3110.0,1981,2350,2001,1
3111.0,1976,2347,1996,1
3112.0,1976,2346,1993,1
3113.0,1975,2347,1990,1
3114.0,1973,2353,1987,1
3115.0,1968,2343,1983,1
3116.0,1973,2358,1986,1
3117.0,1962,2364,1985,1
3118.0,1966,2363,1993,1
3119.0,1962,2362,1993,1
3120.0,1963,2363,1987,1
3121.0,1967,2371,1990,1
3122.0,1969,2365,1994,1
3123.0,1966,2356,1995,1
3124.0,1973,2351,2001,1
3125.0,1976,2352,2003,1
3126.0,1976,2350,2003,1
3127.0,1982,2354,2003,1
3128.0,1976,2350,2004,1
3129.0,1972,2334,2009,1
3130.0,1973,2331,2009,1
3131.0,1975,2337,2009,1
3132.0,1975,2343,2003,1
3133.0,1977,2348,1999,1
3134.0,1979,2360,2006,1
3135.0,1977,2356,2005,1
3136.0,1978,2359,1994,1
3137.0,1988,2355,1999,1
3138.0,1990,2358,1994,1
3139.0,1984,2356,2002,1
3140.0,1979,2350,2004,1
3141.0,1982,2363,2002,1
3142.0,1971,2364,2009,1
3143.0,1957,2353,2007,1
3144.0,1951,2356,2009,1
3145.0,1949,2354,2015,1
3146.0,1939,2373,2009,1
3147.0,1940,2374,2014,1
3148.0,1939,2371,2017,1
3149.0,1940,2364,2011,1
3150.0,1944,2359,2012,1
3151.0,1947,2372,2015,1
3152.0,1945,2369,2007,1
3153.0,1941,2333,1997,1
3154.0,1953,2333,1996,1
3155.0,1962,2322,1994,1
3156.0,1969,2337,1997,1
3157.0,1960,2332,1998,1
3158.0,1954,2319,2009,1
3159.0,1952,2315,2008,1
3160.0,1963,2347,2017,1
3161.0,1966,2367,2015,1
3162.0,1956,2358,2012,1
3163.0,1950,2326,2015,1
3164.0,1963,2354,2017,1
3165.0,1965,2376,2012,1
3166.0,1966,2376,2014,1
3167.0,1963,2353,2006,1
3168.0,1973,2366,2007,1
3169.0,1979,2373,2003,1
3170.0,1983,2357,1997,1
3171.0,1980,2351,2000,1
3172.0,1979,2364,2005,1
3173.0,1976,2358,2012,1
3174.0,1971,2337,2017,1
3175.0,1973,2344,2017,1
3176.0,1962,2358,2027,1
3177.0,1955,2360,2019,1
3178.0,1946,2359,2026,1
3179.0,1944,2355,2026,1
3180.0,1943,2362,2017,1
3181.0,1947,2361,2027,1
3182.0,1942,2390,2025,1
3183.0,1951,2377,2012,1
3184.0,1945,2353,2015,1
3185.0,1952,2360,2013,1
3186.0,1951,2363,2004,1
3187.0,1949,2343,2003,1
3188.0,1950,2350,2010,1
3189.0,1941,2348,2007,1
3190.0,1933,2337,2010,1
3191.0,1932,2348,2009,1
3192.0,1933,2352,2020,1
3193.0,1929,2359,2020,1
3194.0,1936,2358,2022,1
3195.0,1934,2348,2029,1
3196.0,1935,2353,2030,1
3197.0,1936,2354,2021,1
3198.0,1937,2357,2022,1
3199.0,1928,2353,2015,1
3200.0,1934,2356,2006,1
3201.0,1938,2376,2013,1
3202.0,1937,2347,2003,1
3203.0,1944,2355,2000,1
3204.0,1958,2348,1994,1
3205.0,1957,2343,2000,1
3206.0,1964,2343,2001,1
3207.0,1967,2346,2000,1
3208.0,1972,2341,1995,1
3209.0,1974,2337,1997,1
3210.0,1972,2344,1996,1
3211.0,1964,2331,1999,1
3212.0,1964,2353,2008,1
3213.0,1967,2368,2017,1
3214.0,1959,2371,2016,1
3215.0,1946,2357,2009,1
3216.0,1944,2348,2021,1
3217.0,1943,2351,2020,1
3218.0,1934,2363,2024,1
3219.0,1938,2378,2025,1
3220.0,1929,2371,2023,1
3221.0,1928,2357,2014,1
3222.0,1924,2360,2020,1
3223.0,1922,2359,2016,1
3224.0,1924,2355,2017,1
3225.0,1930,2371,2023,1
3226.0,1935,2370,2027,1
3227.0,1939,2353,2032,1
3228.0,1942,2352,2030,1
3229.0,1945,2365,2034,1
3230.0,1910,2361,2355,1
3231.0,1910,2365,2355,1
3232.0,1960,2403,2163,1
3233.0,1944,2285,2034,1
3234.0,1966,2388,2045,1
3235.0,1954,2414,2119,1
3236.0,1959,2363,2079,1
3237.0,1958,2360,2051,1
3238.0,1949,2345,2080,1
3239.0,1954,2343,2077,1
3240.0,1974,2365,2097,1
3241.0,1967,2341,2101,1
3242.0,1966,2373,2130,1
3243.0,1974,2360,2098,1
3244.0,1966,2386,2066,1
3245.0,1971,2412,2051,1
3246.0,1975,2385,2037,1
3247.0,1971,2331,2033,1
3248.0,1978,2309,2052,1
3249.0,1991,2372,2059,1
3250.0,2004,2393,2091,1
3251.0,2005,2379,2031,1
3252.0,2009,2374,2038,1
3253.0,1995,2353,2038,1
3254.0,1992,2355,2038,1
3255.0,1990,2377,2038,1
3256.0,1994,2371,2043,1
3257.0,1987,2352,2036,1
3258.0,1983,2359,2040,1
3259.0,1986,2370,2031,1
3260.0,1984,2357,2019,1
3261.0,1972,2336,2012,1
3262.0,1953,2291,1984,1
3263.0,1958,2304,1979,1
3264.0,1976,2319,1989,1
3265.0,1967,2306,1972,1
3266.0,1973,2329,1964,1
3267.0,1975,2338,1967,1
3268.0,1982,2333,1971,1
3269.0,1973,2331,1965,1
3270.0,1965,2328,1971,1
3271.0,1967,2327,1969,1
3272.0,1958,2325,1972,1
3273.0,1961,2324,1980,1
3274.0,1970,2332,1999,1
3275.0,1989,2341,2014,1
3276.0,2007,2373,2018,1
3277.0,2029,2380,2000,1
3278.0,2118,2366,1953,1
3279.0,2127,2374,1951,1
3280.0,2081,2331,1937,1
3281.0,2063,2330,1919,1
3282.0,2043,2381,1919,1
3283.0,2009,2361,1915,1
3284.0,1985,2360,1928,1
3285.0,1978,2380,1959,1
3286.0,1980,2395,1979,1
3287.0,1968,2371,1999,1
3288.0,1965,2358,2007,1
3289.0,1962,2358,2004,1
3290.0,1949,2363,2011,1
3291.0,1933,2355,2013,1
3292.0,1936,2355,1997,1
3293.0,1941,2380,1992,1
3294.0,1962,2370,1976,1
3295.0,1974,2344,1967,1
3296.0,1974,2349,1965,1
3297.0,1978,2344,1961,1
3298.0,1982,2333,1957,1
3299.0,1992,2347,1961,1
3300.0,1982,2353,1958,1
3301.0,1973,2344,1979,1
3302.0,1970,2359,1989,1
3303.0,1966,2365,1996,1
3304.0,1965,2354,2005,1
3305.0,1965,2345,2009,1
3306.0,1966,2334,2006,1
3307.0,1971,2347,2006,1
3308.0,1969,2351,2003,1
3309.0,1966,2356,1992,1
3310.0,1968,2366,1987,1
3311.0,1965,2355,1974,1
3312.0,1962,2359,1973,1
3313.0,1965,2382,1980,1
3314.0,1967,2386,1977,1
3315.0,1958,2351,1985,1
3316.0,1957,2347,1995,1
3317.0,1956,2334,1999,1
3318.0,1963,2339,2010,1
3319.0,1962,2346,2012,1
3320.0,1957,2363,2020,1
3321.0,1958,2355,2016,1
3322.0,1954,2355,2014,1
3323.0,1954,2359,2016,1
3324.0,1954,2359,2023,1
3325.0,1948,2355,2018,1
3326.0,1959,2330,2018,1
3327.0,1966,2330,2011,1
3328.0,1970,2348,2002,1
3329.0,1967,2372,1990,1
3330.0,1970,2374,1988,1
3331.0,1964,2353,1981,1
3332.0,1955,2345,1978,1
3333.0,1950,2348,1978,1
3334.0,1953,2368,1986,1
3335.0,1957,2381,1987,1
3336.0,1959,2375,1997,1
3337.0,1954,2365,2005,1
3338.0,1963,2353,2009,1
3339.0,1959,2356,2017,1
3340.0,1957,2360,2025,1
3341.0,1957,2349,2027,1
3342.0,1961,2343,2023,1
3343.0,1965,2347,2029,1
3344.0,1963,2349,2034,1
3345.0,1967,2350,2031,1
3346.0,1973,2359,2029,1
3347.0,1972,2360,2026,1
3348.0,1975,2365,2028,1
3349.0,1971,2357,2025,1
3350.0,1966,2356,2024,1
3351.0,1964,2357,2015,1
3352.0,1955,2354,2014,1
3353.0,1955,2369,2019,1
3354.0,1957,2378,2022,1
3355.0,1957,2366,2019,1
3356.0,1965,2363,2019,1
3357.0,1970,2349,2022,1
3358.0,1962,2348,2026,1
3359.0,1970,2340,2030,1
3360.0,1968,2345,2029,1
3361.0,1968,2342,2029,1
3362.0,1963,2338,2037,1
3363.0,1960,2327,2030,1
3364.0,1961,2336,2037,1
3365.0,1963,2344,2039,1
3366.0,1959,2357,2031,1
3367.0,1967,2349,2033,1
3368.0,1967,2344,2026,1
3369.0,1966,2353,2016,1
3370.0,1965,2361,2011,1
3371.0,1967,2341,2003,1
3372.0,1966,2346,1996,1
3373.0,1971,2367,1992,1
3374.0,1966,2369,1987,1
3375.0,1964,2371,1992,1
3376.0,1972,2371,1995,1
3377.0,1976,2366,2000,1
3378.0,1976,2350,2001,1
3379.0,1974,2352,2012,1
3380.0,1971,2352,2018,1
3381.0,1973,2347,2021,1
3382.0,1974,2339,2018,1
3383.0,1975,2347,2020,1
3384.0,1974,2344,2015,1
3385.0,1973,2357,2015,1
3386.0,1965,2354,2001,1
3387.0,1970,2346,2004,1
3388.0,1975,2360,1999,1
3389.0,1972,2359,1995,1
3390.0,1970,2354,1986,1
3391.0,1963,2351,1991,1
3392.0,1955,2350,1986,1
3393.0,1960,2344,1997,1
3394.0,1965,2342,2004,1
3395.0,1972,2344,2008,1
3396.0,1970,2347,2013,1
3397.0,1967,2351,2014,1
3398.0,1971,2360,2007,1
3399.0,1967,2359,2006,1
3400.0,1979,2348,2001,1
3401.0,1974,2347,1999,1
3402.0,1970,2346,1999,1
3403.0,1975,2355,2003,1
3404.0,1975,2358,2001,1
3405.0,1971,2352,1994,1
3406.0,1971,2355,2003,1
3407.0,1978,2352,2003,1
3408.0,1976,2359,1997,1
3409.0,1973,2349,2004,1
3410.0,1969,2349,2001,1
3411.0,1972,2351,2006,1
3412.0,1973,2352,2007,1
3413.0,1964,2351,2007,1
3414.0,1961,2356,2017,1
3415.0,1967,2354,2009,1
3416.0,1960,2347,2010,1
3417.0,1971,2350,2011,1
3418.0,1967,2350,2012,1
3419.0,1964,2361,2010,1
3420.0,1966,2357,2001,1
3421.0,1968,2358,2003,1
3422.0,1976,2361,2004,1
3423.0,1970,2357,2004,1
3424.0,1972,2358,2005,1
3425.0,1964,2360,2000,1
3426.0,1962,2349,2004,1
3427.0,1966,2350,2009,1
3428.0,1971,2347,2008,1
3429.0,1973,2349,2014,1
3430.0,1967,2347,2010,1
3431.0,1970,2351,2013,1
3432.0,1968,2356,2013,1
3433.0,1972,2355,2006,1
3434.0,1961,2348,2005,1
3435.0,1973,2349,2003,1
3436.0,1969,2351,2007,1
3437.0,1969,2351,2006,1
3438.0,1968,2357,2007,1
3439.0,1974,2350,2003,1
3440.0,1964,2351,2002,1
3441.0,1968,2347,2001,1
3442.0,1961,2352,2006,1
3443.0,1965,2360,2001,1
3444.0,1967,2354,2003,1
3445.0,1969,2351,2005,1
3446.0,1965,2348,2001,1
3447.0,1965,2353,2000,1
3448.0,1969,2346,2000,1
3449.0,1970,2362,2000,1
3450.0,1956,2348,2001,1
3451.0,1964,2347,2003,1
3452.0,1962,2352,1999,1
3453.0,1966,2352,1996,1
3454.0,1967,2354,1995,1
3455.0,1971,2349,1999,1
3456.0,1966,2345,2001,1
3457.0,1963,2347,2002,1
3458.0,1964,2346,2005,1
3459.0,1964,2361,2008,1
3460.0,1954,2363,2010,1
3461.0,1967,2358,2006,1
3462.0,1961,2352,2000,1
3463.0,1959,2355,2005,1
3464.0,1960,2354,2004,1
3465.0,1962,2357,2009,1
3466.0,1961,2359,2011,1
3467.0,1966,2357,1999,1
3468.0,1968,2355,2003,1
3469.0,1962,2355,2004,1
3470.0,1961,2355,2004,1
3471.0,1961,2359,2010,1
3472.0,1963,2351,2008,1
3473.0,1967,2354,2011,1
3474.0,1967,2357,2009,1
3475.0,1966,2354,2007,1
3476.0,1967,2351,2010,1
3477.0,1966,2351,2008,1
3478.0,1963,2346,2012,1
3479.0,1963,2353,2002,1
3480.0,1961,2359,2005,1
3481.0,1961,2354,2007,1
3482.0,1957,2359,2013,1
3483.0,1957,2360,2010,1
3484.0,1966,2366,2012,1
3485.0,1960,2372,1999,1
3486.0,1961,2361,1997,1
3487.0,1960,2353,2001,1
3488.0,1958,2358,2000,1
3489.0,1956,2361,2002,1
3490.0,1958,2359,2005,1
3491.0,1956,2354,2013,1
3492.0,1955,2353,2016,1
3493.0,1956,2356,2017,1
3494.0,1961,2350,2015,1
3495.0,1959,2352,2020,1
3496.0,1957,2352,2018,1
3497.0,1960,2359,2018,1
3498.0,1965,2358,2023,1
3499.0,1963,2353,2014,1
3500.0,1958,2352,2007,1
3501.0,1960,2353,2006,1
3502.0,1963,2353,2004,1
3503.0,1962,2346,2005,1
3504.0,1959,2353,2001,1
3505.0,1951,2357,2002,1
3506.0,1953,2358,2002,1
3507.0,1950,2347,2005,1
3508.0,1951,2350,2005,1
3509.0,1952,2357,2009,1
3510.0,1954,2351,2010,1
3511.0,1951,2351,2010,1
3512.0,1954,2353,2015,1
3513.0,1950,2353,2007,1
3514.0,1952,2351,2005,1
3515.0,1950,2356,2005,1
3516.0,1947,2355,2000,1
3517.0,1948,2359,1997,1
3518.0,1945,2352,1996,1
3519.0,1952,2362,1996,1
3520.0,1953,2356,1995,1
3521.0,1948,2360,2001,1
3522.0,1956,2355,2000,1
3523.0,1953,2348,2004,1
3524.0,1954,2352,2002,1
3525.0,1949,2353,2005,1
3526.0,1950,2350,2002,1
3527.0,1950,2353,2003,1
3528.0,1944,2346,2000,1
3529.0,1949,2343,1999,1
3530.0,1949,2348,2004,1
3531.0,1942,2347,1997,1
3532.0,1943,2357,1997,1
3533.0,1948,2359,1995,1
3534.0,1946,2357,1991,1
3535.0,1947,2355,1991,1
3536.0,1957,2352,1994,1
3537.0,1953,2350,1995,1
3538.0,1951,2355,1995,1
3539.0,1946,2360,1997,1
3540.0,1943,2357,1999,1
3541.0,1948,2354,1998,1
3542.0,1954,2352,2000,1
3543.0,1951,2353,2006,1
3544.0,1950,2354,2008,1
3545.0,1945,2352,2006,1
3546.0,1947,2352,2003,1
3547.0,1950,2359,2003,1
3548.0,1949,2351,2001,1
3549.0,1956,2359,2001,1
3550.0,1958,2358,2006,1
3551.0,1951,2357,2001,1
3552.0,1952,2354,2003,1
3553.0,1955,2360,1999,1
3554.0,1950,2359,1997,1
3555.0,1952,2358,1990,1
3556.0,1949,2359,1991,1
3557.0,1953,2351,1994,1
3558.0,1947,2350,1999,1
3559.0,1952,2342,1999,1
3560.0,1951,2345,2000,1
3561.0,1955,2347,2001,1
3562.0,1959,2346,1995,1
3563.0,1964,2354,1997,1
3564.0,1953,2355,1995,1
3565.0,1956,2355,1999,1
3566.0,1949,2351,1995,1
3567.0,1943,2348,1992,1
3568.0,1946,2357,1995,1
3569.0,1945,2354,1995,1
3570.0,1948,2350,2002,1
3571.0,1947,2350,2001,1
3572.0,1947,2355,1999,1
3573.0,1951,2349,1999,1
3574.0,1956,2355,1994,1
3575.0,1963,2358,1991,1
3576.0,1963,2357,1999,1
3577.0,1960,2354,1994,1
3578.0,1951,2358,1988,1
3579.0,1950,2352,1995,1
3580.0,1953,2357,1998,1
3581.0,1949,2352,1992,1
3582.0,1950,2350,1994,1
3583.0,1945,2351,1994,1
3584.0,1952,2358,1999,1
3585.0,1948,2357,1998,1
3586.0,1952,2358,1997,1
3587.0,1950,2357,1995,1
3588.0,1952,2356,1996,1
3589.0,1955,2358,1994,1
3590.0,1946,2351,1993,1
3591.0,1947,2349,1992,1
3592.0,1950,2349,1986,1
3593.0,1942,2349,1986,1
3594.0,1945,2346,1989,1
3595.0,1939,2359,1991,1
3596.0,1941,2365,1987,1
3597.0,1940,2356,1991,1
3598.0,1940,2359,1994,1
3599.0,1937,2364,1996,1
3600.0,1942,2358,2001,1
3601.0,1943,2361,1999,1
3602.0,1950,2365,2004,1
3603.0,1947,2358,1997,1
3604.0,1954,2357,2002,1
3605.0,1954,2357,1996,1
3606.0,1953,2350,1994,1
3607.0,1963,2357,1982,1
3608.0,1959,2350,1977,1
3609.0,1972,2345,1973,1
3610.0,1967,2348,1963,1
3611.0,1966,2351,1962,1
3612.0,1958,2352,1973,1
3613.0,1944,2362,1981,1
3614.0,1936,2362,1988,1
3615.0,1937,2364,1994,1
3616.0,1937,2356,1998,1
3617.0,1947,2349,2004,1
3618.0,1951,2351,2007,1
3619.0,1955,2346,2012,1
3620.0,1951,2347,2005,1
3621.0,1953,2350,2004,1
3622.0,1952,2359,1993,1
3623.0,1951,2355,1993,1
3624.0,1949,2360,1988,1
3625.0,1940,2362,1989,1
3626.0,1945,2359,1987,1
3627.0,1947,2356,1987,1
3628.0,1952,2360,1985,1
3629.0,1955,2355,1991,1
3630.0,1959,2350,2001,1
3631.0,1953,2352,1993,1
3632.0,1952,2354,2000,1
3633.0,1950,2353,2002,1
3634.0,1950,2355,2000,1
3635.0,1950,2356,1995,1
3636.0,1951,2352,1995,1
3637.0,1954,2358,1994,1
3638.0,1949,2360,1996,1
3639.0,1944,2362,1991,1
3640.0,1945,2354,1991,1
3641.0,1952,2350,1987,1
3642.0,1953,2357,1991,1
3643.0,1950,2357,1994,1
3644.0,1947,2351,1999,1
3645.0,1952,2351,1999,1
3646.0,1956,2352,2004,1
3647.0,1949,2350,2004,1
3648.0,1950,2352,2003,1
3649.0,1949,2352,2005,1
3650.0,1950,2352,2006,1
3651.0,1955,2355,1995,1
3652.0,1955,2354,2000,1
3653.0,1953,2361,1996,1
3654.0,1953,2350,1994,1
3655.0,1950,2350,2001,1
3656.0,1949,2347,2003,1
3657.0,1945,2356,1998,1
3658.0,1959,2357,2003,1
3659.0,1950,2360,1995,1
3660.0,1951,2359,1991,1
3661.0,1942,2362,2002,1
3662.0,1943,2358,1999,1
3663.0,1951,2363,1997,1
3664.0,1955,2363,1998,1
3665.0,1948,2363,1999,1
3666.0,1950,2353,2001,1
3667.0,1952,2355,2001,1
3668.0,1952,2351,2008,1
3669.0,1957,2354,2010,1
3670.0,1959,2351,2003,1
3671.0,1955,2357,2014,1
3672.0,1957,2352,2007,1
3673.0,1963,2352,2009,1
3674.0,1960,2353,2004,1
3675.0,1961,2354,1999,1
3676.0,1953,2352,1997,1
3677.0,1947,2350,1997,1
3678.0,1955,2355,2000,1
3679.0,1952,2353,1999,1
3680.0,1952,2358,1996,1
3681.0,1955,2353,1993,1
3682.0,1954,2360,1996,1
3683.0,1952,2360,1996,1
3684.0,1953,2359,1994,1
3685.0,1950,2347,2001,1
3686.0,1955,2343,2001,1
3687.0,1958,2350,2003,1
3688.0,1955,2351,2008,1
3689.0,1955,2355,2003,1
3690.0,1948,2351,2005,1
3691.0,1954,2347,2008,1
3692.0,1956,2350,2008,1
3693.0,1958,2356,2011,1
3694.0,1960,2360,2003,1
3695.0,1958,2357,2004,1
3696.0,1959,2360,2004,1
3697.0,1960,2355,2003,1
3698.0,1954,2354,2003,1
3699.0,1948,2358,1994,1
3700.0,1941,2354,2001,1
3701.0,1940,2352,2002,1
3702.0,1948,2352,2006,1
3703.0,1964,2356,2005,1
3704.0,1963,2359,2005,1
3705.0,1970,2358,2001,1
3706.0,1971,2352,2006,1
3707.0,1965,2350,2000,1
3708.0,1959,2353,2005,1
3709.0,1946,2355,2012,1
3710.0,1940,2353,2008,1
3711.0,1937,2355,2005,1
3712.0,1946,2355,2011,1
3713.0,1951,2352,2007,1
3714.0,1960,2355,2002,1
3715.0,1961,2353,2002,1
3716.0,1957,2346,2005,1
3717.0,1956,2354,2001,1
3718.0,1948,2353,2002,1
3719.0,1951,2354,2001,1
3720.0,1955,2354,2004,1
3721.0,1960,2348,2006,1
3722.0,1958,2348,2013,1
3723.0,1959,2357,2009,1
3724.0,1957,2355,2003,1
3725.0,1951,2355,2006,1
3726.0,1947,2357,2011,1
3727.0,1947,2362,2002,1
3728.0,1951,2357,2006,1
3729.0,1950,2351,2007,1
3730.0,1955,2353,2004,1
3731.0,1956,2358,2004,1
3732.0,1957,2353,2010,1
3733.0,1953,2355,2004,1
3734.0,1963,2350,2006,1
3735.0,1952,2354,2008,1
3736.0,1955,2351,2008,1
3737.0,1956,2353,2002,1
3738.0,1955,2351,2006,1
3739.0,1956,2352,2006,1
3740.0,1949,2358,2005,1
3741.0,1952,2358,2007,1
3742.0,1957,2349,2006,1
3743.0,1952,2355,2004,1
3744.0,1957,2357,2005,1
3745.0,1956,2353,2003,1
3746.0,1955,2358,2002,1
3747.0,1954,2356,2003,1
3748.0,1956,2357,2006,1
3749.0,1957,2359,2002,1
3750.0,1953,2349,2000,1
3751.0,1953,2360,2001,1
3752.0,1953,2359,2006,1
3753.0,1949,2355,2004,1
3754.0,1947,2352,2001,1
3755.0,1946,2352,2008,1
3756.0,1950,2366,2010,1
3757.0,1946,2361,2009,1
3758.0,1947,2358,2007,1
3759.0,1947,2358,2006,1
3760.0,1943,2356,2002,1
3761.0,1942,2353,2002,1
3762.0,1939,2358,2002,1
3763.0,1940,2354,1994,1
3764.0,1938,2347,1996,1
3765.0,1936,2351,1998,1
3766.0,1933,2351,1999,1
3767.0,1927,2350,2002,1
3768.0,1924,2350,2003,1
3769.0,1926,2349,2006,1
3770.0,1928,2353,2003,1
3771.0,1918,2357,2007,1
3772.0,1917,2355,2011,1
3773.0,1920,2354,2005,1
3774.0,1919,2357,2009,1
3775.0,1926,2362,2007,1
3776.0,1921,2358,2007,1
3777.0,1925,2365,2002,1
3778.0,1929,2366,2006,1
3779.0,1931,2360,2001,1
3780.0,1937,2360,2003,1
3781.0,1940,2354,2001,1
3782.0,1941,2351,2007,1
3783.0,1947,2353,2004,1
3784.0,1957,2361,2000,1
3785.0,1961,2354,2003,1
3786.0,1967,2355,2008,1
3787.0,1968,2357,2006,1
3788.0,1966,2350,2011,1
3789.0,1960,2347,2004,1
3790.0,1953,2346,2011,1
3791.0,1942,2352,2005,1
3792.0,1929,2352,2006,1
3793.0,1927,2370,1999,1
3794.0,1922,2366,1995,1
3795.0,1915,2370,1996,1
3796.0,1915,2369,1997,1
3797.0,1925,2370,1997,1
3798.0,1946,2356,1994,1
3799.0,1949,2349,2003,1
3800.0,1956,2353,2004,1
3801.0,1964,2362,2009,1
3802.0,1973,2355,2003,1
3803.0,1985,2348,2003,1
3804.0,1980,2343,2003,1
3805.0,1978,2348,1996,1
3806.0,1971,2349,1999,1
3807.0,1954,2343,2003,1
3808.0,1945,2345,2002,1
3809.0,1941,2360,2002,1
3810.0,1930,2374,2004,1
3811.0,1924,2345,1997,1
3812.0,1934,2341,2004,1
3813.0,1940,2348,2013,1
3814.0,1938,2364,2011,1
3815.0,1939,2359,2019,1
3816.0,1940,2362,2014,1
3817.0,1937,2358,2017,1
3818.0,1946,2344,2010,1
3819.0,1952,2351,2005,1
3820.0,1956,2350,1999,1
3821.0,1960,2355,1992,1
3822.0,1962,2369,1996,1
3823.0,1971,2359,1992,1
3824.0,1977,2357,1992,1
3825.0,1975,2363,1995,1
3826.0,1980,2354,1992,1
3827.0,1980,2349,1989,1
3828.0,1976,2349,2003,1
3829.0,1973,2351,1997,1
3830.0,1953,2357,2009,1
3831.0,1952,2357,2005,1
3832.0,1946,2337,2002,1
3833.0,1937,2357,2004,1
3834.0,1938,2363,2003,1
3835.0,1940,2353,2002,1
3836.0,1940,2350,2001,1
3837.0,1951,2365,2004,1
3838.0,1955,2352,1993,1
3839.0,1963,2356,1993,1
3840.0,1963,2357,1996,1
3841.0,1964,2350,1992,1
3842.0,1966,2351,1989,1
3843.0,1968,2355,1988,1
3844.0,1965,2357,1987,1
3845.0,1967,2346,1994,1
3846.0,1966,2355,1995,1
3847.0,1965,2352,2004,1
3848.0,1966,2352,2012,1
3849.0,1971,2354,2010,1
3850.0,1965,2349,2014,1
3851.0,1966,2355,2010,1
3852.0,1966,2344,2010,1
3853.0,1961,2345,2009,1
3854.0,1966,2357,2002,1
3855.0,1958,2355,1992,1
3856.0,1958,2357,1994,1
3857.0,1955,2349,1989,1
3858.0,1954,2349,1988,1
3859.0,1958,2354,1985,1
3860.0,1955,2353,1990,1
3861.0,1947,2353,1990,1
3862.0,1952,2354,1993,1
3863.0,1956,2355,1995,1
3864.0,1952,2355,2011,1
3865.0,1955,2360,2010,1
3866.0,1953,2358,2003,1
3867.0,1945,2351,2011,1
3868.0,1949,2359,2008,1
3869.0,1943,2352,2007,1
3870.0,1944,2356,2009,1
3871.0,1940,2363,2006,1
3872.0,1951,2350,2004,1
3873.0,1955,2349,2005,1
3874.0,1953,2344,2006,1
3875.0,1963,2349,2004,1
3876.0,1961,2353,2008,1
3877.0,1967,2358,2003,1
3878.0,1959,2365,2004,1
3879.0,1958,2364,2006,1
3880.0,1956,2359,2004,1
3881.0,1946,2355,2003,1
3882.0,1944,2351,2010,1
3883.0,1948,2353,2004,1
3884.0,1964,2351,2012,1
3885.0,1964,2356,2019,1
3886.0,1968,2362,2013,1
3887.0,1975,2367,2019,1
3888.0,1974,2359,2020,1
3889.0,1973,2362,2016,1
3890.0,1961,2353,2014,1
3891.0,1955,2355,2008,1
3892.0,1947,2349,2005,1
3893.0,1942,2353,2007,1
3894.0,1946,2351,2002,1
3895.0,1945,2351,1996,1
3896.0,1949,2354,2001,1
3897.0,1960,2356,2006,1
3898.0,1959,2356,2006,1
3899.0,1959,2355,2004,1
3900.0,1965,2355,2009,1
3901.0,1963,2359,2007,1
3902.0,1957,2351,2006,1
3903.0,1951,2350,2007,1
3904.0,1953,2343,2006,1
3905.0,1950,2351,1998,1
3906.0,1954,2347,2003,1
3907.0,1963,2354,1995,1
3908.0,1963,2351,1999,1
3909.0,1961,2347,1998,1
3910.0,1962,2349,1994,1
3911.0,1958,2352,1994,1
3912.0,1948,2348,1996,1
3913.0,1944,2353,1997,1
3914.0,1952,2365,1993,1
3915.0,1963,2364,1998,1
3916.0,1956,2357,2000,1
3917.0,1962,2352,2002,1
3918.0,1957,2347,2000,1
3919.0,1955,2346,2001,1
3920.0,1948,2355,1999,1
3921.0,1942,2349,1998,1
3922.0,1940,2351,1996,1
3923.0,1945,2352,2001,1
3924.0,1948,2345,2003,1
3925.0,1957,2352,2002,1
3926.0,1965,2355,2008,1
3927.0,1963,2356,2012,1
3928.0,1964,2350,2009,1
3929.0,1970,2358,2004,1
3930.0,1968,2358,2005,1
3931.0,1963,2355,1996,1
3932.0,1964,2355,1997,1
3933.0,1969,2361,1997,1
3934.0,1970,2360,1989,1
3935.0,1977,2348,1998,1
3936.0,1977,2334,1989,1
3937.0,1975,2333,1994,1
3938.0,1971,2349,1998,1
3939.0,1965,2357,1997,1
3940.0,1964,2360,1990,1
3941.0,1955,2362,2000,1
3942.0,1947,2369,2003,1
3943.0,1949,2372,2009,1
3944.0,1952,2377,2014,1
3945.0,1944,2372,2012,1
3946.0,1947,2352,2016,1
3947.0,1950,2342,2019,1
3948.0,1961,2350,2010,1
3949.0,1963,2327,2005,1
3950.0,1968,2333,2007,1
3951.0,1980,2348,2004,1
3952.0,1974,2352,2002,1
3953.0,1971,2353,1993,1
3954.0,1977,2348,1992,1
3955.0,1965,2353,1994,1
3956.0,1962,2358,1996,1
3957.0,1962,2353,1996,1
3958.0,1962,2353,1996,1
3959.0,1964,2357,2002,1
3960.0,1968,2366,2011,1
3961.0,1964,2361,2014,1
3962.0,1968,2349,2011,1
3963.0,1959,2356,2011,1
3964.0,1957,2350,2007,1
3965.0,1955,2355,2002,1
3966.0,1947,2355,2006,1
3967.0,1949,2354,2003,1
3968.0,1959,2358,2002,1
3969.0,1961,2357,1999,1
3970.0,1965,2358,2003,1
3971.0,1966,2359,1997,1
3972.0,1968,2357,1996,1
3973.0,1971,2361,2001,1
3974.0,1967,2350,2004,1
3975.0,1971,2346,1999,1
3976.0,1968,2350,2004,1
3977.0,1968,2347,2003,1
3978.0,1956,2348,2000,1
3979.0,1962,2363,2000,1
3980.0,1965,2355,2003,1
3981.0,1967,2350,2005,1
3982.0,1969,2353,2004,1
3983.0,1971,2350,2000,1
3984.0,1961,2350,2005,1
3985.0,1962,2349,2010,1
3986.0,1967,2354,2010,1
3987.0,1964,2365,2008,1
3988.0,1962,2359,2001,1
3989.0,1968,2351,2002,1
3990.0,1972,2353,1999,1
3991.0,1973,2352,1999,1
3992.0,1978,2353,2005,1
3993.0,1969,2358,2008,1
3994.0,1967,2353,2007,1
3995.0,1968,2362,2006,1
3996.0,1965,2353,2015,1
3997.0,1969,2348,2012,1
3998.0,1968,2346,2018,1
3999.0,1972,2359,2018,1
4000.0,1969,2349,2017,1
4001.0,1973,2350,2016,1
4002.0,1963,2352,2020,1
4003.0,1970,2353,2015,1
4004.0,1967,2353,2011,1
4005.0,1976,2346,2011,1
4006.0,1968,2353,2011,1
4007.0,1971,2354,2014,1
4008.0,1967,2353,2018,1
4009.0,1964,2350,2017,1
4010.0,1979,2354,2019,1
4011.0,1979,2347,2022,1
4012.0,1967,2347,2019,1
4013.0,1969,2345,2022,1
4014.0,1967,2353,2014,1
4015.0,1969,2350,2015,1
4016.0,1971,2351,2011,1
4017.0,1967,2346,2012,1
4018.0,1976,2351,2016,1
4019.0,1977,2351,2019,1
4020.0,1970,2353,2017,1
4021.0,1968,2354,2017,1
4022.0,1965,2354,2022,1
4023.0,1971,2361,2016,1
4024.0,1969,2354,2016,1
4025.0,1963,2355,2016,1
4026.0,1968,2353,2011,1
4027.0,1963,2351,2019,1
4028.0,1971,2348,2017,1
4029.0,1967,2353,2017,1
4030.0,1967,2346,2019,1
4031.0,1974,2354,2017,1
4032.0,1967,2351,2014,1
4033.0,1964,2355,2018,1
4034.0,1972,2354,2022,1
4035.0,1966,2350,2017,1
4036.0,1972,2347,2021,1
4037.0,1966,2355,2019,1
4038.0,1970,2356,2021,1
4039.0,1970,2347,2018,1
4040.0,1968,2351,2018,1
4041.0,1968,2342,2017,1
4042.0,1968,2350,2016,1
4043.0,1974,2351,2015,1
4044.0,1970,2355,2021,1
4045.0,1971,2348,2017,1
4046.0,1975,2343,2012,1
4047.0,1972,2344,2013,1
4048.0,1971,2346,2008,1
4049.0,1974,2347,2004,1
4050.0,1972,2344,2005,1
4051.0,1970,2341,1999,1
4052.0,1974,2350,2002,1
4053.0,1968,2355,2001,1
4054.0,1977,2351,2005,1
4055.0,1975,2356,2005,1
4056.0,1975,2376,2011,1
4057.0,1982,2363,2009,1
4058.0,1971,2353,2015,1
4059.0,1976,2364,2021,1
4060.0,1968,2364,2011,1
4061.0,1966,2352,2011,1
4062.0,1963,2345,2012,1
4063.0,1957,2349,2009,1
4064.0,1955,2349,2004,1
4065.0,1957,2348,2001,1
4066.0,1958,2350,1996,1
4067.0,1967,2356,1995,1
4068.0,1967,2361,2000,1
4069.0,1971,2360,2002,1
4070.0,1967,2366,1999,1
4071.0,1970,2357,2008,1
4072.0,1971,2350,2007,1
4073.0,1971,2350,2006,1
4074.0,1974,2346,2010,1
4075.0,1965,2351,2011,1
4076.0,1973,2352,2009,1
4077.0,1974,2340,2011,1
4078.0,1972,2350,2008,1
4079.0,1967,2353,2001,1
4080.0,1956,2348,2000,1
4081.0,1959,2349,2003,1
4082.0,1968,2352,2003,1
4083.0,1971,2354,2000,1
4084.0,1974,2347,2002,1
4085.0,1975,2354,2003,1
4086.0,1975,2351,2007,1
4087.0,1966,2351,2010,1
4088.0,1965,2349,2011,1
4089.0,1971,2352,2007,1
4090.0,1974,2352,2005,1
4091.0,1968,2352,2010,1
4092.0,1969,2350,2009,1
4093.0,1968,2357,2006,1
4094.0,1968,2355,2003,1
4095.0,1973,2354,2007,1
4096.0,1967,2351,2007,1
4097.0,1963,2352,2006,1
4098.0,1970,2352,2008,1
4099.0,1971,2351,2008,1
4100.0,1968,2359,2007,1
4101.0,1970,2351,2006,1
4102.0,1964,2353,2009,1
4103.0,1960,2353,2005,1
4104.0,1963,2354,2013,1
4105.0,1969,2351,2016,1
4106.0,1963,2355,2009,1
4107.0,1965,2354,2012,1
4108.0,1965,2355,2003,1
4109.0,1968,2353,2006,1
4110.0,1974,2356,2007,1
4111.0,1965,2353,2006,1
4112.0,1965,2353,2008,1
4113.0,1966,2350,2006,1
4114.0,1965,2348,2004,1
4115.0,1960,2347,1999,1
4116.0,1964,2347,2004,1
4117.0,1960,2353,2002,1
4118.0,1962,2354,1999,1
4119.0,1960,2354,1999,1
4120.0,1958,2371,1996,1
4121.0,1948,2368,1998,1
4122.0,1950,2363,2002,1
4123.0,1958,2355,2010,1
4124.0,1975,2354,2016,1
4125.0,1977,2338,2011,1
4126.0,1977,2340,2008,1
4127.0,1987,2342,2007,1
4128.0,1986,2351,2008,1
4129.0,1991,2353,2001,1
4130.0,1989,2346,2004,1
4131.0,1995,2351,1999,1
4132.0,1987,2353,2000,1
4133.0,1977,2358,1995,1
4134.0,1972,2359,1998,1
4135.0,1970,2363,2000,1
4136.0,1962,2355,1997,1
4137.0,1956,2355,2002,1
4138.0,1949,2352,1999,1
4139.0,1952,2358,1997,1
4140.0,1949,2360,1999,1
4141.0,1949,2366,2002,1
4142.0,1948,2351,2003,1
4143.0,1954,2355,2004,1
4144.0,1960,2356,1999,1
4145.0,1960,2360,1997,1
4146.0,1963,2352,1999,1
4147.0,1965,2336,1993,1
4148.0,1974,2337,2003,1
4149.0,1978,2347,2000,1
4150.0,1982,2337,1995,1
4151.0,1981,2341,1994,1
4152.0,1983,2343,1993,1
4153.0,1982,2356,1986,1
4154.0,1986,2369,1991,1
4155.0,1972,2370,1979,1
4156.0,1964,2379,1985,1
4157.0,1963,2364,1982,1
4158.0,1958,2356,1983,1
4159.0,1966,2363,1984,1
4160.0,1971,2346,1987,1
4161.0,1970,2347,1994,1
4162.0,1968,2337,1996,1
4163.0,1967,2339,1996,1
4164.0,1967,2351,1993,1
4165.0,1965,2349,1999,1
4166.0,1973,2352,2003,1
4167.0,1962,2351,2002,1
4168.0,1964,2358,2001,1
4169.0,1960,2363,2000,1
4170.0,1960,2365,1997,1
4171.0,1947,2349,1997,1
4172.0,1948,2349,1997,1
4173.0,1950,2349,1997,1
4174.0,1959,2347,1997,1
4175.0,1967,2361,1999,1
4176.0,1970,2352,1994,1
4177.0,1974,2357,1995,1
4178.0,1975,2351,1991,1
4179.0,1974,2353,1990,1
4180.0,1970,2351,1989,1
4181.0,1966,2347,1985,1
4182.0,1967,2356,1999,1
4183.0,1963,2353,1994,1
4184.0,1967,2354,1998,1
4185.0,1966,2371,1992,1
4186.0,1965,2350,1996,1
4187.0,1962,2361,2002,1
4188.0,1962,2356,2007,1
4189.0,1960,2342,2007,1
4190.0,1960,2347,2010,1
4191.0,1962,2352,2008,1
4192.0,1967,2347,2001,1
4193.0,1961,2342,2001,1
4194.0,1961,2330,2000,1
4195.0,1966,2337,2004,1
4196.0,1975,2344,2001,1
4197.0,1976,2350,1999,1
4198.0,1974,2363,1998,1
4199.0,1977,2372,1996,1
4200.0,1976,2371,1988,1
4201.0,1968,2367,1983,1
4202.0,1966,2364,1980,1
4203.0,1962,2365,1987,1
4204.0,1961,2357,1990,1
4205.0,1963,2356,1996,1
4206.0,1963,2350,1999,1
4207.0,1964,2351,2004,1
4208.0,1973,2358,2005,1
4209.0,1968,2359,2009,1
4210.0,1966,2352,2010,1
4211.0,1970,2355,2007,1
4212.0,1967,2355,2008,1
4213.0,1970,2349,2014,1
4214.0,1973,2351,2008,1
4215.0,1974,2352,2008,1
4216.0,1977,2356,2000,1
4217.0,1975,2342,1999,1
4218.0,1975,2347,1993,1
4219.0,1976,2354,1996,1
4220.0,1979,2358,1992,1
4221.0,1966,2357,1987,1
4222.0,1953,2349,1987,1
4223.0,1952,2354,1997,1
4224.0,1953,2357,1994,1
4225.0,1955,2346,1995,1
4226.0,1963,2332,2024,1
4227.0,1964,2344,2010,1
4228.0,1960,2358,2000,1
4229.0,1965,2357,1998,1
4230.0,1978,2355,1997,1
4231.0,1980,2361,1992,1
4232.0,1978,2366,1998,1
4233.0,1967,2367,1998,1
4234.0,1957,2361,1990,1
4235.0,1952,2352,1992,1
4236.0,1952,2356,1990,1
4237.0,1948,2349,1990,1
4238.0,1945,2350,1997,1
4239.0,1945,2347,1999,1
4240.0,1948,2351,1999,1
4241.0,1954,2353,2004,1
4242.0,1949,2349,2006,1
4243.0,1952,2360,2013,1
4244.0,1959,2352,2008,1
4245.0,1960,2344,2001,1
4246.0,1960,2354,1998,1
4247.0,1966,2366,1987,1
4248.0,1963,2367,1982,1
4249.0,1961,2371,1977,1
4250.0,1947,2366,1986,1
4251.0,1944,2365,1986,1
4252.0,1950,2355,1989,1
4253.0,1949,2358,1992,1
4254.0,1947,2349,2000,1
4255.0,1944,2342,2007,1
4256.0,1947,2352,2009,1
4257.0,1948,2349,2012,1
4258.0,1942,2349,2007,1
4259.0,1936,2345,2007,1
4260.0,1931,2347,2000,1
4261.0,1928,2359,1993,1
4262.0,1935,2355,1989,1
4263.0,1947,2363,1981,1
4264.0,1948,2358,1972,1
4265.0,1953,2360,1967,1
4266.0,1960,2357,1966,1
4267.0,1954,2354,1969,1
4268.0,1946,2358,1977,1
4269.0,1945,2347,1981,1
4270.0,1943,2355,1984,1
4271.0,1930,2358,1990,1
4272.0,1934,2363,1999,1
4273.0,1936,2355,2002,1
4274.0,1939,2350,2006,1
4275.0,1950,2357,2003,1
4276.0,1955,2351,2006,1
4277.0,1956,2358,1998,1
4278.0,1958,2369,1991,1
4279.0,1960,2357,1983,1
4280.0,1959,2346,1981,1
4281.0,1958,2350,1979,1
4282.0,1962,2354,1972,1
4283.0,1968,2354,1970,1
4284.0,1967,2343,1969,1
4285.0,1966,2349,1976,1
4286.0,1969,2352,1978,1
4287.0,1959,2353,1981,1
4288.0,1951,2354,1983,1
4289.0,1944,2360,1986,1
4290.0,1934,2353,1992,1
4291.0,1932,2341,1998,1
4292.0,1934,2350,2005,1
4293.0,1931,2362,2006,1
4294.0,1931,2360,2005,1
4295.0,1939,2353,1998,1
4296.0,1950,2354,1991,1
4297.0,1963,2361,1990,1
4298.0,1964,2362,1973,1
4299.0,1970,2369,1972,1
4300.0,1970,2373,1968,1
4301.0,1969,2362,1968,1
4302.0,1975,2361,1975,1
4303.0,1970,2354,1985,1
4304.0,1960,2348,1997,1
4305.0,1956,2337,1998,1
4306.0,1946,2326,2003,1
4307.0,1949,2339,2009,1
4308.0,1937,2348,2010,1
4309.0,1930,2350,2003,1
4310.0,1920,2367,1993,1
4311.0,1920,2362,1983,1
4312.0,1931,2368,1978,1
4313.0,1946,2380,1973,1
4314.0,1956,2368,1973,1
4315.0,1968,2365,1978,1
4316.0,1968,2360,1979,1
4317.0,1974,2351,1986,1
4318.0,1972,2347,1995,1
4319.0,1959,2349,2002,1
4320.0,1955,2339,2003,1
4321.0,1945,2338,2003,1
4322.0,1937,2342,2007,1
4323.0,1933,2351,2006,1
4324.0,1924,2353,1995,1
4325.0,1921,2362,1993,1
4326.0,1933,2372,1993,1
4327.0,1947,2375,1988,1
4328.0,1968,2373,1983,1
4329.0,1976,2364,1983,1
4330.0,1980,2362,1979,1
4331.0,1995,2355,1976,1
4332.0,1994,2346,1973,1
4333.0,1994,2345,1981,1
4334.0,1980,2346,1985,1
4335.0,1970,2349,1991,1
4336.0,1963,2360,2005,1
4337.0,1957,2354,2011,1
4338.0,1956,2354,2013,1
4339.0,1946,2352,2017,1
4340.0,1942,2353,2015,1
4341.0,1943,2353,2012,1
4342.0,1941,2346,2005,1
4343.0,1933,2348,2010,1
4344.0,1952,2355,2004,1
4345.0,1965,2366,1999,1
4346.0,1961,2364,1991,1
4347.0,1969,2362,1983,1
4348.0,1958,2361,1980,1
4349.0,1952,2359,1977,1
4350.0,1956,2367,1975,1
4351.0,1956,2355,1981,1
4352.0,1953,2349,1986,1
4353.0,1956,2346,1995,1
4354.0,1956,2348,2003,1
4355.0,1961,2354,2006,1
4356.0,1968,2349,2011,1
4357.0,1968,2345,2004,1
4358.0,1972,2349,2005,1
4359.0,1972,2356,2001,1
4360.0,1977,2348,2000,1
4361.0,1974,2349,1999,1
4362.0,1977,2342,1995,1
4363.0,1975,2353,1999,1
4364.0,1965,2355,2003,1
4365.0,1960,2367,2003,1
4366.0,1950,2365,1998,1
4367.0,1952,2362,2002,1
4368.0,1952,2356,2006,1
4369.0,1959,2359,2007,1
4370.0,1965,2350,2014,1
4371.0,1966,2354,2013,1
4372.0,1964,2359,2012,1
4373.0,1964,2355,2011,1
4374.0,1966,2354,2015,1
4375.0,1967,2349,2013,1
4376.0,1973,2340,2008,1
4377.0,1973,2347,2002,1
4378.0,1978,2351,1997,1
4379.0,1967,2352,1990,1
4380.0,1960,2355,1986,1
4381.0,1951,2364,1982,1
4382.0,1948,2368,1984,1
4383.0,1935,2363,1981,1
4384.0,1944,2358,1988,1
4385.0,1951,2357,1998,1
4386.0,1953,2353,2001,1
4387.0,1959,2347,2007,1
4388.0,1963,2352,2008,1
4389.0,1967,2347,2012,1
4390.0,1978,2337,2015,1
4391.0,1983,2343,2008,1
4392.0,1980,2349,2004,1
4393.0,1976,2350,2001,1
4394.0,1980,2355,1993,1
4395.0,1970,2351,1985,1
4396.0,1971,2364,1980,1
4397.0,1968,2366,1979,1
4398.0,1967,2362,1981,1
4399.0,1968,2359,1978,1
4400.0,1952,2351,1989,1
4401.0,1954,2345,1997,1
4402.0,1949,2337,2002,1
4403.0,1950,2345,2004,1
4404.0,1951,2357,2013,1
4405.0,1947,2362,2009,1
4406.0,1942,2358,2011,1
4407.0,1936,2354,2008,1
4408.0,1935,2349,2003,1
4409.0,1936,2361,2001,1
4410.0,1939,2356,1996,1
4411.0,1958,2352,1991,1
4412.0,1967,2351,1992,1
4413.0,1979,2352,2000,1
4414.0,1980,2353,1995,1
4415.0,1983,2349,1989,1
4416.0,1983,2354,1998,1
4417.0,1985,2351,1994,1
4418.0,1985,2341,1994,1
4419.0,1967,2348,1994,1
4420.0,1947,2356,1991,1
4421.0,1944,2356,1989,1
4422.0,1957,2351,1991,1
4423.0,1956,2350,1998,1
4424.0,1963,2349,2002,1
4425.0,1968,2349,1998,1
4426.0,1973,2351,2005,1
4427.0,1973,2344,2006,1
4428.0,1976,2348,2006,1
4429.0,1975,2354,2011,1
4430.0,1974,2350,2008,1
4431.0,1971,2356,2003,1
4432.0,1972,2363,2008,1
4433.0,1974,2361,2008,1
4434.0,1964,2349,2001,1
4435.0,1961,2354,2002,1
4436.0,1967,2358,1999,1
4437.0,1969,2359,1998,1
4438.0,1963,2349,1988,1
4439.0,1962,2362,1988,1
4440.0,1965,2351,1985,1
4441.0,1967,2350,1982,1
4442.0,1968,2361,1991,1
4443.0,1968,2350,1993,1
4444.0,1972,2357,1995,1
4445.0,1964,2357,2001,1
4446.0,1968,2356,2005,1
4447.0,1964,2357,2003,1
4448.0,1967,2351,2004,1
4449.0,1961,2343,2000,1
4450.0,1965,2349,2005,1
4451.0,1962,2349,2003,1
4452.0,1947,2343,2000,1
4453.0,1957,2344,1995,1
4454.0,1964,2348,1988,1
4455.0,1972,2351,1993,1
4456.0,1976,2349,1994,1
4457.0,1982,2357,1990,1
4458.0,1981,2359,1992,1
4459.0,1986,2362,1997,1
4460.0,1985,2360,1999,1
4461.0,1986,2360,1997,1
4462.0,1989,2345,1999,1
4463.0,1984,2350,2003,1
4464.0,1989,2355,2010,1
4465.0,1993,2347,2006,1
4466.0,1976,2351,2012,1
4467.0,1970,2360,2007,1
4468.0,1960,2356,2009,1
4469.0,1962,2359,2004,1
4470.0,1954,2347,1998,1
4471.0,1952,2352,1998,1
4472.0,1954,2358,2000,1
4473.0,1963,2369,1990,1
4474.0,1969,2361,1996,1
4475.0,1969,2358,1987,1
4476.0,1966,2362,1996,1
4477.0,1965,2367,1992,1
4478.0,1959,2362,1993,1
4479.0,1961,2347,2003,1
4480.0,1956,2345,2009,1
4481.0,1962,2345,2008,1
4482.0,1962,2349,2006,1
4483.0,1961,2339,2002,1
4484.0,1956,2340,2003,1
4485.0,1958,2354,2002,1
4486.0,1953,2361,1998,1
4487.0,1955,2359,1989,1
4488.0,1964,2351,1985,1
4489.0,1966,2357,1978,1
4490.0,1966,2346,1978,1
4491.0,1970,2347,1980,1
4492.0,1966,2346,1981,1
4493.0,1955,2347,1985,1
4494.0,1945,2344,1982,1
4495.0,1938,2343,1984,1
4496.0,1946,2351,1996,1
4497.0,1955,2363,1994,1
4498.0,1959,2347,1997,1
4499.0,1971,2357,1996,1
4500.0,1976,2355,1997,1
4501.0,1976,2344,1993,1
4502.0,1982,2354,1994,1
4503.0,1980,2355,1995,1
4504.0,1976,2359,1990,1
4505.0,1968,2362,1989,1
4506.0,1965,2351,1983,1
4507.0,1965,2359,1987,1
4508.0,1962,2359,1993,1
4509.0,1964,2353,1999,1
4510.0,1963,2351,2001,1
4511.0,1974,2356,2003,1
4512.0,1983,2352,2007,1
4513.0,1983,2345,2005,1
4514.0,1988,2349,2003,1
4515.0,1984,2357,2002,1
4516.0,1976,2362,1999,1
4517.0,1973,2354,1995,1
4518.0,1966,2358,1992,1
4519.0,1958,2357,1996,1
4520.0,1961,2361,2001,1
4521.0,1951,2346,2001,1
4522.0,1951,2336,2004,1
4523.0,1956,2350,2008,1
4524.0,1964,2369,2012,1
4525.0,1958,2371,2000,1
4526.0,1953,2375,1992,1
4527.0,1953,2371,1988,1
4528.0,1954,2371,1976,1
4529.0,1955,2357,1978,1
4530.0,1957,2354,1976,1
4531.0,1960,2355,1985,1
4532.0,1961,2363,2001,1
4533.0,1967,2359,2007,1
4534.0,1956,2351,2015,1
4535.0,1961,2346,2018,1
4536.0,1959,2337,2021,1
4537.0,1951,2349,2028,1
4538.0,1951,2348,2027,1
4539.0,1953,2351,2027,1
4540.0,1951,2345,2031,1
4541.0,1947,2330,2019,1
4542.0,1952,2323,2015,1
4543.0,1955,2356,2015,1
4544.0,1954,2353,2011,1
4545.0,1958,2364,1996,1
4546.0,1965,2369,1990,1
4547.0,1963,2369,1987,1
4548.0,1959,2357,1986,1
4549.0,1955,2367,1986,1
4550.0,1953,2377,1986,1
4551.0,1959,2377,1991,1
4552.0,1961,2359,1995,1
4553.0,1969,2360,2000,1
4554.0,1974,2345,2003,1
4555.0,1967,2337,2006,1
4556.0,1974,2335,2013,1
4557.0,1979,2335,2010,1
4558.0,1977,2342,2010,1
4559.0,1980,2351,2017,1
4560.0,1976,2348,2014,1
4561.0,1974,2346,2011,1
4562.0,1969,2353,2006,1
4563.0,1971,2345,2006,1
4564.0,1976,2352,2007,1
4565.0,1965,2349,2002,1
4566.0,1965,2354,1999,1
4567.0,1963,2371,2000,1
4568.0,1959,2360,1992,1
4569.0,1956,2353,1992,1
4570.0,1961,2365,1995,1
4571.0,1959,2359,1999,1
4572.0,1958,2349,1993,1
4573.0,1966,2341,2003,1
4574.0,1962,2358,2002,1
4575.0,1970,2361,2009,1
4576.0,1971,2355,2011,1
4577.0,1973,2349,2012,1
4578.0,1971,2348,2012,1
4579.0,1968,2342,2009,1
4580.0,1972,2349,2005,1
4581.0,1961,2351,2002,1
4582.0,1966,2364,2000,1
4583.0,1955,2363,1999,1
4584.0,1957,2355,1997,1
4585.0,1955,2351,1994,1
4586.0,1954,2354,1999,1
4587.0,1949,2349,1992,1
4588.0,1950,2365,2000,1
4589.0,1950,2371,2000,1
4590.0,1944,2345,1999,1
4591.0,1943,2343,2001,1
4592.0,1950,2358,1997,1
4593.0,1949,2348,1996,1
4594.0,1962,2356,1995,1
4595.0,1972,2355,1993,1
4596.0,1970,2345,1991,1
4597.0,1970,2351,1995,1
4598.0,1970,2365,1991,1
4599.0,1959,2361,1989,1
4600.0,1961,2366,1985,1
4601.0,1956,2360,1991,1
4602.0,1955,2361,1994,1
4603.0,1965,2370,2001,1
4604.0,1970,2378,2003,1
4605.0,1970,2362,2006,1
4606.0,1964,2338,2010,1
4607.0,1966,2338,2017,1
4608.0,1962,2357,2025,1
4609.0,1962,2354,2023,1
4610.0,1963,2352,2020,1
4611.0,1959,2355,2020,1
4612.0,1962,2353,2006,1
4613.0,1962,2351,2002,1
4614.0,1960,2350,1992,1
4615.0,1967,2355,1982,1
4616.0,1966,2353,1978,1
4617.0,1960,2353,1969,1
4618.0,1961,2348,1968,1
4619.0,1969,2349,1978,1
4620.0,1968,2354,1981,1
4621.0,1961,2348,1988,1
4622.0,1967,2359,1990,1
4623.0,1974,2363,1998,1
4624.0,1962,2349,1998,1
4625.0,1967,2343,2003,1
4626.0,1961,2359,2006,1
4627.0,1956,2354,2001,1
4628.0,1947,2352,1992,1
4629.0,1944,2348,1993,1
4630.0,1947,2356,1987,1
4631.0,1946,2366,1984,1
4632.0,1969,2360,1981,1
4633.0,1971,2352,1985,1
4634.0,1979,2342,1987,1
4635.0,1975,2341,1999,1
4636.0,1968,2345,2003,1
4637.0,1957,2347,2008,1
4638.0,1947,2348,1996,1
4639.0,1941,2346,1996,1
4640.0,1947,2355,2001,1
4641.0,1959,2368,1997,1
4642.0,1960,2372,1996,1
4643.0,1963,2366,1997,1
4644.0,1966,2369,1995,1
4645.0,1963,2360,1984,1
4646.0,1956,2366,1986,1
4647.0,1954,2367,1988,1
4648.0,1948,2353,1982,1
4649.0,1941,2355,1984,1
4650.0,1953,2360,1988,1
4651.0,1962,2349,1986,1
4652.0,1966,2348,1989,1
4653.0,1967,2334,1988,1
4654.0,1963,2336,1993,1
4655.0,1967,2355,2002,1
4656.0,1963,2358,2000,1
4657.0,1955,2362,1998,1
4658.0,1958,2367,1995,1
4659.0,1953,2360,1990,1
4660.0,1958,2355,1999,1
4661.0,1964,2345,1996,1
4662.0,1970,2353,1995,1
4663.0,1969,2348,1993,1
4664.0,1969,2351,1996,1
4665.0,1962,2338,1991,1
4666.0,1954,2332,1991,1
4667.0,1955,2341,1999,1
4668.0,1949,2357,1987,1
4669.0,1942,2346,1987,1
4670.0,1935,2342,1988,1
4671.0,1950,2355,1984,1
4672.0,1946,2353,1983,1
4673.0,1942,2367,1982,1
4674.0,1939,2359,1980,1
4675.0,1960,2345,1975,1
4676.0,1969,2355,1974,1
4677.0,1976,2367,1980,1
4678.0,1979,2363,1983,1
4679.0,1978,2355,1995,1
4680.0,1980,2363,1990,1
4681.0,1977,2360,1998,1
4682.0,1973,2351,2002,1
4683.0,1966,2355,1992,1
4684.0,1969,2363,1994,1
4685.0,1965,2363,1997,1
4686.0,1965,2358,1999,1
4687.0,1970,2344,1997,1
4688.0,1962,2347,2005,1
4689.0,1969,2352,2008,1
4690.0,1971,2352,2017,1
4691.0,1971,2353,2014,1
4692.0,1979,2344,2010,1
4693.0,1985,2347,2002,1
4694.0,1971,2355,1991,1
4695.0,1964,2356,1981,1
4696.0,1957,2362,1979,1
4697.0,1952,2366,1981,1
4698.0,1951,2373,1985,1
4699.0,1955,2362,1988,1
4700.0,1959,2346,1992,1
4701.0,1964,2344,1990,1
4702.0,1967,2334,2003,1
4703.0,1963,2344,2005,1
4704.0,1966,2374,2013,1
4705.0,1963,2355,2018,1
4706.0,1962,2345,2025,1
4707.0,1957,2348,2025,1
4708.0,1952,2355,2025,1
4709.0,1948,2359,2020,1
4710.0,1946,2355,2017,1
4711.0,1951,2339,2006,1
4712.0,1952,2344,2004,1
4713.0,1958,2351,1987,1
4714.0,1972,2350,1985,1
4715.0,1967,2357,1979,1
4716.0,1968,2365,1972,1
4717.0,1972,2358,1961,1
4718.0,1964,2363,1962,1
4719.0,1958,2373,1963,1
4720.0,1955,2375,1973,1
4721.0,1946,2349,1974,1
4722.0,1946,2333,1991,1
4723.0,1942,2331,1999,1
4724.0,1941,2351,2012,1
4725.0,1947,2350,2021,1
4726.0,1943,2349,2026,1
4727.0,1944,2338,2024,1
4728.0,1935,2340,2024,1
4729.0,1935,2337,2016,1
4730.0,1938,2346,2009,1
4731.0,1926,2355,2006,1
4732.0,1921,2359,1998,1
4733.0,1921,2377,1990,1
4734.0,1918,2385,1980,1
4735.0,1930,2374,1966,1
4736.0,1941,2375,1960,1
4737.0,1956,2374,1967,1
4738.0,1968,2360,1971,1
4739.0,1960,2365,1983,1
4740.0,1969,2367,1999,1
4741.0,1974,2363,2006,1
4742.0,1981,2356,2015,1
4743.0,1978,2353,2016,1
4744.0,1974,2349,2017,1
4745.0,1970,2349,2022,1
4746.0,1967,2340,2017,1
4747.0,1954,2338,2020,1
4748.0,1960,2341,2014,1
4749.0,1955,2351,2013,1
4750.0,1952,2354,2014,1
4751.0,1958,2349,2006,1
4752.0,1957,2355,2006,1
4753.0,1958,2372,2009,1
4754.0,1968,2354,2002,1
4755.0,1970,2352,2000,1
4756.0,1972,2356,2008,1
4757.0,1974,2354,2013,1
4758.0,1975,2353,2007,1
4759.0,1975,2356,2018,1
4760.0,1956,2337,2018,1
4761.0,1958,2339,2017,1
4762.0,1955,2341,2013,1
4763.0,1953,2344,2009,1
4764.0,1955,2350,2012,1
4765.0,1958,2360,2010,1
4766.0,1957,2364,2009,1
4767.0,1961,2369,1999,1
4768.0,1966,2356,2000,1
4769.0,1965,2349,1994,1
4770.0,1977,2348,2000,1
4771.0,1979,2356,2007,1
4772.0,1975,2356,2006,1
4773.0,1980,2357,2009,1
4774.0,1982,2350,2008,1
4775.0,1982,2357,2010,1
4776.0,1983,2362,2014,1
4777.0,1983,2351,2009,1
4778.0,1985,2347,2016,1
4779.0,1987,2362,2015,1
4780.0,1984,2358,2012,1
4781.0,1984,2361,2010,1
4782.0,1988,2354,2013,1
4783.0,1974,2353,2009,1
4784.0,1976,2339,2011,1
4785.0,1973,2322,2009,1
4786.0,1972,2337,2011,1
4787.0,1975,2350,2014,1
4788.0,1975,2356,2014,1
4789.0,1989,2371,2026,1
4790.0,1986,2352,2024,1
4791.0,1992,2350,2026,1
4792.0,1993,2339,2025,1
4793.0,1994,2348,2028,1
4794.0,1994,2357,2035,1
4795.0,1990,2350,2033,1
4796.0,1991,2341,2033,1
4797.0,1987,2344,2028,1
4798.0,1985,2350,2032,1
4799.0,1984,2355,2031,1
4800.0,1977,2361,2022,1
4801.0,1973,2361,2013,1
4802.0,1975,2352,2014,1
4803.0,1971,2362,2018,1
4804.0,1968,2367,2013,1
4805.0,1966,2363,2015,1
4806.0,1954,2354,2004,1
4807.0,1951,2351,2004,1
4808.0,1955,2357,1999,1
4809.0,1960,2366,2009,1
4810.0,1965,2356,2008,1
4811.0,1964,2343,2007,1
4812.0,1965,2344,2009,1
4813.0,1958,2347,2012,1
4814.0,1958,2343,2018,1
4815.0,1961,2347,2017,1
4816.0,1959,2344,2014,1
4817.0,1965,2351,2014,1
4818.0,1960,2349,2008,1
4819.0,1963,2357,1999,1
4820.0,1965,2350,1990,1
4821.0,1963,2358,1981,1
4822.0,1961,2359,1974,1
4823.0,1957,2354,1967,1
4824.0,1951,2354,1967,1
4825.0,1950,2353,1979,1
4826.0,1946,2342,1985,1
4827.0,1944,2339,1994,1
4828.0,1944,2356,1998,1
4829.0,1943,2345,2004,1
4830.0,1944,2344,2004,1
4831.0,1950,2362,2006,1
4832.0,1950,2357,2003,1
4833.0,1948,2354,1999,1
4834.0,1947,2363,1995,1
4835.0,1934,2360,1994,1
4836.0,1930,2343,1988,1
4837.0,1931,2349,1991,1
4838.0,1933,2350,1987,1
4839.0,1923,2356,1989,1
4840.0,1921,2351,1990,1
4841.0,1916,2356,1988,1
4842.0,1923,2358,1996,1
4843.0,1923,2358,1993,1
4844.0,1930,2366,2002,1
4845.0,1925,2367,2008,1
4846.0,1924,2363,1999,1
4847.0,1926,2354,2004,1
4848.0,1925,2361,1999,1
4849.0,1925,2356,1999,1
4850.0,1925,2351,1998,1
4851.0,1929,2352,2001,1
4852.0,1930,2350,1996,1
4853.0,1930,2350,2003,1
4854.0,1942,2349,2005,1
4855.0,1941,2355,1998,1
4856.0,1940,2343,1997,1
4857.0,1944,2348,1996,1
4858.0,1943,2353,1992,1
4859.0,1945,2355,1992,1
4860.0,1945,2357,1989,1
4861.0,1941,2350,1992,1
4862.0,1941,2348,1999,1
4863.0,1941,2343,1998,1
4864.0,1937,2354,2000,1
4865.0,1941,2364,2002,1
4866.0,1939,2359,1999,1
4867.0,1939,2363,2007,1
4868.0,1936,2378,2012,1
4869.0,1932,2376,2008,1
4870.0,1940,2373,2013,1
4871.0,1942,2374,2013,1
4872.0,1944,2371,2017,1
4873.0,1949,2362,2023,1
4874.0,1937,2355,2031,1
4875.0,1943,2349,2029,1
4876.0,1944,2345,2031,1
4877.0,1945,2349,2034,1
4878.0,1948,2355,2035,1
4879.0,1949,2362,2038,1
4880.0,1944,2356,2033,1
4881.0,1934,2356,2029,1
4882.0,1940,2353,2016,1
4883.0,1927,2359,2014,1
4884.0,1926,2354,2015,1
4885.0,1928,2349,2010,1
4886.0,1933,2357,2002,1
4887.0,1946,2361,2006,1
4888.0,1951,2353,2007,1
4889.0,1962,2354,2010,1
4890.0,1965,2354,2017,1
4891.0,1966,2351,2024,1
4892.0,1969,2357,2024,1
4893.0,1976,2368,2024,1
4894.0,1972,2366,2012,1
4895.0,1969,2361,2009,1
4896.0,1970,2353,2007,1
4897.0,1964,2354,2007,1
4898.0,1964,2350,1996,1
4899.0,1966,2357,1998,1
4900.0,1962,2365,1996,1
4901.0,1963,2358,1996,1
4902.0,1966,2349,2000,1
4903.0,1954,2340,1999,1
4904.0,1957,2344,2003,1
4905.0,1961,2350,2008,1
4906.0,1962,2357,2013,1
4907.0,1956,2350,2010,1
4908.0,1959,2338,2016,1
4909.0,1961,2348,2012,1
4910.0,1952,2355,2008,1
4911.0,1955,2352,1998,1
4912.0,1953,2358,1994,1
4913.0,1944,2358,1984,1
4914.0,1949,2352,1982,1
4915.0,1942,2351,1979,1
4916.0,1959,2368,1976,1
4917.0,1969,2366,1984,1
4918.0,1972,2363,1984,1
4919.0,1971,2358,1997,1
4920.0,1978,2353,2005,1
4921.0,1964,2362,2019,1
4922.0,1963,2353,2013,1
4923.0,1965,2343,2019,1
4924.0,1963,2336,2014,1
4925.0,1959,2336,2009,1
4926.0,1958,2351,2010,1
4927.0,1951,2347,2002,1
4928.0,1951,2349,1999,1
4929.0,1953,2352,1997,1
4930.0,1981,2377,1986,1
4931.0,1980,2376,1985,1
4932.0,1978,2375,1985,1
4933.0,1988,2353,1983,1
4934.0,1990,2358,1994,1
4935.0,1988,2348,2000,1
4936.0,1994,2353,2008,1
4937.0,1998,2360,2004,1
4938.0,1993,2355,1995,1
4939.0,1990,2344,1990,1
4940.0,1989,2343,1984,1
4941.0,1986,2345,1977,1
4942.0,1979,2345,1978,1
4943.0,1964,2344,1979,1
4944.0,1963,2351,1985,1
4945.0,1966,2352,1992,1
4946.0,1961,2346,1999,1
4947.0,1955,2339,2002,1
4948.0,1956,2347,2008,1
4949.0,1963,2343,2004,1
4950.0,1956,2333,2005,1
4951.0,1965,2338,2006,1
4952.0,1975,2354,2004,1
4953.0,1974,2362,2002,1
4954.0,1981,2353,2003,1
4955.0,1983,2356,2002,1
4956.0,1980,2363,1996,1
4957.0,1979,2354,1994,1
4958.0,1978,2338,1989,1
4959.0,1986,2340,1986,1
4960.0,1979,2345,1983,1
4961.0,1979,2350,1980,1
4962.0,1983,2360,1975,1
4963.0,1970,2357,1971,1
4964.0,1963,2356,1971,1
4965.0,1963,2361,1978,1
4966.0,1974,2365,1984,1
4967.0,1975,2365,1986,1
4968.0,1985,2363,1991,1
4969.0,1980,2357,1993,1
4970.0,1971,2352,1999,1
4971.0,1972,2352,1997,1
4972.0,1971,2341,1988,1
4973.0,1966,2344,1992,1
4974.0,1959,2353,1988,1
4975.0,1954,2354,1992,1
4976.0,1954,2361,1993,1
4977.0,1952,2377,1994,1
4978.0,1959,2385,1996,1
4979.0,1951,2388,1995,1
4980.0,1950,2358,1988,1
4981.0,1950,2339,1988,1
4982.0,1945,2337,1993,1
4983.0,1947,2341,1996,1
4984.0,1938,2344,1996,1
4985.0,1946,2362,2002,1
4986.0,1934,2359,2002,1
4987.0,1937,2366,2007,1
4988.0,1922,2368,2008,1
4989.0,1917,2363,2000,1
4990.0,1908,2355,1999,1
4991.0,1914,2360,2002,1
4992.0,1911,2356,1998,1
4993.0,1912,2358,2000,1
4994.0,1917,2358,2003,1
4995.0,1923,2357,2007,1
4996.0,1923,2357,2004,1
4997.0,1934,2350,2000,1
4998.0,1946,2350,2001,1
4999.0,1953,2351,2000,1
5000.0,1957,2354,2002,1
5001.0,1961,2346,1997,1
5002.0,1972,2346,1996,1
5003.0,1968,2350,1997,1
5004.0,1974,2357,1993,1
5005.0,1975,2356,1988,1
5006.0,1970,2350,1988,1
5007.0,1965,2355,1985,1
5008.0,1965,2356,1983,1
5009.0,1965,2358,1981,1
5010.0,1963,2360,1985,1
5011.0,1960,2368,1997,1
5012.0,1958,2368,1994,1
5013.0,1956,2368,1994,1
5014.0,1952,2355,1996,1
5015.0,1948,2363,2004,1
5016.0,1951,2354,2008,1
5017.0,1950,2351,2010,1
5018.0,1946,2356,2015,1
5019.0,1949,2354,2007,1
5020.0,1942,2348,2003,1
5021.0,1960,2348,2003,1
5022.0,1954,2340,2001,1
5023.0,1955,2344,2006,1
5024.0,1958,2351,1999,1
5025.0,1969,2356,2001,1
5026.0,1965,2355,1999,1
5027.0,1967,2347,2002,1
5028.0,1955,2351,1997,1
5029.0,1967,2347,2001,1
5030.0,1968,2363,1995,1
5031.0,1962,2362,1999,1
5032.0,1967,2351,1996,1
5033.0,1965,2361,2001,1
5034.0,1963,2357,1999,1
5035.0,1962,2365,1999,1
5036.0,1957,2358,2007,1
5037.0,1961,2356,2002,1
5038.0,1965,2349,2007,1
5039.0,1965,2352,2002,1
5040.0,1966,2356,2009,1
5041.0,1974,2353,2009,1
5042.0,1963,2348,2008,1
5043.0,1963,2353,2005,1
5044.0,1962,2355,1999,1
