timestamp,accX,accY,accZ,class
0.0,1892,2279,1781,1
1.0,1895,2283,1785,1
2.0,1889,2279,1794,1
3.0,1892,2276,1794,1
4.0,1892,2280,1787,1
5.0,1892,2276,1771,1
6.0,1895,2269,1759,1
7.0,1892,2264,1760,1
8.0,1905,2269,1770,1
9.0,1889,2274,1770,1
10.0,1894,2273,1775,1
11.0,1895,2282,1774,1
12.0,1887,2274,1779,1
13.0,1891,2270,1791,1
14.0,1890,2269,1793,1
15.0,1880,2284,1784,1
16.0,1869,2291,1787,1
17.0,1867,2283,1780,1
18.0,1882,2272,1778,1
19.0,1872,2268,1761,1
20.0,1877,2280,1768,1
21.0,1873,2269,1773,1
22.0,1881,2267,1768,1
23.0,1879,2267,1769,1
24.0,1867,2269,1772,1
25.0,1879,2260,1774,1
26.0,1877,2256,1777,1
27.0,1865,2270,1785,1
28.0,1867,2279,1780,1
29.0,1868,2281,1788,1
30.0,1876,2279,1790,1
31.0,1870,2273,1789,1
32.0,1873,2265,1793,1
33.0,1883,2263,1796,1
34.0,1887,2248,1787,1
35.0,1885,2247,1782,1
36.0,1886,2249,1776,1
37.0,1883,2249,1775,1
38.0,1879,2253,1775,1
39.0,1882,2251,1775,1
40.0,1880,2263,1781,1
41.0,1887,2261,1784,1
42.0,1884,2253,1799,1
43.0,1878,2247,1791,1
44.0,1876,2251,1789,1
45.0,1881,2242,1792,1
46.0,1878,2244,1783,1
47.0,1879,2239,1784,1
48.0,1871,2239,1771,1
49.0,1868,2237,1770,1
50.0,1875,2222,1763,1
51.0,1862,2232,1752,1
52.0,1859,2235,1759,1
53.0,1854,2240,1759,1
54.0,1853,2243,1754,1
55.0,1851,2244,1756,1
56.0,1854,2246,1763,1
57.0,1840,2254,1755,1
58.0,1830,2266,1758,1
59.0,1825,2267,1771,1
60.0,1821,2259,1769,1
61.0,1820,2260,1777,1
62.0,1822,2260,1780,1
63.0,1828,2251,1783,1
64.0,1825,2240,1785,1
65.0,1822,2231,1792,1
66.0,1829,2214,1781,1
67.0,1840,2201,1782,1
68.0,1838,2208,1781,1
69.0,1830,2202,1727,1
70.0,1824,2239,1778,1
71.0,1840,2237,1816,1
72.0,1849,2233,1843,1
73.0,1845,2217,1839,1
74.0,1878,2183,1867,1
75.0,1898,2189,1863,1
76.0,1859,2255,1843,1
77.0,1845,2277,1822,1
78.0,1833,2325,1807,1
79.0,1823,2385,1830,1
80.0,1838,2402,1865,1
81.0,1871,2374,1900,1
82.0,1890,2341,1787,1
83.0,1882,2218,1613,1
84.0,1895,2169,1610,1
85.0,1860,2168,1633,1
86.0,1904,2116,1680,1
87.0,1913,2073,1701,1
88.0,1865,2114,1716,1
89.0,1836,2175,1715,1
90.0,1891,2132,1736,1
91.0,1979,2152,1799,1
92.0,1812,2138,1811,1
93.0,1900,2169,1829,1
94.0,1859,2234,1857,1
95.0,1850,2232,1818,1
96.0,1860,2209,1835,1
97.0,1884,2206,1876,1
98.0,1804,2332,1916,1
99.0,1744,2353,1938,1
100.0,1835,2318,1898,1
101.0,1880,2228,1847,1
102.0,1840,2311,1878,1
103.0,1813,2371,1880,1
104.0,1896,2326,1901,1
105.0,1774,2666,2093,1
106.0,1816,2665,2097,1
107.0,1887,2477,2045,1
108.0,2016,2357,2026,1
109.0,2010,2378,1972,1
110.0,1997,2401,2024,1
111.0,1991,2381,2066,1
112.0,2067,2353,1994,1
113.0,2034,2408,1994,1
114.0,2124,2323,1936,1
115.0,2039,2320,1896,1
116.0,2108,2427,1944,1
117.0,1977,2578,2050,1
118.0,2083,2443,1895,1
119.0,2194,2342,1905,1
120.0,2072,2464,1908,1
121.0,2061,2478,1899,1
122.0,2089,2417,1891,1
123.0,2085,2437,1892,1
124.0,2071,2383,1883,1
125.0,2094,2413,1866,1
126.0,2055,2504,1928,1
127.0,2035,2374,1751,1
128.0,2035,2392,1794,1
129.0,2351,2414,2012,1
130.0,2157,2475,1853,1
131.0,2182,2470,1853,1
132.0,2153,2478,1913,1
133.0,2180,2393,1934,1
134.0,2069,2355,1902,1
135.0,2157,2267,1971,1
136.0,2149,2303,1871,1
137.0,2039,2240,1591,1
138.0,2085,2332,1774,1
139.0,2031,2321,1795,1
140.0,2043,2301,1745,1
141.0,2131,2300,1778,1
142.0,2040,2277,1842,1
143.0,2096,2331,1650,1
144.0,2019,2182,1768,1
145.0,2073,2162,1896,1
146.0,2194,2433,1819,1
147.0,2146,2447,1757,1
148.0,2086,2422,1866,1
149.0,2166,2447,1871,1
150.0,2237,2288,2032,1
151.0,2039,2395,1780,1
152.0,2174,2341,1847,1
153.0,2218,2339,1807,1
154.0,2153,2419,1733,1
155.0,2179,2344,1802,1
156.0,2110,2274,1862,1
157.0,2098,2289,1863,1
158.0,2114,2342,1847,1
159.0,2031,2236,1857,1
160.0,2001,2209,1863,1
161.0,1910,2494,1665,1
162.0,2095,2534,1827,1
163.0,2045,2105,1841,1
164.0,1955,2154,1830,1
165.0,2046,2390,1754,1
166.0,2088,2460,1635,1
167.0,1942,2620,1502,1
168.0,1960,2176,1896,1
169.0,2108,2097,1581,1
170.0,2112,2251,1772,1
171.0,2114,2249,1772,1
172.0,2116,2250,1774,1
173.0,2116,2253,1773,1
174.0,2115,2253,1772,1
175.0,2118,2278,1780,1
176.0,2115,2326,1835,1
177.0,2103,2329,1878,1
178.0,2186,2298,1716,1
179.0,2179,2275,1709,1
180.0,2146,2223,1642,1
181.0,2119,2193,1678,1
182.0,2165,2327,1825,1
183.0,2089,2464,1764,1
184.0,2149,2285,1797,1
185.0,2106,2239,1852,1
186.0,2095,2340,1777,1
187.0,2146,2307,1742,1
188.0,2175,2233,1666,1
189.0,2115,2258,1681,1
190.0,2088,2243,1727,1
191.0,2105,2271,1677,1
192.0,2119,2285,1889,1
193.0,1993,2342,1866,1
194.0,2221,2419,1690,1
195.0,2011,2307,1709,1
196.0,2113,2363,1854,1
197.0,2068,2306,1778,1
198.0,2107,2268,1665,1
199.0,2114,2316,1708,1
200.0,2144,2283,1701,1
201.0,2098,2316,1779,1
202.0,2067,2349,1758,1
203.0,2120,2297,1794,1
204.0,2106,2310,1810,1
205.0,2114,2394,1799,1
206.0,2087,2350,1765,1
207.0,2089,2334,1777,1
208.0,2120,2330,1823,1
209.0,2141,2276,1802,1
210.0,2062,2320,1749,1
211.0,2090,2309,1817,1
212.0,2135,2312,1769,1
213.0,2137,2305,1818,1
214.0,2090,2285,1816,1
215.0,2076,2287,1782,1
216.0,2145,2302,1728,1
217.0,2108,2328,1754,1
218.0,2103,2295,1802,1
219.0,2108,2262,1734,1
220.0,2066,2252,1731,1
221.0,2121,2329,1767,1
222.0,2094,2318,1731,1
223.0,2069,2243,1685,1
224.0,2095,2374,1505,1
225.0,2106,2375,1870,1
226.0,2074,2268,1781,1
227.0,2029,2209,1704,1
228.0,2100,2235,1726,1
229.0,2118,2263,1757,1
230.0,2115,2242,1803,1
231.0,2126,2274,1769,1
232.0,2056,2286,1788,1
233.0,2064,2301,1778,1
234.0,2105,2248,1727,1
235.0,2098,2272,1741,1
236.0,2110,2271,1741,1
237.0,2115,2279,1758,1
238.0,2114,2280,1736,1
239.0,2104,2275,1748,1
240.0,2110,2269,1751,1
241.0,2114,2267,1750,1
242.0,2108,2274,1740,1
243.0,2106,2278,1742,1
244.0,2098,2290,1746,1
245.0,2115,2246,1741,1
246.0,2106,2287,1754,1
247.0,2104,2269,1743,1
248.0,2104,2279,1742,1
249.0,2119,2267,1742,1
250.0,2115,2261,1745,1
251.0,2123,2268,1748,1
252.0,2112,2275,1757,1
253.0,2114,2276,1743,1
254.0,2103,2281,1753,1
255.0,2112,2272,1751,1
256.0,2115,2268,1746,1
257.0,2120,2288,1751,1
258.0,2100,2265,1731,1
259.0,2114,2271,1731,1
260.0,2150,2252,1740,1
261.0,2139,2240,1738,1
262.0,2108,2266,1752,1
263.0,2085,2306,1778,1
264.0,2106,2305,1765,1
265.0,2078,2295,1792,1
266.0,2140,2226,1692,1
267.0,2093,2278,1729,1
268.0,2115,2310,1751,1
269.0,2125,2288,1761,1
270.0,2082,2223,1719,1
271.0,2105,2220,1688,1
272.0,2107,2280,1764,1
273.0,2103,2265,1743,1
274.0,2094,2256,1711,1
275.0,2126,2248,1718,1
276.0,2121,2271,1732,1
277.0,2121,2284,1749,1
278.0,2110,2271,1739,1
279.0,2125,2255,1725,1
280.0,2109,2279,1745,1
281.0,2114,2287,1837,1
282.0,2110,2270,1768,1
283.0,2077,2246,1711,1
284.0,2105,2285,1731,1
285.0,2074,2291,1746,1
286.0,2101,2213,1706,1
287.0,2151,2230,1724,1
288.0,2123,2205,1738,1
289.0,2108,2287,1731,1
290.0,2153,2245,1753,1
291.0,2109,2228,1748,1
292.0,2104,2201,1713,1
293.0,2111,2240,1730,1
294.0,2121,2256,1724,1
295.0,2092,2234,1723,1
296.0,2116,2232,1722,1
297.0,2122,2260,1726,1
298.0,2124,2258,1729,1
299.0,2141,2248,1718,1
300.0,2103,2235,1726,1
301.0,2108,2239,1725,1
302.0,2125,2234,1729,1
303.0,2117,2235,1719,1
304.0,2098,2243,1739,1
305.0,2120,2216,1709,1
306.0,2104,2259,1741,1
307.0,2121,2240,1727,1
308.0,2129,2226,1716,1
309.0,2109,2225,1723,1
310.0,2124,2213,1717,1
311.0,2119,2218,1722,1
312.0,2123,2216,1713,1
313.0,2121,2221,1713,1
314.0,2111,2235,1727,1
315.0,2105,2237,1716,1
316.0,2090,2216,1707,1
317.0,2129,2293,1764,1
318.0,2088,2253,1728,1
319.0,2144,2229,1722,1
320.0,2149,2230,1728,1
321.0,2100,2252,1739,1
322.0,2131,2200,1719,1
323.0,2122,2267,1765,1
324.0,2112,2237,1746,1
325.0,2101,2253,1746,1
326.0,2095,2255,1743,1
327.0,2104,2258,1738,1
328.0,2116,2257,1739,1
329.0,2080,2244,1730,1
330.0,2084,2240,1719,1
331.0,2074,2233,1726,1
332.0,2074,2256,1723,1
333.0,2059,2243,1713,1
334.0,2084,2257,1712,1
335.0,2088,2255,1724,1
336.0,2046,2254,1711,1
337.0,2163,2209,1673,1
338.0,2154,2251,1712,1
339.0,2168,2242,1728,1
340.0,2132,2218,1752,1
341.0,2138,2219,1753,1
342.0,2165,2229,1781,1
343.0,2211,2247,1808,1
344.0,2209,2203,1827,1
345.0,2258,2213,1847,1
346.0,2201,2244,1849,1
347.0,2227,2257,1850,1
348.0,2218,2289,1808,1
349.0,2203,2273,1769,1
350.0,2215,2266,1781,1
351.0,2234,2273,1806,1
352.0,2211,2275,1784,1
353.0,2189,2259,1773,1
354.0,2149,2327,1804,1
355.0,2126,2339,1814,1
356.0,2135,2349,1808,1
357.0,2117,2349,1801,1
358.0,2102,2385,1826,1
359.0,2114,2406,1830,1
360.0,2161,2432,1829,1
361.0,2184,2365,1797,1
362.0,2199,2365,1834,1
363.0,2203,2351,1846,1
364.0,2226,2343,1841,1
365.0,2208,2353,1854,1
366.0,2201,2362,1863,1
367.0,2176,2401,1852,1
368.0,2179,2411,1883,1
369.0,2154,2414,1920,1
370.0,2214,2384,1903,1
371.0,2201,2370,1889,1
372.0,2210,2378,1885,1
373.0,2228,2385,1891,1
374.0,2239,2381,1890,1
375.0,2218,2374,1869,1
376.0,2222,2385,1875,1
377.0,2216,2357,1855,1
378.0,2204,2359,1854,1
379.0,2200,2369,1859,1
380.0,2201,2350,1874,1
381.0,2217,2344,1859,1
382.0,2241,2341,1862,1
383.0,2232,2337,1854,1
384.0,2229,2331,1829,1
385.0,2221,2342,1856,1
386.0,2210,2330,1876,1
387.0,2219,2309,1868,1
388.0,2223,2304,1860,1
389.0,2218,2294,1853,1
390.0,2226,2298,1842,1
391.0,2221,2291,1851,1
392.0,2204,2274,1852,1
393.0,2206,2250,1850,1
394.0,2208,2263,1836,1
395.0,2207,2266,1815,1
396.0,2209,2251,1817,1
397.0,2210,2271,1805,1
398.0,2223,2288,1783,1
399.0,2222,2293,1764,1
400.0,2227,2293,1756,1
401.0,2213,2276,1752,1
402.0,2203,2265,1748,1
403.0,2197,2241,1743,1
404.0,2203,2238,1761,1
405.0,2191,2219,1759,1
406.0,2214,2217,1768,1
407.0,2173,2237,1779,1
408.0,2185,2247,1799,1
409.0,2203,2257,1807,1
410.0,2158,2254,1779,1
411.0,2163,2251,1756,1
412.0,2172,2264,1767,1
413.0,2149,2270,1756,1
414.0,2159,2284,1738,1
415.0,2131,2273,1746,1
416.0,2134,2248,1724,1
417.0,2163,2257,1786,1
418.0,2161,2255,1806,1
419.0,2208,2249,1774,1
420.0,2172,2253,1771,1
421.0,2169,2255,1779,1
422.0,2154,2279,1810,1
423.0,2181,2273,1809,1
424.0,2198,2274,1737,1
425.0,2184,2287,1709,1
426.0,2161,2304,1756,1
427.0,2148,2284,1764,1
428.0,2137,2267,1758,1
429.0,2134,2278,1769,1
430.0,2145,2288,1773,1
431.0,2126,2298,1767,1
432.0,2118,2297,1756,1
433.0,2118,2295,1752,1
434.0,2118,2309,1772,1
435.0,2125,2308,1776,1
436.0,2132,2313,1777,1
437.0,2131,2319,1777,1
438.0,2131,2310,1786,1
439.0,2133,2302,1782,1
440.0,2129,2305,1776,1
441.0,2132,2312,1779,1
442.0,2119,2300,1774,1
443.0,2128,2299,1783,1
444.0,2133,2299,1778,1
445.0,2134,2297,1772,1
446.0,2136,2302,1779,1
447.0,2132,2303,1779,1
448.0,2127,2298,1779,1
449.0,2124,2305,1778,1
450.0,2131,2302,1786,1
451.0,2115,2295,1792,1
452.0,2153,2293,1796,1
453.0,2130,2286,1779,1
454.0,2139,2301,1773,1
455.0,2136,2294,1757,1
456.0,2138,2306,1757,1
457.0,2131,2304,1736,1
458.0,2137,2300,1743,1
459.0,2137,2298,1762,1
460.0,2139,2290,1777,1
461.0,2143,2289,1787,1
462.0,2135,2287,1781,1
463.0,2130,2293,1786,1
464.0,2128,2299,1792,1
465.0,2127,2299,1794,1
466.0,2138,2290,1787,1
467.0,2143,2285,1779,1
468.0,2143,2284,1772,1
469.0,2152,2287,1769,1
470.0,2149,2273,1763,1
471.0,2145,2277,1769,1
472.0,2136,2276,1776,1
473.0,2139,2271,1778,1
474.0,2125,2276,1779,1
475.0,2139,2269,1782,1
476.0,2131,2291,1785,1
477.0,2126,2268,1775,1
478.0,2124,2274,1788,1
479.0,2128,2265,1791,1
480.0,2127,2268,1789,1
481.0,2135,2263,1801,1
482.0,2134,2282,1799,1
483.0,2130,2299,1811,1
484.0,2132,2312,1804,1
485.0,2162,2328,1806,1
486.0,2167,2330,1795,1
487.0,2166,2344,1779,1
488.0,2164,2343,1784,1
489.0,2174,2352,1805,1
490.0,2185,2361,1825,1
491.0,2199,2382,1823,1
492.0,2218,2404,1834,1
493.0,2220,2418,1835,1
494.0,2243,2478,1886,1
495.0,2213,2432,1887,1
496.0,2192,2397,1886,1
497.0,2201,2399,1932,1
498.0,2190,2383,1911,1
499.0,2210,2382,1910,1
500.0,2193,2382,1915,1
501.0,2234,2340,1926,1
502.0,2206,2327,1914,1
503.0,2215,2311,1916,1
504.0,2227,2305,1899,1
505.0,2262,2312,1873,1
506.0,2251,2338,1858,1
507.0,2248,2314,1841,1
508.0,2265,2335,1829,1
509.0,2255,2332,1822,1
510.0,2143,2316,1782,1
511.0,2142,2320,1780,1
512.0,2142,2321,1779,1
513.0,2141,2320,1779,1
514.0,2155,2311,1795,1
515.0,2161,2307,1778,1
516.0,2182,2306,1777,1
517.0,2174,2297,1771,1
518.0,2142,2277,1757,1
519.0,2119,2275,1771,1
520.0,2108,2257,1748,1
521.0,2113,2261,1763,1
522.0,2108,2261,1760,1
523.0,2117,2262,1782,1
524.0,2122,2249,1785,1
525.0,2107,2256,1803,1
526.0,2118,2257,1802,1
527.0,2101,2271,1802,1
528.0,2114,2265,1795,1
529.0,2113,2255,1790,1
530.0,2111,2271,1800,1
531.0,2115,2285,1795,1
532.0,2121,2317,1788,1
533.0,2141,2334,1795,1
534.0,2155,2370,1785,1
535.0,2153,2401,1795,1
536.0,2141,2403,1782,1
537.0,2162,2403,1779,1
538.0,2119,2369,1807,1
539.0,2130,2343,1818,1
540.0,2112,2330,1828,1
541.0,2104,2322,1850,1
542.0,2095,2300,1816,1
543.0,2172,2294,1894,1
544.0,2166,2323,1875,1
545.0,2182,2309,1869,1
546.0,2203,2330,1875,1
547.0,2221,2349,1874,1
548.0,2201,2353,1867,1
549.0,2208,2356,1866,1
550.0,2215,2373,1858,1
551.0,2243,2357,1821,1
552.0,2236,2356,1857,1
553.0,2236,2329,1814,1
554.0,2183,2326,1786,1
555.0,2207,2323,1807,1
556.0,2164,2317,1794,1
557.0,2170,2335,1800,1
558.0,2167,2323,1805,1
559.0,2170,2341,1791,1
560.0,2257,2300,1835,1
561.0,2159,2310,1797,1
562.0,2170,2315,1800,1
563.0,2205,2281,1811,1
564.0,2153,2287,1789,1
565.0,2182,2297,1818,1
566.0,2176,2296,1816,1
567.0,2180,2309,1812,1
568.0,2180,2310,1800,1
569.0,2189,2298,1791,1
570.0,2165,2306,1777,1
571.0,2183,2299,1763,1
572.0,2173,2288,1773,1
573.0,2186,2285,1770,1
574.0,2183,2285,1791,1
575.0,2193,2280,1794,1
576.0,2191,2284,1803,1
577.0,2174,2276,1804,1
578.0,2177,2281,1798,1
579.0,2167,2301,1812,1
580.0,2186,2314,1796,1
581.0,2151,2321,1786,1
582.0,2158,2322,1820,1
583.0,2130,2343,1766,1
584.0,2133,2319,1769,1
585.0,2102,2329,1770,1
586.0,2098,2298,1784,1
587.0,2048,2283,1746,1
588.0,2135,2295,1774,1
589.0,2121,2311,1810,1
590.0,2091,2320,1783,1
591.0,2151,2339,1781,1
592.0,2134,2316,1801,1
593.0,2144,2307,1816,1
594.0,2129,2281,1785,1
595.0,2127,2306,1797,1
596.0,2158,2308,1791,1
597.0,2131,2303,1798,1
598.0,2143,2310,1816,1
599.0,2141,2325,1818,1
600.0,2151,2322,1825,1
601.0,2146,2314,1837,1
602.0,2148,2313,1837,1
603.0,2154,2317,1834,1
604.0,2166,2324,1799,1
605.0,2173,2340,1827,1
606.0,2189,2375,1812,1
607.0,2155,2358,1809,1
608.0,2141,2358,1810,1
609.0,2186,2354,1850,1
610.0,2169,2318,1789,1
611.0,2164,2370,1869,1
612.0,2143,2339,1803,1
613.0,2204,2346,1855,1
614.0,2182,2338,1836,1
615.0,2165,2296,1823,1
616.0,2053,2433,1840,1
617.0,2271,2342,1932,1
618.0,2176,2353,1872,1
619.0,2174,2308,1864,1
620.0,2176,2297,1873,1
621.0,2182,2299,1867,1
622.0,2209,2293,1877,1
623.0,2217,2307,1858,1
624.0,2270,2352,1878,1
625.0,2176,2383,1875,1
626.0,2078,2416,1853,1
627.0,2203,2351,1897,1
628.0,2187,2348,1871,1
629.0,2186,2355,1869,1
630.0,2201,2348,1881,1
631.0,2178,2348,1863,1
632.0,2184,2366,1879,1
633.0,2182,2358,1860,1
634.0,2158,2354,1876,1
635.0,2165,2369,1874,1
636.0,2172,2373,1875,1
637.0,2187,2375,1876,1
638.0,2184,2356,1873,1
639.0,2190,2353,1860,1
640.0,2194,2350,1877,1
641.0,2201,2344,1886,1
642.0,2190,2356,1880,1
643.0,2182,2346,1863,1
644.0,2176,2367,1897,1
645.0,2192,2341,1888,1
646.0,2207,2353,1882,1
647.0,2164,2366,1875,1
648.0,2185,2363,1884,1
649.0,2188,2361,1860,1
650.0,2194,2358,1867,1
651.0,2189,2351,1860,1
652.0,2193,2370,1852,1
653.0,2203,2358,1834,1
654.0,2191,2351,1840,1
655.0,2178,2364,1839,1
656.0,2176,2352,1845,1
657.0,2180,2334,1851,1
658.0,2178,2325,1857,1
659.0,2176,2321,1850,1
660.0,2171,2322,1850,1
661.0,2172,2324,1851,1
662.0,2186,2335,1852,1
663.0,2196,2328,1847,1
664.0,2194,2337,1836,1
665.0,2201,2329,1839,1
666.0,2206,2332,1841,1
667.0,2214,2313,1816,1
668.0,2201,2278,1810,1
669.0,2194,2274,1822,1
670.0,2234,2266,1831,1
671.0,2227,2279,1814,1
672.0,2138,2292,1787,1
673.0,2150,2306,1768,1
674.0,2187,2333,1809,1
675.0,2161,2335,1812,1
676.0,2144,2352,1770,1
677.0,2151,2311,1785,1
678.0,2200,2306,1798,1
679.0,2187,2282,1775,1
680.0,2217,2250,1788,1
681.0,2218,2249,1786,1
682.0,2218,2251,1783,1
683.0,2219,2251,1783,1
684.0,2222,2249,1782,1
685.0,2223,2250,1783,1
686.0,2219,2250,1785,1
687.0,2221,2249,1788,1
688.0,2223,2247,1784,1
689.0,2219,2256,1805,1
690.0,2217,2269,1802,1
691.0,2219,2270,1797,1
692.0,2213,2283,1797,1
693.0,2192,2276,1788,1
694.0,2195,2281,1778,1
695.0,2194,2278,1778,1
696.0,2198,2281,1781,1
697.0,2192,2287,1783,1
698.0,2202,2289,1789,1
699.0,2202,2278,1792,1
700.0,2203,2279,1791,1
701.0,2202,2281,1782,1
702.0,2223,2274,1792,1
703.0,2201,2271,1787,1
704.0,2194,2265,1788,1
705.0,2202,2273,1781,1
706.0,2211,2274,1791,1
707.0,2212,2287,1791,1
708.0,2209,2283,1791,1
709.0,2193,2277,1787,1
710.0,2199,2274,1789,1
711.0,2193,2262,1780,1
712.0,2202,2270,1792,1
713.0,2198,2267,1785,1
714.0,2207,2278,1783,1
715.0,2198,2287,1793,1
716.0,2196,2287,1802,1
717.0,2199,2282,1803,1
718.0,2177,2294,1781,1
719.0,2196,2295,1800,1
720.0,2145,2302,1762,1
721.0,2197,2303,1810,1
722.0,2185,2288,1779,1
723.0,2190,2299,1801,1
724.0,2183,2293,1788,1
725.0,2182,2299,1794,1
726.0,2193,2308,1798,1
727.0,2199,2318,1811,1
728.0,2197,2312,1815,1
729.0,2196,2311,1814,1
730.0,2191,2312,1807,1
731.0,2186,2308,1810,1
732.0,2188,2306,1808,1
733.0,2196,2298,1809,1
734.0,2188,2307,1807,1
735.0,2194,2318,1806,1
736.0,2197,2327,1813,1
737.0,2191,2320,1805,1
738.0,2190,2313,1798,1
739.0,2187,2305,1805,1
740.0,2186,2304,1804,1
741.0,2182,2313,1808,1
742.0,2186,2305,1806,1
743.0,2195,2310,1811,1
744.0,2195,2316,1814,1
745.0,2188,2304,1816,1
746.0,2193,2307,1818,1
747.0,2186,2312,1818,1
748.0,2189,2305,1815,1
749.0,2189,2309,1819,1
750.0,2194,2308,1813,1
751.0,2191,2311,1811,1
752.0,2186,2311,1815,1
753.0,2187,2310,1813,1
754.0,2186,2315,1814,1
755.0,2184,2310,1813,1
756.0,2187,2306,1819,1
757.0,2189,2307,1812,1
758.0,2189,2308,1808,1
759.0,2193,2310,1810,1
760.0,2199,2315,1812,1
761.0,2197,2319,1812,1
762.0,2189,2318,1809,1
763.0,2187,2308,1813,1
764.0,2185,2313,1813,1
765.0,2184,2308,1812,1
766.0,2187,2306,1820,1
767.0,2186,2309,1819,1
768.0,2184,2307,1823,1
769.0,2187,2307,1823,1
770.0,2197,2308,1822,1
771.0,2185,2321,1821,1
772.0,2177,2327,1817,1
773.0,2183,2321,1818,1
774.0,2180,2317,1813,1
775.0,2187,2318,1816,1
776.0,2183,2319,1826,1
777.0,2184,2323,1817,1
778.0,2185,2325,1825,1
779.0,2191,2320,1825,1
780.0,2176,2328,1842,1
781.0,2186,2326,1824,1
782.0,2186,2323,1825,1
783.0,2183,2321,1824,1
784.0,2187,2317,1825,1
785.0,2191,2316,1820,1
786.0,2178,2317,1819,1
787.0,2182,2316,1818,1
788.0,2186,2319,1824,1
789.0,2180,2322,1816,1
790.0,2179,2321,1821,1
791.0,2187,2322,1816,1
792.0,2188,2321,1821,1
793.0,2188,2323,1817,1
794.0,2181,2315,1822,1
795.0,2185,2321,1825,1
796.0,2192,2321,1820,1
797.0,2189,2326,1831,1
798.0,2188,2321,1833,1
799.0,2184,2321,1832,1
800.0,2179,2314,1839,1
801.0,2179,2309,1834,1
802.0,2171,2305,1833,1
803.0,2162,2309,1820,1
804.0,2181,2322,1822,1
805.0,2191,2317,1828,1
806.0,2188,2317,1825,1
807.0,2183,2315,1826,1
808.0,2191,2319,1823,1
809.0,2193,2332,1818,1
810.0,2185,2341,1816,1
811.0,2210,2340,1823,1
812.0,2183,2337,1829,1
813.0,2181,2330,1838,1
814.0,2179,2327,1847,1
815.0,2177,2332,1841,1
816.0,2179,2335,1840,1
817.0,2183,2339,1845,1
818.0,2187,2338,1839,1
819.0,2191,2344,1838,1
820.0,2224,2347,1824,1
821.0,2192,2344,1839,1
822.0,2235,2355,1842,1
823.0,2196,2332,1845,1
824.0,2197,2321,1863,1
825.0,2193,2341,1875,1
826.0,2187,2347,1876,1
827.0,2183,2348,1883,1
828.0,2178,2351,1885,1
829.0,2175,2355,1882,1
830.0,2191,2347,1885,1
831.0,2182,2353,1874,1
832.0,2187,2358,1871,1
833.0,2189,2359,1866,1
834.0,2194,2371,1859,1
835.0,2188,2357,1861,1
836.0,2190,2356,1863,1
837.0,2191,2353,1868,1
838.0,2191,2355,1863,1
839.0,2190,2350,1858,1
840.0,2227,2357,1860,1
841.0,2181,2346,1859,1
842.0,2189,2353,1861,1
843.0,2182,2356,1860,1
844.0,2184,2355,1860,1
845.0,2179,2349,1865,1
846.0,2178,2342,1864,1
847.0,2182,2339,1870,1
848.0,2177,2345,1867,1
849.0,2185,2347,1874,1
850.0,2187,2345,1846,1
851.0,2187,2346,1847,1
852.0,2193,2353,1853,1
853.0,2197,2354,1848,1
854.0,2195,2343,1848,1
855.0,2195,2345,1845,1
856.0,2190,2335,1848,1
857.0,2186,2331,1848,1
858.0,2185,2333,1851,1
859.0,2177,2348,1845,1
860.0,2181,2345,1832,1
861.0,2195,2343,1836,1
862.0,2202,2339,1829,1
863.0,2183,2327,1824,1
864.0,2177,2336,1833,1
865.0,2179,2341,1851,1
866.0,2184,2342,1857,1
867.0,2180,2329,1852,1
868.0,2195,2325,1855,1
869.0,2192,2316,1850,1
870.0,2193,2322,1859,1
871.0,2195,2317,1842,1
872.0,2189,2312,1841,1
873.0,2177,2304,1823,1
874.0,2179,2316,1825,1
875.0,2174,2313,1811,1
876.0,2170,2322,1805,1
877.0,2170,2318,1804,1
878.0,2176,2321,1811,1
879.0,2185,2318,1824,1
880.0,2185,2325,1828,1
881.0,2179,2321,1830,1
882.0,2183,2335,1829,1
883.0,2183,2342,1841,1
884.0,2183,2341,1827,1
885.0,2184,2333,1838,1
886.0,2181,2332,1834,1
887.0,2173,2326,1831,1
888.0,2170,2323,1822,1
889.0,2166,2322,1828,1
890.0,2164,2328,1822,1
891.0,2161,2333,1827,1
892.0,2171,2326,1821,1
893.0,2178,2326,1809,1
894.0,2177,2325,1810,1
895.0,2165,2315,1807,1
896.0,2170,2321,1812,1
897.0,2173,2321,1822,1
898.0,2172,2317,1832,1
899.0,2162,2319,1828,1
900.0,2175,2310,1835,1
901.0,2172,2322,1831,1
902.0,2168,2329,1823,1
903.0,2168,2335,1811,1
904.0,2169,2329,1823,1
905.0,2177,2327,1822,1
906.0,2177,2331,1817,1
907.0,2179,2326,1818,1
908.0,2184,2321,1824,1
909.0,2180,2318,1836,1
910.0,2187,2323,1827,1
911.0,2180,2316,1812,1
912.0,2178,2308,1816,1
913.0,2173,2292,1793,1
914.0,2171,2303,1799,1
915.0,2169,2302,1811,1
916.0,2180,2321,1802,1
917.0,2196,2309,1819,1
918.0,2211,2287,1808,1
919.0,2181,2279,1838,1
920.0,2197,2339,1804,1
921.0,2193,2346,1815,1
922.0,2208,2324,1815,1
923.0,2196,2326,1830,1
924.0,2173,2303,1835,1
925.0,2172,2293,1815,1
926.0,2189,2288,1807,1
927.0,2184,2318,1800,1
928.0,2185,2331,1817,1
929.0,2187,2337,1819,1
930.0,2175,2337,1817,1
931.0,2169,2335,1816,1
932.0,2168,2337,1827,1
933.0,2174,2325,1827,1
934.0,2172,2318,1840,1
935.0,2169,2319,1849,1
936.0,2172,2321,1854,1
937.0,2183,2321,1844,1
938.0,2188,2323,1845,1
939.0,2184,2334,1836,1
940.0,2187,2335,1825,1
941.0,2193,2345,1828,1
942.0,2190,2339,1811,1
943.0,2189,2338,1808,1
944.0,2193,2331,1807,1
945.0,2183,2331,1808,1
946.0,2166,2319,1834,1
947.0,2164,2318,1835,1
948.0,2171,2323,1846,1
949.0,2178,2324,1847,1
950.0,2185,2323,1829,1
951.0,2193,2333,1831,1
952.0,2186,2339,1836,1
953.0,2185,2342,1839,1
954.0,2186,2347,1832,1
955.0,2185,2331,1824,1
956.0,2179,2319,1821,1
957.0,2183,2324,1825,1
958.0,2185,2333,1829,1
959.0,2189,2331,1832,1
960.0,2192,2331,1835,1
961.0,2185,2327,1833,1
962.0,2189,2334,1842,1
963.0,2182,2329,1833,1
964.0,2178,2327,1825,1
965.0,2182,2323,1829,1
966.0,2182,2330,1830,1
967.0,2186,2327,1829,1
968.0,2192,2329,1828,1
969.0,2184,2329,1829,1
970.0,2184,2328,1837,1
971.0,2174,2327,1835,1
972.0,2171,2325,1840,1
973.0,2172,2314,1838,1
974.0,2183,2320,1822,1
975.0,2192,2331,1815,1
976.0,2204,2338,1824,1
977.0,2199,2333,1830,1
978.0,2197,2334,1832,1
979.0,2190,2333,1829,1
980.0,2189,2334,1830,1
981.0,2192,2328,1837,1
982.0,2196,2334,1837,1
983.0,2180,2329,1847,1
984.0,2177,2330,1845,1
985.0,2178,2325,1839,1
986.0,2183,2330,1835,1
987.0,2182,2334,1838,1
988.0,2182,2325,1832,1
989.0,2183,2331,1834,1
990.0,2186,2335,1823,1
991.0,2184,2336,1820,1
992.0,2180,2329,1818,1
993.0,2184,2331,1820,1
994.0,2182,2325,1826,1
995.0,2170,2322,1826,1
996.0,2175,2311,1823,1
997.0,2179,2323,1835,1
998.0,2174,2325,1830,1
999.0,2183,2328,1828,1
1000.0,2185,2335,1822,1
1001.0,2185,2341,1821,1
1002.0,2187,2343,1825,1
1003.0,2184,2334,1839,1
1004.0,2168,2317,1843,1
1005.0,2157,2293,1836,1
1006.0,2159,2306,1838,1
1007.0,2171,2310,1844,1
1008.0,2180,2328,1834,1
1009.0,2185,2334,1827,1
1010.0,2187,2357,1816,1
1011.0,2180,2368,1815,1
1012.0,2167,2360,1830,1
1013.0,2182,2330,1814,1
1014.0,2184,2329,1816,1
1015.0,2181,2324,1832,1
1016.0,2182,2329,1838,1
1017.0,2182,2327,1843,1
1018.0,2188,2311,1839,1
1019.0,2198,2317,1849,1
1020.0,2198,2348,1832,1
1021.0,2196,2348,1831,1
1022.0,2197,2349,1831,1
1023.0,2194,2350,1831,1
1024.0,2190,2351,1830,1
1025.0,2188,2351,1829,1
1026.0,2187,2349,1829,1
1027.0,2187,2350,1832,1
1028.0,2190,2339,1825,1
1029.0,2180,2330,1834,1
1030.0,2177,2330,1842,1
1031.0,2172,2316,1839,1
1032.0,2168,2318,1845,1
1033.0,2177,2326,1847,1
1034.0,2172,2320,1831,1
1035.0,2191,2323,1816,1
1036.0,2192,2343,1816,1
1037.0,2191,2354,1813,1
1038.0,2196,2328,1809,1
1039.0,2180,2327,1814,1
1040.0,2178,2321,1837,1
1041.0,2174,2315,1835,1
1042.0,2177,2318,1844,1
1043.0,2187,2332,1842,1
1044.0,2186,2335,1832,1
1045.0,2189,2349,1836,1
1046.0,2181,2335,1828,1
1047.0,2172,2332,1826,1
1048.0,2174,2321,1829,1
1049.0,2171,2320,1831,1
1050.0,2174,2319,1842,1
1051.0,2174,2320,1843,1
1052.0,2165,2321,1845,1
1053.0,2177,2324,1836,1
1054.0,2199,2331,1801,1
1055.0,2213,2347,1796,1
1056.0,2214,2356,1802,1
1057.0,2224,2333,1803,1
1058.0,2214,2335,1808,1
1059.0,2200,2348,1832,1
1060.0,2181,2338,1849,1
1061.0,2163,2315,1847,1
1062.0,2162,2310,1849,1
1063.0,2167,2299,1856,1
1064.0,2169,2308,1860,1
1065.0,2177,2309,1867,1
1066.0,2187,2315,1846,1
1067.0,2184,2319,1834,1
1068.0,2194,2329,1825,1
1069.0,2192,2335,1807,1
1070.0,2183,2342,1802,1
1071.0,2175,2336,1813,1
1072.0,2189,2328,1807,1
1073.0,2192,2327,1814,1
1074.0,2186,2327,1820,1
1075.0,2189,2336,1823,1
1076.0,2184,2346,1830,1
1077.0,2183,2343,1829,1
1078.0,2173,2331,1848,1
1079.0,2159,2306,1859,1
1080.0,2153,2283,1847,1
1081.0,2160,2275,1833,1
1082.0,2168,2293,1837,1
1083.0,2185,2296,1820,1
1084.0,2192,2318,1803,1
1085.0,2186,2332,1797,1
1086.0,2180,2359,1786,1
1087.0,2184,2360,1799,1
1088.0,2189,2335,1812,1
1089.0,2190,2322,1784,1
1090.0,2180,2311,1810,1
1091.0,2180,2322,1834,1
1092.0,2184,2319,1848,1
1093.0,2189,2327,1852,1
1094.0,2189,2330,1837,1
1095.0,2185,2335,1848,1
1096.0,2196,2339,1853,1
1097.0,2187,2337,1851,1
1098.0,2189,2346,1840,1
1099.0,2185,2338,1822,1
1100.0,2187,2331,1811,1
1101.0,2187,2321,1819,1
1102.0,2181,2321,1843,1
1103.0,2184,2309,1833,1
1104.0,2182,2325,1838,1
1105.0,2175,2329,1838,1
1106.0,2177,2333,1825,1
1107.0,2192,2339,1819,1
1108.0,2188,2330,1807,1
1109.0,2188,2324,1798,1
1110.0,2177,2326,1807,1
1111.0,2182,2325,1825,1
1112.0,2181,2318,1844,1
1113.0,2181,2316,1849,1
1114.0,2179,2319,1852,1
1115.0,2185,2325,1860,1
1116.0,2185,2323,1844,1
1117.0,2185,2331,1838,1
1118.0,2185,2333,1813,1
1119.0,2180,2323,1805,1
1120.0,2180,2315,1807,1
1121.0,2188,2319,1811,1
1122.0,2191,2318,1810,1
1123.0,2195,2332,1817,1
1124.0,2201,2336,1825,1
1125.0,2195,2327,1834,1
1126.0,2197,2319,1841,1
1127.0,2183,2327,1848,1
1128.0,2184,2336,1851,1
1129.0,2187,2331,1850,1
1130.0,2187,2327,1852,1
1131.0,2186,2319,1849,1
1132.0,2181,2326,1839,1
1133.0,2186,2328,1838,1
1134.0,2186,2331,1834,1
1135.0,2190,2330,1825,1
1136.0,2181,2326,1819,1
1137.0,2187,2327,1822,1
1138.0,2184,2329,1813,1
1139.0,2180,2331,1821,1
1140.0,2182,2332,1816,1
1141.0,2176,2336,1820,1
1142.0,2178,2329,1810,1
1143.0,2186,2331,1815,1
1144.0,2188,2322,1813,1
1145.0,2188,2325,1822,1
1146.0,2189,2322,1822,1
1147.0,2182,2323,1831,1
1148.0,2182,2327,1834,1
1149.0,2176,2333,1831,1
1150.0,2179,2330,1829,1
1151.0,2181,2324,1833,1
1152.0,2176,2321,1831,1
1153.0,2176,2321,1833,1
1154.0,2175,2316,1833,1
1155.0,2173,2317,1831,1
1156.0,2168,2320,1825,1
1157.0,2167,2323,1829,1
1158.0,2158,2325,1823,1
1159.0,2166,2333,1809,1
1160.0,2169,2327,1797,1
1161.0,2165,2317,1790,1
1162.0,2164,2307,1798,1
1163.0,2160,2320,1801,1
1164.0,2165,2321,1806,1
1165.0,2165,2311,1817,1
1166.0,2159,2320,1825,1
1167.0,2159,2315,1828,1
1168.0,2161,2308,1832,1
1169.0,2162,2307,1819,1
1170.0,2149,2317,1812,1
1171.0,2154,2313,1809,1
1172.0,2156,2319,1801,1
1173.0,2169,2318,1799,1
1174.0,2173,2319,1796,1
1175.0,2174,2327,1807,1
1176.0,2170,2329,1811,1
1177.0,2173,2331,1822,1
1178.0,2178,2323,1814,1
1179.0,2174,2324,1817,1
1180.0,2178,2324,1813,1
1181.0,2169,2331,1817,1
1182.0,2175,2328,1813,1
1183.0,2166,2326,1810,1
1184.0,2169,2325,1819,1
1185.0,2160,2316,1820,1
1186.0,2152,2315,1814,1
1187.0,2154,2309,1817,1
1188.0,2162,2303,1806,1
1189.0,2161,2313,1803,1
1190.0,2164,2318,1832,1
1191.0,2163,2318,1832,1
1192.0,2164,2318,1829,1
1193.0,2166,2319,1827,1
1194.0,2161,2317,1823,1
1195.0,2160,2315,1825,1
1196.0,2155,2318,1818,1
1197.0,2152,2322,1811,1
1198.0,2164,2313,1798,1
1199.0,2174,2306,1801,1
1200.0,2172,2321,1790,1
1201.0,2168,2326,1787,1
1202.0,2154,2335,1796,1
1203.0,2169,2327,1812,1
1204.0,2170,2316,1804,1
1205.0,2159,2322,1796,1
1206.0,2166,2313,1813,1
1207.0,2166,2313,1828,1
1208.0,2165,2324,1825,1
1209.0,2166,2325,1811,1
1210.0,2163,2325,1805,1
1211.0,2166,2324,1798,1
1212.0,2163,2324,1799,1
1213.0,2168,2321,1803,1
1214.0,2160,2320,1804,1
1215.0,2157,2311,1812,1
1216.0,2160,2319,1816,1
1217.0,2163,2316,1819,1
1218.0,2162,2309,1822,1
1219.0,2161,2315,1812,1
1220.0,2165,2312,1800,1
1221.0,2167,2315,1799,1
1222.0,2166,2321,1807,1
1223.0,2171,2323,1803,1
1224.0,2174,2329,1794,1
1225.0,2162,2335,1775,1
1226.0,2184,2321,1764,1
1227.0,2174,2314,1770,1
1228.0,2154,2331,1791,1
1229.0,2160,2322,1809,1
1230.0,2148,2320,1842,1
1231.0,2167,2324,1851,1
1232.0,2158,2324,1862,1
1233.0,2172,2324,1852,1
1234.0,2169,2326,1866,1
1235.0,2181,2314,1863,1
1236.0,2171,2316,1835,1
1237.0,2177,2313,1810,1
1238.0,2170,2309,1793,1
1239.0,2169,2301,1780,1
1240.0,2168,2298,1769,1
1241.0,2172,2305,1767,1
1242.0,2158,2319,1794,1
1243.0,2164,2326,1807,1
1244.0,2161,2321,1817,1
1245.0,2163,2326,1805,1
1246.0,2163,2326,1811,1
1247.0,2174,2327,1815,1
1248.0,2179,2316,1800,1
1249.0,2173,2318,1783,1
1250.0,2166,2320,1809,1
1251.0,2161,2325,1836,1
1252.0,2170,2335,1836,1
1253.0,2173,2323,1820,1
1254.0,2172,2322,1805,1
1255.0,2174,2321,1798,1
1256.0,2161,2320,1804,1
1257.0,2163,2311,1806,1
1258.0,2151,2315,1809,1
1259.0,2156,2315,1805,1
1260.0,2166,2316,1817,1
1261.0,2175,2319,1799,1
1262.0,2166,2312,1796,1
1263.0,2169,2313,1800,1
1264.0,2159,2312,1803,1
1265.0,2167,2322,1806,1
1266.0,2168,2317,1808,1
1267.0,2162,2312,1807,1
1268.0,2157,2308,1799,1
1269.0,2157,2319,1810,1
1270.0,2159,2319,1816,1
1271.0,2165,2322,1810,1
1272.0,2172,2315,1811,1
1273.0,2171,2318,1804,1
1274.0,2168,2318,1806,1
1275.0,2165,2324,1813,1
1276.0,2160,2325,1817,1
1277.0,2166,2330,1815,1
1278.0,2167,2330,1819,1
1279.0,2168,2334,1816,1
1280.0,2167,2334,1819,1
1281.0,2169,2327,1813,1
1282.0,2171,2318,1806,1
1283.0,2170,2321,1807,1
1284.0,2166,2315,1814,1
1285.0,2158,2319,1817,1
1286.0,2167,2313,1813,1
1287.0,2162,2315,1805,1
1288.0,2166,2318,1813,1
1289.0,2168,2324,1815,1
1290.0,2165,2320,1811,1
1291.0,2169,2325,1810,1
1292.0,2166,2332,1807,1
1293.0,2161,2328,1808,1
1294.0,2174,2320,1801,1
1295.0,2169,2319,1810,1
1296.0,2163,2319,1812,1
1297.0,2163,2307,1827,1
1298.0,2164,2316,1821,1
1299.0,2166,2318,1820,1
1300.0,2159,2316,1810,1
1301.0,2173,2312,1806,1
1302.0,2179,2317,1811,1
1303.0,2182,2327,1808,1
1304.0,2167,2337,1801,1
1305.0,2162,2357,1800,1
1306.0,2164,2335,1809,1
1307.0,2167,2325,1806,1
1308.0,2171,2319,1806,1
1309.0,2166,2324,1813,1
1310.0,2159,2312,1824,1
1311.0,2164,2306,1832,1
1312.0,2172,2309,1820,1
1313.0,2163,2321,1810,1
1314.0,2169,2320,1818,1
1315.0,2171,2319,1812,1
1316.0,2165,2319,1809,1
1317.0,2169,2322,1792,1
1318.0,2159,2324,1789,1
1319.0,2167,2319,1794,1
1320.0,2175,2309,1805,1
1321.0,2170,2320,1811,1
1322.0,2164,2317,1819,1
1323.0,2161,2308,1823,1
1324.0,2165,2316,1828,1
1325.0,2165,2323,1819,1
1326.0,2178,2321,1810,1
1327.0,2177,2324,1799,1
1328.0,2171,2319,1805,1
1329.0,2172,2313,1803,1
1330.0,2176,2320,1805,1
1331.0,2168,2312,1795,1
1332.0,2165,2315,1809,1
1333.0,2162,2321,1822,1
1334.0,2167,2321,1814,1
1335.0,2171,2318,1818,1
1336.0,2171,2321,1821,1
1337.0,2177,2321,1811,1
1338.0,2176,2319,1809,1
1339.0,2177,2319,1812,1
1340.0,2169,2317,1806,1
1341.0,2173,2314,1801,1
1342.0,2169,2314,1786,1
1343.0,2171,2310,1787,1
1344.0,2167,2317,1801,1
1345.0,2170,2318,1814,1
1346.0,2169,2319,1817,1
1347.0,2162,2317,1820,1
1348.0,2170,2321,1824,1
1349.0,2171,2325,1827,1
1350.0,2169,2319,1821,1
1351.0,2166,2319,1819,1
1352.0,2168,2313,1810,1
1353.0,2172,2313,1801,1
1354.0,2177,2309,1786,1
1355.0,2179,2312,1788,1
1356.0,2170,2319,1786,1
1357.0,2169,2319,1793,1
1358.0,2167,2315,1801,1
1359.0,2172,2319,1816,1
1360.0,2178,2319,1814,1
1361.0,2175,2319,1815,1
1362.0,2165,2315,1821,1
1363.0,2164,2312,1820,1
1364.0,2169,2313,1817,1
1365.0,2168,2309,1807,1
1366.0,2168,2314,1789,1
1367.0,2179,2317,1782,1
1368.0,2174,2315,1790,1
1369.0,2171,2314,1788,1
1370.0,2167,2320,1801,1
1371.0,2173,2315,1816,1
1372.0,2173,2313,1817,1
1373.0,2169,2310,1817,1
1374.0,2172,2315,1815,1
1375.0,2171,2314,1817,1
1376.0,2174,2305,1819,1
1377.0,2176,2316,1804,1
1378.0,2171,2312,1804,1
1379.0,2176,2315,1797,1
1380.0,2182,2315,1791,1
1381.0,2183,2319,1793,1
1382.0,2178,2318,1797,1
1383.0,2177,2314,1806,1
1384.0,2171,2313,1812,1
1385.0,2169,2308,1817,1
1386.0,2171,2311,1812,1
1387.0,2179,2308,1814,1
1388.0,2179,2313,1811,1
1389.0,2177,2317,1808,1
1390.0,2177,2317,1812,1
1391.0,2175,2312,1809,1
1392.0,2177,2311,1804,1
1393.0,2172,2313,1803,1
1394.0,2172,2314,1805,1
1395.0,2172,2315,1807,1
1396.0,2175,2316,1804,1
1397.0,2177,2312,1808,1
1398.0,2173,2311,1807,1
1399.0,2173,2309,1805,1
1400.0,2174,2311,1811,1
1401.0,2171,2312,1810,1
1402.0,2170,2312,1802,1
1403.0,2172,2313,1804,1
1404.0,2174,2311,1807,1
1405.0,2171,2312,1804,1
1406.0,2170,2317,1804,1
1407.0,2169,2309,1804,1
1408.0,2173,2315,1807,1
1409.0,2176,2318,1808,1
1410.0,2175,2312,1794,1
1411.0,2173,2314,1803,1
1412.0,2171,2318,1814,1
1413.0,2172,2315,1806,1
1414.0,2167,2314,1805,1
1415.0,2166,2316,1807,1
1416.0,2175,2309,1803,1
1417.0,2171,2308,1805,1
1418.0,2173,2319,1803,1
1419.0,2178,2314,1799,1
1420.0,2176,2310,1802,1
1421.0,2173,2313,1806,1
1422.0,2173,2310,1811,1
1423.0,2170,2322,1804,1
1424.0,2178,2311,1804,1
1425.0,2171,2313,1808,1
1426.0,2170,2312,1808,1
1427.0,2173,2310,1811,1
1428.0,2178,2317,1806,1
1429.0,2174,2312,1808,1
1430.0,2166,2318,1805,1
1431.0,2173,2309,1802,1
1432.0,2172,2316,1807,1
1433.0,2174,2316,1806,1
1434.0,2170,2310,1804,1
1435.0,2173,2314,1802,1
1436.0,2170,2314,1813,1
1437.0,2175,2313,1807,1
1438.0,2171,2315,1797,1
1439.0,2172,2310,1803,1
1440.0,2175,2320,1807,1
1441.0,2178,2317,1798,1
1442.0,2170,2313,1806,1
1443.0,2174,2309,1803,1
1444.0,2172,2317,1805,1
1445.0,2168,2316,1807,1
1446.0,2170,2311,1807,1
1447.0,2173,2307,1802,1
1448.0,2173,2312,1804,1
1449.0,2173,2315,1805,1
1450.0,2180,2316,1798,1
1451.0,2173,2313,1804,1
1452.0,2176,2317,1799,1
1453.0,2166,2316,1806,1
1454.0,2169,2307,1809,1
1455.0,2173,2307,1806,1
1456.0,2173,2315,1805,1
1457.0,2171,2311,1804,1
1458.0,2177,2314,1805,1
1459.0,2171,2314,1799,1
1460.0,2172,2313,1806,1
1461.0,2171,2315,1805,1
1462.0,2172,2312,1807,1
1463.0,2171,2311,1803,1
1464.0,2175,2314,1807,1
1465.0,2168,2315,1810,1
1466.0,2173,2315,1804,1
1467.0,2167,2316,1803,1
1468.0,2171,2313,1802,1
1469.0,2178,2313,1800,1
1470.0,2174,2310,1800,1
1471.0,2163,2312,1807,1
1472.0,2167,2314,1807,1
1473.0,2176,2311,1811,1
1474.0,2177,2312,1804,1
1475.0,2167,2314,1806,1
1476.0,2171,2314,1808,1
1477.0,2171,2316,1807,1
1478.0,2174,2312,1808,1
1479.0,2171,2317,1802,1
1480.0,2172,2313,1804,1
1481.0,2166,2310,1806,1
1482.0,2169,2309,1811,1
1483.0,2170,2315,1809,1
1484.0,2171,2315,1807,1
1485.0,2176,2312,1807,1
1486.0,2173,2318,1803,1
1487.0,2162,2317,1806,1
1488.0,2167,2310,1809,1
1489.0,2170,2314,1810,1
1490.0,2170,2314,1804,1
1491.0,2171,2316,1807,1
1492.0,2174,2319,1795,1
1493.0,2173,2317,1793,1
1494.0,2173,2313,1803,1
1495.0,2174,2307,1809,1
1496.0,2163,2315,1815,1
1497.0,2169,2311,1812,1
1498.0,2162,2321,1811,1
1499.0,2174,2310,1808,1
1500.0,2178,2316,1802,1
1501.0,2168,2311,1791,1
1502.0,2169,2320,1806,1
1503.0,2166,2317,1816,1
1504.0,2170,2307,1810,1
1505.0,2174,2307,1804,1
1506.0,2168,2306,1809,1
1507.0,2173,2319,1809,1
1508.0,2170,2318,1807,1
1509.0,2170,2313,1810,1
1510.0,2167,2314,1798,1
1511.0,2159,2317,1789,1
1512.0,2167,2312,1794,1
1513.0,2169,2311,1799,1
1514.0,2167,2310,1798,1
1515.0,2172,2309,1798,1
1516.0,2170,2315,1806,1
1517.0,2172,2309,1808,1
1518.0,2166,2310,1812,1
1519.0,2169,2309,1818,1
1520.0,2164,2308,1813,1
1521.0,2171,2311,1807,1
1522.0,2171,2317,1799,1
1523.0,2177,2316,1798,1
1524.0,2172,2317,1793,1
1525.0,2171,2318,1789,1
1526.0,2168,2316,1798,1
1527.0,2169,2314,1803,1
1528.0,2174,2314,1810,1
1529.0,2169,2315,1817,1
1530.0,2170,2318,1810,1
1531.0,2170,2318,1809,1
1532.0,2169,2315,1809,1
1533.0,2169,2313,1810,1
1534.0,2169,2312,1810,1
1535.0,2165,2309,1808,1
1536.0,2165,2310,1807,1
1537.0,2168,2314,1806,1
1538.0,2170,2313,1801,1
1539.0,2177,2313,1807,1
1540.0,2169,2312,1803,1
1541.0,2171,2310,1800,1
1542.0,2164,2309,1804,1
1543.0,2173,2320,1802,1
1544.0,2171,2319,1810,1
1545.0,2172,2315,1805,1
1546.0,2177,2314,1807,1
1547.0,2166,2308,1812,1
1548.0,2169,2312,1816,1
1549.0,2163,2309,1819,1
1550.0,2166,2315,1806,1
1551.0,2175,2317,1791,1
1552.0,2173,2314,1799,1
1553.0,2169,2316,1792,1
1554.0,2174,2306,1794,1
1555.0,2173,2311,1806,1
1556.0,2165,2319,1813,1
1557.0,2165,2309,1809,1
1558.0,2167,2309,1816,1
1559.0,2171,2318,1806,1
1560.0,2170,2313,1804,1
1561.0,2171,2316,1795,1
1562.0,2170,2320,1797,1
1563.0,2178,2309,1802,1
1564.0,2168,2315,1807,1
1565.0,2163,2316,1807,1
1566.0,2171,2314,1809,1
1567.0,2174,2314,1812,1
1568.0,2171,2311,1812,1
1569.0,2172,2311,1815,1
1570.0,2171,2315,1809,1
1571.0,2171,2314,1797,1
1572.0,2172,2313,1799,1
1573.0,2176,2314,1799,1
1574.0,2172,2306,1794,1
1575.0,2162,2306,1799,1
1576.0,2170,2316,1809,1
1577.0,2167,2311,1811,1
1578.0,2172,2316,1806,1
1579.0,2168,2310,1804,1
1580.0,2169,2311,1812,1
1581.0,2171,2313,1807,1
1582.0,2169,2313,1806,1
1583.0,2169,2308,1801,1
1584.0,2168,2315,1805,1
1585.0,2172,2316,1806,1
1586.0,2172,2316,1805,1
1587.0,2171,2307,1797,1
1588.0,2170,2317,1803,1
1589.0,2174,2314,1801,1
1590.0,2166,2308,1807,1
1591.0,2169,2312,1804,1
1592.0,2168,2312,1799,1
1593.0,2175,2309,1802,1
1594.0,2167,2312,1809,1
1595.0,2170,2319,1805,1
1596.0,2173,2311,1810,1
1597.0,2176,2318,1803,1
1598.0,2175,2321,1804,1
1599.0,2177,2312,1801,1
1600.0,2174,2310,1807,1
1601.0,2165,2318,1809,1
1602.0,2164,2315,1807,1
1603.0,2171,2315,1806,1
1604.0,2165,2315,1799,1
1605.0,2170,2312,1802,1
1606.0,2177,2310,1803,1
1607.0,2170,2317,1803,1
1608.0,2176,2312,1805,1
1609.0,2169,2318,1799,1
1610.0,2169,2319,1804,1
1611.0,2172,2311,1807,1
1612.0,2166,2307,1807,1
1613.0,2165,2307,1811,1
1614.0,2175,2308,1802,1
1615.0,2169,2315,1807,1
1616.0,2173,2316,1802,1
1617.0,2168,2311,1805,1
1618.0,2177,2310,1795,1
1619.0,2176,2310,1799,1
1620.0,2170,2312,1801,1
1621.0,2171,2316,1806,1
1622.0,2168,2317,1807,1
1623.0,2177,2309,1805,1
1624.0,2172,2309,1802,1
1625.0,2167,2312,1805,1
1626.0,2171,2309,1798,1
1627.0,2170,2311,1804,1
1628.0,2173,2310,1798,1
1629.0,2169,2312,1804,1
1630.0,2171,2307,1804,1
1631.0,2170,2313,1807,1
1632.0,2171,2306,1805,1
1633.0,2169,2315,1802,1
1634.0,2171,2309,1802,1
1635.0,2174,2311,1806,1
1636.0,2173,2310,1799,1
1637.0,2170,2313,1805,1
1638.0,2172,2310,1809,1
1639.0,2176,2313,1803,1
1640.0,2172,2309,1804,1
1641.0,2169,2318,1792,1
1642.0,2164,2315,1805,1
1643.0,2167,2317,1797,1
1644.0,2163,2315,1808,1
1645.0,2171,2307,1804,1
1646.0,2169,2307,1803,1
1647.0,2174,2308,1803,1
1648.0,2167,2307,1807,1
1649.0,2170,2309,1809,1
1650.0,2171,2313,1805,1
1651.0,2169,2315,1804,1
1652.0,2175,2314,1797,1
1653.0,2176,2313,1800,1
1654.0,2176,2315,1785,1
1655.0,2172,2310,1799,1
1656.0,2170,2313,1805,1
1657.0,2170,2307,1807,1
1658.0,2167,2306,1800,1
1659.0,2173,2309,1805,1
1660.0,2167,2311,1812,1
1661.0,2171,2306,1813,1
1662.0,2173,2307,1807,1
1663.0,2174,2316,1795,1
1664.0,2169,2316,1797,1
1665.0,2177,2315,1796,1
1666.0,2173,2311,1795,1
1667.0,2163,2310,1798,1
1668.0,2166,2314,1808,1
1669.0,2172,2320,1814,1
1670.0,2171,2310,1806,1
1671.0,2175,2320,1801,1
1672.0,2166,2311,1801,1
1673.0,2168,2312,1803,1
1674.0,2170,2311,1804,1
1675.0,2170,2312,1801,1
1676.0,2164,2314,1804,1
1677.0,2169,2315,1798,1
1678.0,2168,2315,1805,1
1679.0,2168,2308,1800,1
1680.0,2167,2320,1804,1
1681.0,2169,2317,1804,1
1682.0,2167,2315,1804,1
1683.0,2169,2316,1799,1
1684.0,2165,2315,1807,1
1685.0,2166,2312,1807,1
1686.0,2161,2313,1805,1
1687.0,2167,2315,1805,1
1688.0,2171,2322,1805,1
1689.0,2171,2316,1809,1
1690.0,2171,2313,1807,1
1691.0,2167,2320,1802,1
1692.0,2172,2313,1807,1
1693.0,2175,2313,1809,1
1694.0,2171,2313,1806,1
1695.0,2167,2312,1805,1
1696.0,2168,2313,1809,1
1697.0,2169,2313,1805,1
1698.0,2168,2319,1806,1
1699.0,2162,2319,1805,1
1700.0,2168,2317,1804,1
1701.0,2167,2316,1805,1
1702.0,2167,2315,1807,1
1703.0,2165,2316,1807,1
1704.0,2164,2316,1807,1
1705.0,2172,2317,1798,1
1706.0,2162,2314,1805,1
1707.0,2172,2313,1806,1
1708.0,2174,2313,1796,1
1709.0,2163,2321,1806,1
1710.0,2171,2318,1806,1
1711.0,2169,2314,1810,1
1712.0,2174,2317,1808,1
1713.0,2170,2311,1800,1
1714.0,2165,2321,1795,1
1715.0,2166,2311,1798,1
1716.0,2169,2313,1803,1
1717.0,2170,2314,1800,1
1718.0,2168,2313,1803,1
1719.0,2163,2312,1802,1
1720.0,2168,2318,1802,1
1721.0,2170,2314,1804,1
1722.0,2167,2312,1801,1
1723.0,2169,2312,1798,1
1724.0,2167,2315,1806,1
1725.0,2166,2316,1807,1
1726.0,2169,2315,1804,1
1727.0,2166,2315,1802,1
1728.0,2166,2319,1798,1
1729.0,2172,2316,1808,1
1730.0,2169,2311,1806,1
1731.0,2174,2312,1801,1
1732.0,2172,2312,1804,1
1733.0,2170,2315,1810,1
1734.0,2171,2319,1806,1
1735.0,2167,2312,1810,1
1736.0,2170,2316,1808,1
1737.0,2174,2318,1798,1
1738.0,2169,2312,1796,1
1739.0,2169,2309,1800,1
1740.0,2169,2316,1801,1
1741.0,2163,2310,1808,1
1742.0,2165,2313,1802,1
1743.0,2169,2310,1801,1
1744.0,2169,2318,1802,1
1745.0,2173,2313,1804,1
1746.0,2171,2314,1807,1
1747.0,2170,2313,1802,1
1748.0,2164,2313,1805,1
1749.0,2166,2319,1807,1
1750.0,2170,2314,1806,1
1751.0,2169,2312,1797,1
1752.0,2169,2317,1802,1
1753.0,2165,2319,1809,1
1754.0,2170,2318,1803,1
1755.0,2167,2319,1797,1
1756.0,2162,2317,1804,1
1757.0,2167,2318,1809,1
1758.0,2168,2315,1801,1
1759.0,2163,2319,1798,1
1760.0,2167,2322,1806,1
1761.0,2160,2314,1814,1
1762.0,2163,2319,1812,1
1763.0,2162,2327,1808,1
1764.0,2168,2315,1804,1
1765.0,2167,2312,1807,1
1766.0,2171,2317,1807,1
1767.0,2167,2312,1805,1
1768.0,2171,2322,1787,1
1769.0,2167,2321,1786,1
1770.0,2161,2323,1810,1
1771.0,2175,2314,1811,1
1772.0,2166,2319,1815,1
1773.0,2164,2307,1808,1
1774.0,2170,2315,1822,1
1775.0,2164,2315,1829,1
1776.0,2166,2323,1807,1
1777.0,2169,2312,1805,1
1778.0,2163,2318,1800,1
1779.0,2165,2321,1791,1
1780.0,2168,2315,1788,1
1781.0,2169,2313,1792,1
1782.0,2168,2311,1807,1
1783.0,2163,2313,1809,1
1784.0,2166,2311,1797,1
1785.0,2163,2312,1801,1
1786.0,2163,2311,1815,1
1787.0,2177,2318,1815,1
1788.0,2164,2310,1798,1
1789.0,2165,2314,1803,1
1790.0,2163,2317,1813,1
1791.0,2162,2311,1806,1
1792.0,2162,2319,1808,1
1793.0,2169,2323,1809,1
1794.0,2173,2322,1798,1
1795.0,2167,2317,1796,1
1796.0,2161,2321,1793,1
1797.0,2156,2319,1802,1
1798.0,2159,2308,1815,1
1799.0,2168,2309,1818,1
1800.0,2170,2308,1812,1
1801.0,2167,2317,1809,1
1802.0,2170,2316,1800,1
1803.0,2171,2319,1802,1
1804.0,2172,2317,1807,1
1805.0,2168,2315,1801,1
1806.0,2161,2312,1786,1
1807.0,2164,2313,1791,1
1808.0,2162,2312,1801,1
1809.0,2163,2308,1812,1
1810.0,2164,2316,1816,1
1811.0,2165,2321,1808,1
1812.0,2169,2314,1803,1
1813.0,2168,2316,1798,1
1814.0,2171,2314,1815,1
1815.0,2168,2315,1818,1
1816.0,2167,2312,1800,1
1817.0,2169,2311,1796,1
1818.0,2177,2317,1805,1
1819.0,2160,2319,1801,1
1820.0,2161,2322,1799,1
1821.0,2163,2315,1810,1
1822.0,2165,2316,1808,1
1823.0,2166,2312,1799,1
1824.0,2173,2315,1794,1
1825.0,2160,2306,1807,1
1826.0,2155,2307,1808,1
1827.0,2162,2313,1809,1
1828.0,2174,2312,1798,1
1829.0,2178,2311,1799,1
1830.0,2171,2323,1789,1
1831.0,2169,2315,1800,1
1832.0,2155,2323,1818,1
1833.0,2176,2314,1823,1
1834.0,2186,2321,1819,1
1835.0,2182,2324,1836,1
1836.0,2179,2317,1851,1
1837.0,2166,2315,1831,1
1838.0,2165,2318,1802,1
1839.0,2167,2321,1779,1
1840.0,2160,2322,1783,1
1841.0,2173,2317,1799,1
1842.0,2183,2323,1798,1
1843.0,2174,2322,1813,1
1844.0,2174,2327,1821,1
1845.0,2164,2314,1825,1
1846.0,2171,2315,1825,1
1847.0,2169,2320,1823,1
1848.0,2174,2317,1805,1
1849.0,2172,2322,1802,1
1850.0,2172,2316,1791,1
1851.0,2171,2318,1792,1
1852.0,2168,2321,1809,1
1853.0,2170,2315,1810,1
1854.0,2161,2320,1821,1
1855.0,2169,2312,1825,1
1856.0,2168,2321,1818,1
1857.0,2170,2317,1802,1
1858.0,2170,2314,1806,1
1859.0,2171,2319,1805,1
1860.0,2169,2318,1794,1
1861.0,2159,2314,1789,1
1862.0,2161,2317,1804,1
1863.0,2171,2317,1810,1
1864.0,2172,2318,1808,1
1865.0,2167,2322,1816,1
1866.0,2174,2320,1819,1
1867.0,2167,2310,1824,1
1868.0,2172,2315,1799,1
1869.0,2165,2320,1797,1
1870.0,2176,2309,1803,1
1871.0,2176,2309,1805,1
1872.0,2169,2319,1801,1
1873.0,2169,2315,1804,1
1874.0,2171,2319,1814,1
1875.0,2163,2313,1824,1
1876.0,2169,2316,1817,1
1877.0,2165,2311,1809,1
1878.0,2165,2316,1807,1
1879.0,2168,2317,1805,1
1880.0,2179,2318,1793,1
1881.0,2188,2315,1790,1
1882.0,2174,2313,1781,1
1883.0,2170,2312,1797,1
1884.0,2162,2319,1810,1
1885.0,2167,2317,1817,1
1886.0,2156,2310,1815,1
1887.0,2165,2317,1813,1
1888.0,2163,2314,1809,1
1889.0,2162,2319,1804,1
1890.0,2170,2319,1816,1
1891.0,2172,2322,1821,1
1892.0,2171,2321,1799,1
1893.0,2170,2315,1791,1
1894.0,2170,2326,1810,1
1895.0,2174,2317,1811,1
1896.0,2168,2318,1806,1
1897.0,2163,2314,1811,1
1898.0,2165,2311,1822,1
1899.0,2166,2311,1812,1
1900.0,2171,2313,1809,1
1901.0,2171,2315,1809,1
1902.0,2171,2315,1798,1
1903.0,2173,2309,1807,1
1904.0,2165,2315,1802,1
1905.0,2171,2316,1805,1
1906.0,2169,2317,1797,1
1907.0,2174,2327,1806,1
1908.0,2171,2318,1813,1
1909.0,2169,2312,1815,1
1910.0,2171,2320,1810,1
1911.0,2163,2323,1818,1
1912.0,2158,2320,1807,1
1913.0,2158,2317,1809,1
1914.0,2161,2323,1819,1
1915.0,2176,2334,1803,1
1916.0,2175,2337,1804,1
1917.0,2174,2333,1812,1
1918.0,2167,2319,1807,1
1919.0,2167,2313,1803,1
1920.0,2173,2324,1817,1
1921.0,2168,2320,1825,1
1922.0,2166,2311,1819,1
1923.0,2175,2320,1808,1
1924.0,2172,2324,1808,1
1925.0,2170,2328,1815,1
1926.0,2169,2324,1817,1
1927.0,2171,2321,1808,1
1928.0,2167,2318,1804,1
1929.0,2171,2325,1810,1
1930.0,2164,2324,1816,1
1931.0,2166,2317,1815,1
1932.0,2164,2319,1811,1
1933.0,2161,2312,1810,1
1934.0,2157,2319,1810,1
1935.0,2161,2320,1806,1
1936.0,2168,2317,1813,1
1937.0,2163,2313,1811,1
1938.0,2158,2314,1811,1
1939.0,2163,2318,1808,1
1940.0,2166,2320,1817,1
1941.0,2177,2321,1816,1
1942.0,2169,2322,1807,1
1943.0,2166,2323,1806,1
1944.0,2169,2320,1811,1
1945.0,2165,2320,1811,1
1946.0,2165,2317,1816,1
1947.0,2162,2326,1820,1
1948.0,2167,2315,1815,1
1949.0,2160,2318,1811,1
1950.0,2169,2317,1812,1
1951.0,2170,2321,1807,1
1952.0,2171,2327,1807,1
1953.0,2168,2324,1799,1
1954.0,2168,2322,1812,1
1955.0,2172,2318,1810,1
1956.0,2170,2316,1805,1
1957.0,2170,2323,1805,1
1958.0,2164,2323,1814,1
1959.0,2164,2321,1815,1
1960.0,2163,2319,1818,1
1961.0,2167,2319,1819,1
1962.0,2169,2320,1812,1
1963.0,2172,2319,1811,1
1964.0,2171,2322,1810,1
1965.0,2165,2321,1809,1
1966.0,2169,2324,1820,1
1967.0,2176,2323,1809,1
1968.0,2173,2329,1804,1
1969.0,2166,2324,1804,1
1970.0,2166,2327,1815,1
1971.0,2158,2315,1805,1
1972.0,2164,2323,1818,1
1973.0,2166,2323,1822,1
1974.0,2172,2314,1826,1
1975.0,2174,2311,1808,1
1976.0,2166,2330,1826,1
1977.0,2162,2319,1829,1
1978.0,2166,2315,1812,1
1979.0,2165,2318,1811,1
1980.0,2164,2317,1807,1
1981.0,2157,2316,1807,1
1982.0,2162,2325,1815,1
1983.0,2162,2332,1816,1
1984.0,2163,2329,1812,1
1985.0,2158,2316,1812,1
1986.0,2157,2313,1820,1
1987.0,2163,2305,1827,1
1988.0,2155,2297,1825,1
1989.0,2146,2297,1823,1
1990.0,2152,2310,1816,1
1991.0,2149,2308,1804,1
1992.0,2141,2299,1805,1
1993.0,2131,2275,1797,1
1994.0,2130,2272,1786,1
1995.0,2141,2273,1803,1
1996.0,2145,2288,1840,1
1997.0,2160,2299,1845,1
1998.0,2155,2313,1844,1
1999.0,2187,2334,1818,1
2000.0,2208,2381,1818,1
2001.0,2237,2410,1819,1
2002.0,2214,2388,1837,1
2003.0,2205,2387,1848,1
2004.0,2224,2377,1864,1
2005.0,2217,2372,1866,1
2006.0,2214,2392,1885,1
2007.0,2234,2387,1895,1
2008.0,2224,2359,1892,1
2009.0,2236,2334,1889,1
2010.0,2254,2326,1900,1
2011.0,2296,2360,1941,1
2012.0,2276,2370,1930,1
2013.0,2246,2354,1891,1
2014.0,2228,2327,1864,1
2015.0,2223,2333,1856,1
2016.0,2214,2317,1858,1
2017.0,2224,2307,1842,1
2018.0,2201,2308,1836,1
2019.0,2192,2307,1839,1
2020.0,2191,2337,1839,1
2021.0,2179,2343,1864,1
2022.0,2178,2350,1871,1
2023.0,2166,2338,1848,1
2024.0,2153,2326,1825,1
2025.0,2137,2310,1804,1
2026.0,2144,2308,1795,1
2027.0,2160,2294,1791,1
2028.0,2180,2315,1824,1
2029.0,2175,2312,1837,1
2030.0,2162,2300,1822,1
2031.0,2170,2289,1822,1
2032.0,2162,2281,1801,1
2033.0,2171,2299,1804,1
2034.0,2176,2320,1824,1
2035.0,2176,2337,1845,1
2036.0,2184,2368,1874,1
2037.0,2198,2371,1856,1
2038.0,2196,2374,1868,1
2039.0,2202,2367,1870,1
2040.0,2215,2343,1851,1
2041.0,2217,2342,1852,1
2042.0,2216,2341,1849,1
2043.0,2218,2342,1851,1
2044.0,2219,2341,1849,1
2045.0,2220,2339,1847,1
2046.0,2219,2341,1848,1
2047.0,2207,2339,1841,1
2048.0,2221,2338,1832,1
2049.0,2216,2348,1831,1
2050.0,2213,2350,1833,1
2051.0,2193,2338,1836,1
2052.0,2188,2313,1818,1
2053.0,2179,2302,1814,1
2054.0,2173,2296,1790,1
2055.0,2178,2303,1806,1
2056.0,2188,2307,1804,1
2057.0,2170,2300,1820,1
2058.0,2168,2304,1829,1
2059.0,2171,2308,1842,1
2060.0,2173,2320,1842,1
2061.0,2175,2314,1837,1
2062.0,2171,2314,1834,1
2063.0,2174,2305,1806,1
2064.0,2181,2304,1798,1
2065.0,2184,2305,1799,1
2066.0,2177,2306,1816,1
2067.0,2172,2317,1816,1
2068.0,2169,2313,1816,1
2069.0,2166,2314,1812,1
2070.0,2171,2311,1827,1
2071.0,2166,2317,1827,1
2072.0,2165,2320,1833,1
2073.0,2173,2319,1833,1
2074.0,2173,2311,1818,1
2075.0,2185,2319,1808,1
2076.0,2181,2312,1814,1
2077.0,2185,2321,1808,1
2078.0,2184,2329,1807,1
2079.0,2189,2334,1809,1
2080.0,2181,2341,1819,1
2081.0,2177,2327,1826,1
2082.0,2176,2318,1835,1
2083.0,2174,2320,1819,1
2084.0,2176,2327,1814,1
2085.0,2176,2330,1833,1
2086.0,2175,2329,1834,1
2087.0,2178,2331,1831,1
2088.0,2178,2332,1829,1
2089.0,2181,2327,1825,1
2090.0,2183,2327,1823,1
2091.0,2179,2333,1826,1
2092.0,2189,2339,1823,1
2093.0,2177,2331,1822,1
2094.0,2179,2335,1831,1
2095.0,2178,2334,1831,1
2096.0,2174,2333,1832,1
2097.0,2178,2333,1828,1
2098.0,2174,2332,1824,1
2099.0,2174,2331,1821,1
2100.0,2172,2321,1815,1
2101.0,2170,2328,1819,1
2102.0,2166,2332,1828,1
2103.0,2165,2327,1815,1
2104.0,2157,2326,1809,1
2105.0,2163,2335,1824,1
2106.0,2158,2337,1820,1
2107.0,2164,2334,1819,1
2108.0,2161,2337,1820,1
2109.0,2162,2347,1826,1
2110.0,2154,2329,1821,1
2111.0,2159,2326,1821,1
2112.0,2162,2323,1826,1
2113.0,2160,2318,1823,1
2114.0,2159,2323,1820,1
2115.0,2165,2324,1823,1
2116.0,2161,2326,1818,1
2117.0,2160,2331,1817,1
2118.0,2157,2334,1814,1
2119.0,2156,2329,1815,1
2120.0,2152,2330,1809,1
2121.0,2152,2329,1813,1
2122.0,2152,2321,1810,1
2123.0,2153,2321,1814,1
2124.0,2143,2329,1813,1
2125.0,2154,2321,1813,1
2126.0,2151,2323,1814,1
2127.0,2149,2323,1813,1
2128.0,2144,2321,1808,1
2129.0,2150,2319,1811,1
2130.0,2152,2322,1809,1
2131.0,2150,2329,1807,1
2132.0,2149,2327,1815,1
2133.0,2158,2329,1808,1
2134.0,2157,2332,1809,1
2135.0,2154,2323,1809,1
2136.0,2148,2325,1816,1
2137.0,2148,2324,1815,1
2138.0,2150,2331,1813,1
2139.0,2150,2328,1811,1
2140.0,2157,2327,1816,1
2141.0,2151,2330,1811,1
2142.0,2154,2329,1811,1
2143.0,2155,2331,1814,1
2144.0,2149,2331,1815,1
2145.0,2148,2335,1813,1
2146.0,2152,2329,1815,1
2147.0,2147,2327,1812,1
2148.0,2150,2332,1823,1
2149.0,2152,2325,1814,1
2150.0,2155,2333,1809,1
2151.0,2155,2329,1806,1
2152.0,2157,2326,1808,1
2153.0,2155,2331,1812,1
2154.0,2147,2330,1819,1
2155.0,2152,2334,1817,1
2156.0,2151,2333,1820,1
2157.0,2150,2329,1819,1
2158.0,2152,2334,1812,1
2159.0,2152,2329,1813,1
2160.0,2150,2323,1810,1
2161.0,2152,2330,1810,1
2162.0,2149,2327,1822,1
2163.0,2155,2327,1818,1
2164.0,2151,2323,1819,1
2165.0,2149,2331,1812,1
2166.0,2147,2331,1814,1
2167.0,2149,2328,1815,1
2168.0,2152,2331,1811,1
2169.0,2153,2327,1818,1
2170.0,2150,2327,1818,1
2171.0,2149,2334,1809,1
2172.0,2154,2331,1818,1
2173.0,2153,2328,1816,1
2174.0,2155,2331,1814,1
2175.0,2157,2327,1815,1
2176.0,2145,2331,1816,1
2177.0,2149,2327,1809,1
2178.0,2151,2326,1817,1
2179.0,2154,2325,1816,1
2180.0,2150,2333,1814,1
2181.0,2153,2336,1809,1
2182.0,2153,2331,1811,1
2183.0,2155,2327,1815,1
2184.0,2157,2328,1811,1
2185.0,2151,2335,1819,1
2186.0,2151,2327,1817,1
2187.0,2152,2332,1810,1
2188.0,2155,2327,1811,1
2189.0,2153,2330,1811,1
2190.0,2144,2331,1810,1
2191.0,2154,2328,1809,1
2192.0,2156,2327,1810,1
2193.0,2156,2329,1813,1
2194.0,2152,2329,1811,1
2195.0,2152,2328,1815,1
2196.0,2147,2329,1826,1
2197.0,2153,2335,1823,1
2198.0,2154,2323,1812,1
2199.0,2152,2335,1808,1
2200.0,2151,2329,1804,1
2201.0,2152,2333,1811,1
2202.0,2153,2331,1817,1
2203.0,2151,2332,1818,1
2204.0,2151,2329,1812,1
2205.0,2145,2334,1817,1
2206.0,2150,2327,1812,1
2207.0,2147,2328,1810,1
2208.0,2158,2328,1805,1
2209.0,2152,2326,1805,1
2210.0,2153,2329,1819,1
2211.0,2151,2329,1818,1
2212.0,2150,2329,1818,1
2213.0,2152,2329,1816,1
2214.0,2152,2329,1814,1
2215.0,2151,2327,1815,1
2216.0,2153,2327,1813,1
2217.0,2148,2333,1811,1
2218.0,2154,2334,1815,1
2219.0,2153,2326,1810,1
2220.0,2148,2332,1812,1
2221.0,2151,2331,1814,1
2222.0,2155,2329,1811,1
2223.0,2151,2329,1814,1
2224.0,2152,2325,1820,1
2225.0,2149,2324,1816,1
2226.0,2149,2332,1813,1
2227.0,2151,2325,1810,1
2228.0,2153,2330,1812,1
2229.0,2153,2327,1812,1
2230.0,2153,2334,1814,1
2231.0,2151,2326,1816,1
2232.0,2152,2332,1813,1
2233.0,2147,2332,1819,1
2234.0,2155,2330,1820,1
2235.0,2155,2331,1814,1
2236.0,2145,2330,1810,1
2237.0,2151,2327,1815,1
2238.0,2147,2323,1808,1
2239.0,2144,2330,1816,1
2240.0,2152,2332,1813,1
2241.0,2153,2325,1816,1
2242.0,2150,2332,1815,1
2243.0,2154,2335,1815,1
2244.0,2147,2330,1808,1
2245.0,2148,2326,1814,1
2246.0,2149,2331,1818,1
2247.0,2150,2321,1820,1
2248.0,2150,2330,1816,1
2249.0,2152,2332,1821,1
2250.0,2153,2327,1813,1
2251.0,2155,2329,1813,1
2252.0,2154,2330,1806,1
2253.0,2148,2329,1815,1
2254.0,2157,2331,1817,1
2255.0,2147,2331,1813,1
2256.0,2155,2329,1820,1
2257.0,2153,2329,1813,1
2258.0,2153,2328,1810,1
2259.0,2150,2324,1812,1
2260.0,2153,2325,1814,1
2261.0,2157,2329,1815,1
2262.0,2149,2329,1814,1
2263.0,2149,2328,1812,1
2264.0,2154,2331,1816,1
2265.0,2151,2328,1814,1
2266.0,2149,2329,1815,1
2267.0,2154,2331,1814,1
2268.0,2147,2326,1808,1
2269.0,2154,2337,1814,1
2270.0,2152,2326,1815,1
2271.0,2146,2326,1812,1
2272.0,2147,2333,1809,1
2273.0,2145,2337,1812,1
2274.0,2149,2328,1818,1
2275.0,2145,2328,1819,1
2276.0,2149,2332,1814,1
2277.0,2148,2334,1816,1
2278.0,2148,2326,1815,1
2279.0,2153,2333,1815,1
2280.0,2148,2334,1809,1
2281.0,2145,2329,1811,1
2282.0,2146,2326,1815,1
2283.0,2153,2328,1816,1
2284.0,2150,2326,1812,1
2285.0,2142,2329,1810,1
2286.0,2151,2323,1810,1
2287.0,2150,2328,1815,1
2288.0,2149,2334,1808,1
2289.0,2154,2326,1807,1
2290.0,2153,2331,1812,1
2291.0,2149,2328,1811,1
2292.0,2159,2327,1813,1
2293.0,2146,2332,1818,1
2294.0,2150,2329,1819,1
2295.0,2149,2333,1811,1
2296.0,2149,2333,1814,1
2297.0,2148,2328,1818,1
2298.0,2153,2333,1816,1
2299.0,2144,2328,1816,1
2300.0,2153,2327,1809,1
2301.0,2148,2327,1814,1
2302.0,2146,2324,1816,1
2303.0,2155,2330,1817,1
2304.0,2154,2328,1818,1
2305.0,2148,2329,1812,1
2306.0,2155,2327,1816,1
2307.0,2150,2327,1816,1
2308.0,2146,2334,1811,1
2309.0,2145,2331,1810,1
2310.0,2153,2325,1814,1
2311.0,2146,2324,1814,1
2312.0,2146,2327,1808,1
2313.0,2149,2330,1819,1
2314.0,2152,2323,1810,1
2315.0,2151,2332,1812,1
2316.0,2156,2333,1811,1
2317.0,2153,2330,1812,1
2318.0,2154,2331,1814,1
2319.0,2157,2325,1817,1
2320.0,2152,2328,1818,1
2321.0,2150,2324,1811,1
2322.0,2151,2331,1810,1
2323.0,2148,2329,1807,1
2324.0,2147,2330,1809,1
2325.0,2151,2324,1811,1
2326.0,2152,2328,1816,1
2327.0,2148,2325,1811,1
2328.0,2148,2325,1805,1
2329.0,2156,2331,1816,1
2330.0,2158,2329,1808,1
2331.0,2155,2322,1813,1
2332.0,2154,2327,1819,1
2333.0,2153,2333,1816,1
2334.0,2153,2330,1811,1
2335.0,2150,2327,1809,1
2336.0,2150,2327,1810,1
2337.0,2141,2330,1810,1
2338.0,2152,2323,1806,1
2339.0,2150,2328,1816,1
2340.0,2152,2325,1815,1
2341.0,2156,2323,1819,1
2342.0,2149,2330,1828,1
2343.0,2155,2336,1820,1
2344.0,2154,2339,1821,1
2345.0,2155,2335,1818,1
2346.0,2158,2329,1816,1
2347.0,2155,2318,1801,1
2348.0,2154,2325,1794,1
2349.0,2150,2324,1803,1
2350.0,2147,2324,1813,1
2351.0,2143,2320,1811,1
2352.0,2147,2317,1816,1
2353.0,2147,2324,1820,1
2354.0,2147,2319,1817,1
2355.0,2148,2319,1809,1
2356.0,2157,2321,1801,1
2357.0,2155,2326,1802,1
2358.0,2157,2329,1802,1
2359.0,2155,2337,1806,1
2360.0,2156,2329,1809,1
2361.0,2156,2329,1806,1
2362.0,2146,2327,1807,1
2363.0,2149,2327,1819,1
2364.0,2146,2337,1822,1
2365.0,2143,2329,1825,1
2366.0,2147,2324,1823,1
2367.0,2147,2333,1813,1
2368.0,2149,2331,1817,1
2369.0,2154,2331,1805,1
2370.0,2155,2328,1804,1
2371.0,2155,2331,1817,1
2372.0,2152,2328,1813,1
2373.0,2150,2331,1815,1
2374.0,2154,2327,1817,1
2375.0,2156,2326,1822,1
2376.0,2146,2327,1811,1
2377.0,2144,2331,1810,1
2378.0,2143,2329,1818,1
2379.0,2145,2327,1814,1
2380.0,2156,2329,1816,1
2381.0,2154,2329,1815,1
2382.0,2148,2328,1811,1
2383.0,2149,2331,1815,1
2384.0,2152,2325,1813,1
2385.0,2145,2328,1815,1
2386.0,2152,2324,1810,1
2387.0,2155,2330,1815,1
2388.0,2157,2329,1812,1
2389.0,2150,2333,1814,1
2390.0,2160,2332,1819,1
2391.0,2156,2326,1824,1
2392.0,2145,2329,1815,1
2393.0,2152,2319,1813,1
2394.0,2143,2323,1806,1
2395.0,2149,2333,1805,1
2396.0,2151,2329,1814,1
2397.0,2154,2330,1818,1
2398.0,2147,2323,1810,1
2399.0,2150,2324,1803,1
2400.0,2149,2333,1806,1
2401.0,2146,2338,1819,1
2402.0,2159,2331,1823,1
2403.0,2147,2321,1815,1
2404.0,2154,2329,1813,1
2405.0,2147,2322,1812,1
2406.0,2148,2334,1810,1
2407.0,2144,2334,1820,1
2408.0,2149,2329,1822,1
2409.0,2145,2325,1809,1
2410.0,2154,2324,1812,1
2411.0,2147,2323,1807,1
2412.0,2143,2328,1808,1
2413.0,2150,2336,1813,1
2414.0,2147,2335,1819,1
2415.0,2153,2328,1812,1
2416.0,2153,2327,1817,1
2417.0,2154,2331,1816,1
2418.0,2148,2334,1811,1
2419.0,2150,2330,1808,1
2420.0,2153,2326,1806,1
2421.0,2150,2327,1815,1
2422.0,2150,2329,1826,1
2423.0,2155,2323,1807,1
2424.0,2151,2326,1803,1
2425.0,2150,2333,1816,1
2426.0,2149,2329,1814,1
2427.0,2151,2334,1820,1
2428.0,2148,2336,1816,1
2429.0,2154,2326,1814,1
2430.0,2147,2330,1812,1
2431.0,2155,2333,1813,1
2432.0,2152,2326,1807,1
2433.0,2155,2323,1815,1
2434.0,2148,2327,1818,1
2435.0,2147,2323,1813,1
2436.0,2150,2327,1806,1
2437.0,2150,2332,1818,1
2438.0,2153,2335,1827,1
2439.0,2154,2335,1810,1
2440.0,2151,2324,1797,1
2441.0,2152,2322,1815,1
2442.0,2158,2324,1810,1
2443.0,2149,2334,1819,1
2444.0,2151,2333,1818,1
2445.0,2151,2330,1815,1
2446.0,2153,2328,1814,1
2447.0,2155,2329,1812,1
2448.0,2156,2335,1807,1
2449.0,2152,2328,1805,1
2450.0,2159,2335,1812,1
2451.0,2137,2346,1824,1
2452.0,2154,2331,1812,1
2453.0,2138,2323,1810,1
2454.0,2154,2320,1806,1
2455.0,2162,2315,1805,1
2456.0,2157,2326,1817,1
2457.0,2151,2322,1828,1
2458.0,2160,2330,1839,1
2459.0,2149,2315,1800,1
2460.0,2155,2330,1825,1
2461.0,2138,2328,1819,1
2462.0,2156,2312,1804,1
2463.0,2165,2318,1824,1
2464.0,2170,2325,1826,1
2465.0,2176,2319,1810,1
2466.0,2182,2325,1807,1
2467.0,2186,2323,1808,1
2468.0,2175,2316,1812,1
2469.0,2203,2317,1835,1
2470.0,2152,2298,1796,1
2471.0,2198,2315,1857,1
2472.0,2165,2287,1854,1
2473.0,2133,2323,1841,1
2474.0,2156,2336,1834,1
2475.0,2183,2361,1831,1
2476.0,2218,2359,1808,1
2477.0,2192,2340,1780,1
2478.0,2191,2323,1783,1
2479.0,2187,2321,1790,1
2480.0,2195,2319,1796,1
2481.0,2187,2314,1819,1
2482.0,2170,2303,1814,1
2483.0,2231,2317,1838,1
2484.0,2205,2276,1819,1
2485.0,2227,2295,1849,1
2486.0,2217,2284,1826,1
2487.0,2223,2290,1823,1
2488.0,2244,2296,1818,1
2489.0,2242,2289,1782,1
2490.0,2179,2305,1765,1
2491.0,2156,2297,1768,1
2492.0,2173,2273,1778,1
2493.0,2163,2284,1761,1
2494.0,2197,2294,1792,1
2495.0,2224,2284,1795,1
2496.0,2260,2281,1787,1
2497.0,2215,2288,1797,1
2498.0,2211,2269,1817,1
2499.0,2266,2238,1825,1
2500.0,2263,2237,1812,1
2501.0,2216,2260,1806,1
2502.0,2239,2244,1789,1
2503.0,2223,2253,1772,1
2504.0,2230,2244,1769,1
2505.0,2215,2242,1757,1
2506.0,2199,2262,1741,1
2507.0,2219,2230,1798,1
2508.0,2196,2262,1776,1
2509.0,2203,2248,1812,1
2510.0,2201,2226,1794,1
2511.0,2204,2205,1779,1
2512.0,2241,2212,1790,1
2513.0,2243,2268,1761,1
2514.0,2246,2282,1760,1
2515.0,2212,2252,1741,1
2516.0,2158,2238,1697,1
2517.0,2179,2218,1741,1
2518.0,2123,2261,1741,1
2519.0,2185,2195,1763,1
2520.0,2207,2212,1779,1
2521.0,2219,2235,1753,1
2522.0,2276,2237,1799,1
2523.0,2188,2331,1778,1
2524.0,2190,2321,1789,1
2525.0,2235,2269,1813,1
2526.0,2204,2275,1781,1
2527.0,2216,2276,1784,1
2528.0,2229,2244,1797,1
2529.0,2212,2229,1784,1
2530.0,2235,2248,1784,1
2531.0,2228,2269,1780,1
2532.0,2224,2264,1765,1
2533.0,2216,2283,1790,1
2534.0,2213,2278,1782,1
2535.0,2212,2203,1730,1
2536.0,2168,2219,1742,1
2537.0,2171,2265,1788,1
2538.0,2169,2277,1817,1
2539.0,2168,2251,1808,1
2540.0,2190,2280,1800,1
2541.0,2193,2282,1807,1
2542.0,2203,2322,1812,1
2543.0,2219,2306,1818,1
2544.0,2239,2320,1803,1
2545.0,2257,2298,1801,1
2546.0,2237,2314,1808,1
2547.0,2259,2334,1820,1
2548.0,2302,2321,1829,1
2549.0,2341,2267,1798,1
2550.0,2291,2220,1840,1
2551.0,2286,2219,1840,1
2552.0,2284,2222,1839,1
2553.0,2276,2226,1841,1
2554.0,2271,2228,1839,1
2555.0,2270,2232,1834,1
2556.0,2271,2237,1838,1
2557.0,2287,2220,1846,1
2558.0,2295,2221,1843,1
2559.0,2298,2223,1825,1
2560.0,2297,2215,1812,1
2561.0,2271,2200,1788,1
2562.0,2287,2186,1814,1
2563.0,2300,2191,1823,1
2564.0,2293,2264,1807,1
2565.0,2261,2256,1849,1
2566.0,2258,2295,1868,1
2567.0,2251,2275,1856,1
2568.0,2218,2370,1841,1
2569.0,2257,2217,1684,1
2570.0,2248,2319,1901,1
2571.0,2196,2315,1826,1
2572.0,2191,2278,1827,1
2573.0,2135,2269,1852,1
2574.0,2176,2274,1890,1
2575.0,2166,2288,1853,1
2576.0,2177,2287,1812,1
2577.0,2199,2299,1819,1
2578.0,2133,2291,1845,1
2579.0,2128,2286,1842,1
2580.0,2138,2275,1823,1
2581.0,2153,2306,1803,1
2582.0,2160,2334,1841,1
2583.0,2144,2350,1793,1
2584.0,2155,2318,1772,1
2585.0,2149,2313,1797,1
2586.0,2179,2299,1794,1
2587.0,2187,2273,1767,1
2588.0,2166,2265,1772,1
2589.0,2191,2309,1759,1
2590.0,2223,2319,1778,1
2591.0,2229,2378,1777,1
2592.0,2222,2406,1808,1
2593.0,2244,2415,1830,1
2594.0,2269,2373,1847,1
2595.0,2275,2291,1831,1
2596.0,2209,2245,1708,1
2597.0,2220,2290,1743,1
2598.0,2234,2356,1824,1
2599.0,2296,2317,1802,1
2600.0,2275,2310,1811,1
2601.0,2277,2373,1845,1
2602.0,2305,2372,1878,1
2603.0,2245,2345,1831,1
2604.0,2203,2247,1782,1
2605.0,2182,2240,1770,1
2606.0,2197,2209,1767,1
2607.0,2197,2190,1743,1
2608.0,2175,2223,1807,1
2609.0,2163,2218,1827,1
2610.0,2156,2242,1831,1
2611.0,2149,2256,1826,1
2612.0,2195,2277,1827,1
2613.0,2169,2280,1851,1
2614.0,2156,2289,1857,1
2615.0,2160,2305,1860,1
2616.0,2175,2314,1856,1
2617.0,2174,2302,1850,1
2618.0,2156,2304,1841,1
2619.0,2144,2313,1844,1
2620.0,2136,2322,1822,1
2621.0,2161,2298,1787,1
2622.0,2157,2287,1804,1
2623.0,2152,2291,1769,1
2624.0,2129,2269,1763,1
2625.0,2127,2286,1786,1
2626.0,2146,2291,1784,1
2627.0,2160,2337,1783,1
2628.0,2189,2375,1759,1
2629.0,2227,2354,1756,1
2630.0,2247,2348,1757,1
2631.0,2264,2336,1792,1
2632.0,2285,2326,1826,1
2633.0,2299,2323,1851,1
2634.0,2280,2282,1821,1
2635.0,2189,2275,1754,1
2636.0,2231,2319,1791,1
2637.0,2264,2301,1805,1
2638.0,2253,2299,1814,1
2639.0,2181,2353,1737,1
2640.0,2248,2286,1731,1
2641.0,2209,2321,1736,1
2642.0,2225,2326,1778,1
2643.0,2220,2319,1816,1
2644.0,2222,2338,1842,1
2645.0,2206,2323,1891,1
2646.0,2224,2296,1886,1
2647.0,2240,2282,1835,1
2648.0,2250,2231,1759,1
2649.0,2250,2227,1739,1
2650.0,2226,2241,1740,1
2651.0,2199,2236,1716,1
2652.0,2204,2225,1766,1
2653.0,2206,2252,1815,1
2654.0,2219,2247,1826,1
2655.0,2219,2221,1783,1
2656.0,2209,2214,1774,1
2657.0,2191,2207,1784,1
2658.0,2215,2223,1770,1
2659.0,2190,2244,1784,1
2660.0,2194,2251,1791,1
2661.0,2170,2255,1803,1
2662.0,2186,2255,1837,1
2663.0,2185,2228,1898,1
2664.0,2191,2203,1861,1
2665.0,2208,2186,1846,1
2666.0,2226,2171,1824,1
2667.0,2253,2174,1797,1
2668.0,2231,2269,1788,1
2669.0,2226,2291,1722,1
2670.0,2159,2377,1668,1
2671.0,2159,2378,1682,1
2672.0,2151,2337,1672,1
2673.0,2157,2330,1686,1
2674.0,2124,2351,1774,1
2675.0,2128,2353,1814,1
2676.0,2155,2348,1839,1
2677.0,2215,2375,1871,1
2678.0,2234,2403,1893,1
2679.0,2213,2378,1855,1
2680.0,2223,2347,1807,1
2681.0,2263,2274,1723,1
2682.0,2299,2285,1742,1
2683.0,2288,2329,1776,1
2684.0,2267,2276,1741,1
2685.0,2244,2237,1725,1
2686.0,2270,2282,1735,1
2687.0,2255,2263,1755,1
2688.0,2217,2240,1791,1
2689.0,2237,2250,1830,1
2690.0,2239,2245,1840,1
2691.0,2217,2234,1853,1
2692.0,2209,2239,1824,1
2693.0,2185,2248,1821,1
2694.0,2189,2270,1858,1
2695.0,2203,2282,1879,1
2696.0,2197,2264,1863,1
2697.0,2209,2255,1832,1
2698.0,2219,2239,1786,1
2699.0,2194,2219,1743,1
2700.0,2182,2247,1741,1
2701.0,2161,2297,1730,1
2702.0,2196,2290,1764,1
2703.0,2194,2295,1758,1
2704.0,2186,2279,1742,1
2705.0,2170,2273,1754,1
2706.0,2164,2248,1759,1
2707.0,2143,2235,1791,1
2708.0,2095,2220,1833,1
2709.0,2163,2232,1805,1
2710.0,2168,2257,1825,1
2711.0,2178,2297,1833,1
2712.0,2182,2300,1799,1
2713.0,2166,2302,1798,1
2714.0,2170,2295,1781,1
2715.0,2180,2275,1796,1
2716.0,2216,2292,1814,1
2717.0,2237,2310,1828,1
2718.0,2248,2323,1804,1
2719.0,2232,2327,1793,1
2720.0,2144,2416,1771,1
2721.0,2145,2418,1771,1
2722.0,2146,2420,1772,1
2723.0,2141,2422,1773,1
2724.0,2142,2431,1775,1
2725.0,2181,2431,1769,1
2726.0,2219,2440,1808,1
2727.0,2234,2423,1857,1
2728.0,2225,2382,1842,1
2729.0,2202,2386,1832,1
2730.0,2249,2352,1839,1
2731.0,2228,2339,1804,1
2732.0,2228,2285,1756,1
2733.0,2229,2327,1800,1
2734.0,2247,2384,1839,1
2735.0,2234,2340,1831,1
2736.0,2215,2296,1817,1
2737.0,2206,2301,1810,1
2738.0,2193,2287,1795,1
2739.0,2195,2296,1808,1
2740.0,2206,2309,1827,1
2741.0,2203,2339,1861,1
2742.0,2216,2320,1850,1
2743.0,2199,2309,1845,1
2744.0,2198,2297,1836,1
2745.0,2198,2282,1825,1
2746.0,2201,2268,1780,1
2747.0,2177,2255,1765,1
2748.0,2148,2252,1767,1
2749.0,2143,2261,1790,1
2750.0,2123,2249,1806,1
2751.0,2152,2262,1817,1
2752.0,2142,2261,1804,1
2753.0,2133,2287,1780,1
2754.0,2114,2289,1796,1
2755.0,2109,2289,1769,1
2756.0,2102,2261,1775,1
2757.0,2108,2268,1793,1
2758.0,2143,2265,1776,1
2759.0,2150,2245,1802,1
2760.0,2114,2351,1873,1
2761.0,2141,2363,1869,1
2762.0,2137,2331,1845,1
2763.0,2157,2330,1813,1
2764.0,2163,2315,1793,1
2765.0,2161,2296,1785,1
2766.0,2172,2290,1808,1
2767.0,2173,2309,1838,1
2768.0,2206,2309,1845,1
2769.0,2219,2327,1821,1
2770.0,2217,2369,1799,1
2771.0,2213,2397,1810,1
2772.0,2220,2393,1847,1
2773.0,2227,2364,1815,1
2774.0,2227,2355,1790,1
2775.0,2220,2348,1787,1
2776.0,2188,2293,1748,1
2777.0,2205,2321,1760,1
2778.0,2177,2355,1809,1
2779.0,2177,2381,1820,1
2780.0,2178,2359,1838,1
2781.0,2176,2367,1814,1
2782.0,2190,2356,1788,1
2783.0,2149,2350,1812,1
2784.0,2132,2332,1827,1
2785.0,2137,2318,1843,1
2786.0,2124,2260,1851,1
2787.0,2161,2251,1825,1
2788.0,2175,2242,1839,1
2789.0,2132,2281,1833,1
2790.0,2126,2312,1816,1
2791.0,2112,2315,1799,1
2792.0,2139,2298,1813,1
2793.0,2142,2305,1813,1
2794.0,2158,2318,1796,1
2795.0,2182,2345,1796,1
2796.0,2169,2377,1772,1
2797.0,2139,2385,1807,1
2798.0,2144,2293,1831,1
2799.0,2172,2256,1835,1
2800.0,2215,2310,1861,1
2801.0,2199,2343,1852,1
2802.0,2189,2376,1860,1
2803.0,2225,2381,1865,1
2804.0,2215,2323,1830,1
2805.0,2255,2310,1787,1
2806.0,2254,2312,1754,1
2807.0,2190,2341,1796,1
2808.0,2164,2324,1815,1
2809.0,2157,2327,1845,1
2810.0,2146,2331,1843,1
2811.0,2171,2352,1841,1
2812.0,2130,2344,1833,1
2813.0,2124,2337,1841,1
2814.0,2152,2342,1818,1
2815.0,2148,2332,1810,1
2816.0,2151,2347,1794,1
2817.0,2146,2283,1769,1
2818.0,2148,2295,1789,1
2819.0,2185,2310,1803,1
2820.0,2150,2317,1810,1
2821.0,2199,2293,1807,1
2822.0,2199,2285,1805,1
2823.0,2202,2279,1767,1
2824.0,2182,2305,1790,1
2825.0,2174,2324,1808,1
2826.0,2160,2357,1830,1
2827.0,2141,2347,1830,1
2828.0,2131,2368,1840,1
2829.0,2144,2353,1821,1
2830.0,2140,2376,1815,1
2831.0,2139,2344,1784,1
2832.0,2140,2324,1793,1
2833.0,2139,2302,1816,1
2834.0,2164,2335,1767,1
2835.0,2130,2368,1753,1
2836.0,2154,2364,1784,1
2837.0,2138,2402,1826,1
2838.0,2168,2356,1858,1
2839.0,2167,2327,1803,1
2840.0,2128,2284,1786,1
2841.0,2143,2284,1792,1
2842.0,2144,2277,1814,1
2843.0,2135,2279,1805,1
2844.0,2159,2293,1795,1
2845.0,2174,2287,1791,1
2846.0,2164,2301,1780,1
2847.0,2155,2289,1771,1
2848.0,2144,2287,1792,1
2849.0,2144,2279,1810,1
2850.0,2122,2280,1835,1
2851.0,2129,2291,1814,1
2852.0,2137,2290,1787,1
2853.0,2137,2283,1747,1
2854.0,2131,2260,1748,1
2855.0,2122,2251,1763,1
2856.0,2145,2256,1771,1
2857.0,2139,2269,1770,1
2858.0,2135,2303,1779,1
2859.0,2110,2351,1793,1
2860.0,2112,2384,1800,1
2861.0,2098,2396,1822,1
2862.0,2076,2388,1807,1
2863.0,2085,2337,1789,1
2864.0,2127,2300,1753,1
2865.0,2139,2325,1786,1
2866.0,2145,2309,1750,1
2867.0,2148,2303,1731,1
2868.0,2151,2280,1730,1
2869.0,2166,2265,1759,1
2870.0,2180,2272,1791,1
2871.0,2180,2279,1790,1
2872.0,2199,2286,1791,1
2873.0,2154,2315,1808,1
2874.0,2142,2303,1791,1
2875.0,2127,2318,1799,1
2876.0,2128,2307,1783,1
2877.0,2140,2314,1765,1
2878.0,2139,2313,1779,1
2879.0,2131,2299,1790,1
2880.0,2148,2303,1802,1
2881.0,2152,2302,1794,1
2882.0,2151,2298,1783,1
2883.0,2162,2302,1789,1
2884.0,2153,2295,1797,1
2885.0,2157,2304,1787,1
2886.0,2147,2306,1760,1
2887.0,2142,2304,1751,1
2888.0,2136,2299,1754,1
2889.0,2138,2305,1774,1
2890.0,2143,2299,1773,1
2891.0,2143,2299,1772,1
2892.0,2149,2307,1764,1
2893.0,2145,2301,1776,1
2894.0,2142,2300,1789,1
2895.0,2152,2294,1799,1
2896.0,2157,2291,1789,1
2897.0,2151,2308,1789,1
2898.0,2140,2305,1775,1
2899.0,2140,2300,1776,1
2900.0,2132,2308,1769,1
2901.0,2139,2309,1778,1
2902.0,2137,2307,1781,1
2903.0,2141,2304,1779,1
2904.0,2137,2304,1779,1
2905.0,2136,2301,1786,1
2906.0,2143,2304,1787,1
2907.0,2153,2304,1782,1
2908.0,2151,2299,1786,1
2909.0,2147,2293,1791,1
2910.0,2157,2301,1790,1
2911.0,2146,2305,1777,1
2912.0,2139,2306,1773,1
2913.0,2134,2304,1766,1
2914.0,2131,2303,1786,1
2915.0,2143,2295,1786,1
2916.0,2144,2299,1780,1
2917.0,2127,2322,1779,1
2918.0,2119,2329,1770,1
2919.0,2137,2306,1762,1
2920.0,2140,2305,1772,1
2921.0,2141,2307,1793,1
2922.0,2146,2293,1788,1
2923.0,2162,2298,1802,1
2924.0,2149,2298,1787,1
2925.0,2135,2308,1788,1
2926.0,2138,2305,1781,1
2927.0,2142,2304,1779,1
2928.0,2141,2309,1783,1
2929.0,2140,2309,1785,1
2930.0,2134,2305,1786,1
2931.0,2125,2291,1778,1
2932.0,2127,2285,1768,1
2933.0,2132,2279,1777,1
2934.0,2129,2276,1777,1
2935.0,2137,2287,1795,1
2936.0,2137,2285,1780,1
2937.0,2119,2285,1799,1
2938.0,2131,2304,1804,1
2939.0,2137,2303,1800,1
2940.0,2153,2276,1791,1
2941.0,2148,2296,1814,1
2942.0,2170,2312,1806,1
2943.0,2180,2309,1774,1
2944.0,2180,2318,1789,1
2945.0,2170,2341,1796,1
2946.0,2196,2342,1777,1
2947.0,2227,2334,1784,1
2948.0,2219,2315,1759,1
2949.0,2235,2297,1768,1
2950.0,2219,2274,1763,1
2951.0,2232,2305,1778,1
2952.0,2235,2290,1798,1
2953.0,2229,2243,1758,1
2954.0,2216,2314,1807,1
2955.0,2245,2323,1827,1
2956.0,2198,2299,1802,1
2957.0,2221,2347,1815,1
2958.0,2211,2327,1803,1
2959.0,2209,2299,1766,1
2960.0,2216,2329,1794,1
2961.0,2214,2349,1832,1
2962.0,2217,2336,1838,1
2963.0,2183,2327,1833,1
2964.0,2195,2324,1820,1
2965.0,2175,2324,1824,1
2966.0,2165,2302,1809,1
2967.0,2175,2293,1789,1
2968.0,2182,2305,1779,1
2969.0,2170,2299,1797,1
2970.0,2170,2286,1764,1
2971.0,2177,2279,1763,1
2972.0,2160,2310,1774,1
2973.0,2158,2305,1767,1
2974.0,2133,2277,1774,1
2975.0,2123,2296,1783,1
2976.0,2123,2311,1769,1
2977.0,2115,2330,1781,1
2978.0,2134,2314,1779,1
2979.0,2060,2293,1797,1
2980.0,2104,2313,1803,1
2981.0,2110,2309,1772,1
2982.0,2111,2313,1775,1
2983.0,2088,2325,1772,1
2984.0,2076,2329,1781,1
2985.0,2063,2320,1774,1
2986.0,2094,2325,1749,1
2987.0,2103,2302,1762,1
2988.0,2099,2263,1775,1
2989.0,2093,2246,1788,1
2990.0,2123,2251,1769,1
2991.0,2131,2234,1756,1
2992.0,2143,2224,1746,1
2993.0,2116,2233,1772,1
2994.0,2098,2252,1811,1
2995.0,2072,2241,1774,1
2996.0,2114,2281,1790,1
2997.0,2086,2271,1778,1
2998.0,2082,2251,1763,1
2999.0,2099,2243,1734,1
3000.0,2120,2272,1733,1
3001.0,2113,2296,1748,1
3002.0,2099,2327,1753,1
3003.0,2098,2341,1759,1
3004.0,2095,2337,1759,1
3005.0,2098,2322,1775,1
3006.0,2123,2310,1800,1
3007.0,2129,2295,1766,1
3008.0,2137,2305,1761,1
3009.0,2144,2299,1763,1
3010.0,2165,2305,1763,1
3011.0,2162,2299,1765,1
3012.0,2160,2285,1758,1
3013.0,2168,2287,1766,1
3014.0,2168,2271,1789,1
3015.0,2165,2279,1799,1
3016.0,2164,2291,1798,1
3017.0,2171,2310,1790,1
3018.0,2166,2310,1796,1
3019.0,2154,2306,1810,1
3020.0,2143,2303,1821,1
3021.0,2143,2317,1813,1
3022.0,2139,2332,1829,1
3023.0,2133,2339,1848,1
3024.0,2131,2336,1819,1
3025.0,2116,2313,1804,1
3026.0,2116,2304,1792,1
3027.0,2139,2285,1774,1
3028.0,2127,2278,1780,1
3029.0,2127,2290,1765,1
3030.0,2133,2297,1746,1
3031.0,2143,2341,1776,1
3032.0,2128,2318,1752,1
3033.0,2135,2332,1765,1
3034.0,2123,2344,1740,1
3035.0,2102,2373,1743,1
3036.0,2092,2368,1722,1
3037.0,2086,2334,1712,1
3038.0,2112,2316,1734,1
3039.0,2114,2307,1768,1
3040.0,2110,2289,1771,1
3041.0,2109,2296,1788,1
3042.0,2110,2293,1791,1
3043.0,2119,2290,1797,1
3044.0,2123,2291,1791,1
3045.0,2132,2291,1783,1
3046.0,2126,2295,1778,1
3047.0,2129,2291,1775,1
3048.0,2128,2309,1771,1
3049.0,2143,2313,1767,1
3050.0,2143,2321,1771,1
3051.0,2138,2323,1775,1
3052.0,2130,2328,1780,1
3053.0,2128,2293,1767,1
3054.0,2127,2273,1754,1
3055.0,2143,2270,1745,1
3056.0,2133,2267,1743,1
3057.0,2134,2269,1733,1
3058.0,2134,2287,1747,1
3059.0,2127,2292,1751,1
3060.0,2148,2251,1743,1
3061.0,2148,2252,1741,1
3062.0,2148,2252,1739,1
3063.0,2148,2252,1738,1
3064.0,2151,2253,1738,1
3065.0,2152,2255,1739,1
3066.0,2153,2253,1739,1
3067.0,2149,2257,1748,1
3068.0,2151,2252,1756,1
3069.0,2146,2251,1759,1
3070.0,2144,2272,1766,1
3071.0,2149,2276,1771,1
3072.0,2143,2265,1759,1
3073.0,2149,2253,1760,1
3074.0,2155,2250,1747,1
3075.0,2157,2254,1734,1
3076.0,2154,2260,1727,1
3077.0,2148,2264,1740,1
3078.0,2151,2259,1744,1
3079.0,2147,2252,1752,1
3080.0,2140,2250,1757,1
3081.0,2139,2255,1770,1
3082.0,2129,2253,1775,1
3083.0,2127,2255,1785,1
3084.0,2125,2263,1782,1
3085.0,2139,2270,1760,1
3086.0,2147,2267,1750,1
3087.0,2147,2255,1745,1
3088.0,2152,2260,1733,1
3089.0,2159,2260,1719,1
3090.0,2151,2264,1714,1
3091.0,2156,2283,1742,1
3092.0,2161,2280,1756,1
3093.0,2158,2284,1768,1
3094.0,2153,2294,1779,1
3095.0,2147,2300,1780,1
3096.0,2149,2288,1783,1
3097.0,2140,2292,1786,1
3098.0,2148,2305,1800,1
3099.0,2135,2331,1786,1
3100.0,2134,2341,1793,1
3101.0,2134,2335,1770,1
3102.0,2141,2319,1762,1
3103.0,2160,2330,1778,1
3104.0,2145,2311,1778,1
3105.0,2153,2295,1794,1
3106.0,2149,2296,1799,1
3107.0,2150,2304,1802,1
3108.0,2161,2303,1797,1
3109.0,2176,2299,1794,1
3110.0,2177,2293,1783,1
3111.0,2185,2296,1784,1
3112.0,2182,2299,1806,1
3113.0,2186,2297,1804,1
3114.0,2179,2306,1810,1
3115.0,2186,2314,1813,1
3116.0,2196,2328,1798,1
3117.0,2185,2338,1774,1
3118.0,2168,2335,1787,1
3119.0,2170,2313,1787,1
3120.0,2171,2292,1766,1
3121.0,2162,2296,1769,1
3122.0,2154,2304,1783,1
3123.0,2156,2312,1790,1
3124.0,2163,2308,1792,1
3125.0,2153,2307,1800,1
3126.0,2157,2303,1808,1
3127.0,2154,2297,1801,1
3128.0,2159,2302,1795,1
3129.0,2167,2301,1785,1
3130.0,2172,2298,1780,1
3131.0,2171,2298,1775,1
3132.0,2172,2302,1770,1
3133.0,2179,2305,1776,1
3134.0,2184,2304,1785,1
3135.0,2176,2307,1779,1
3136.0,2170,2308,1788,1
3137.0,2164,2294,1789,1
3138.0,2163,2288,1800,1
3139.0,2170,2276,1793,1
3140.0,2167,2288,1793,1
3141.0,2147,2307,1794,1
3142.0,2155,2311,1798,1
3143.0,2165,2308,1794,1
3144.0,2168,2301,1787,1
3145.0,2176,2287,1779,1
3146.0,2173,2284,1776,1
3147.0,2172,2283,1765,1
3148.0,2166,2298,1760,1
3149.0,2171,2304,1784,1
3150.0,2159,2295,1789,1
3151.0,2164,2295,1785,1
3152.0,2161,2302,1793,1
3153.0,2161,2294,1794,1
3154.0,2164,2297,1788,1
3155.0,2169,2301,1789,1
3156.0,2170,2305,1786,1
3157.0,2171,2298,1792,1
3158.0,2164,2300,1766,1
3159.0,2171,2317,1742,1
3160.0,2138,2317,1746,1
3161.0,2127,2323,1764,1
3162.0,2128,2307,1791,1
3163.0,2177,2312,1815,1
3164.0,2179,2301,1820,1
3165.0,2182,2296,1819,1
3166.0,2201,2278,1846,1
3167.0,2181,2251,1838,1
3168.0,2187,2239,1819,1
3169.0,2178,2259,1775,1
3170.0,2178,2255,1740,1
3171.0,2166,2258,1714,1
3172.0,2175,2293,1715,1
3173.0,2168,2329,1743,1
3174.0,2150,2345,1778,1
3175.0,2144,2364,1835,1
3176.0,2179,2346,1867,1
3177.0,2168,2311,1851,1
3178.0,2195,2293,1826,1
3179.0,2193,2302,1802,1
3180.0,2173,2300,1768,1
3181.0,2175,2301,1787,1
3182.0,2190,2297,1791,1
3183.0,2175,2303,1789,1
3184.0,2172,2321,1805,1
3185.0,2177,2322,1792,1
3186.0,2166,2309,1791,1
3187.0,2162,2303,1811,1
3188.0,2167,2303,1808,1
3189.0,2159,2287,1775,1
3190.0,2170,2267,1764,1
3191.0,2174,2290,1763,1
3192.0,2174,2310,1783,1
3193.0,2163,2321,1789,1
3194.0,2150,2322,1807,1
3195.0,2169,2302,1805,1
3196.0,2168,2296,1813,1
3197.0,2168,2295,1806,1
3198.0,2178,2304,1795,1
3199.0,2177,2304,1763,1
3200.0,2174,2297,1764,1
3201.0,2168,2296,1782,1
3202.0,2162,2305,1787,1
3203.0,2160,2308,1795,1
3204.0,2154,2311,1795,1
3205.0,2169,2294,1786,1
3206.0,2165,2295,1806,1
3207.0,2165,2302,1810,1
3208.0,2175,2303,1798,1
3209.0,2173,2293,1773,1
3210.0,2177,2290,1764,1
3211.0,2167,2307,1782,1
3212.0,2165,2307,1784,1
3213.0,2166,2303,1794,1
3214.0,2172,2305,1809,1
3215.0,2172,2306,1807,1
3216.0,2174,2303,1793,1
3217.0,2173,2295,1787,1
3218.0,2178,2294,1773,1
3219.0,2170,2289,1777,1
3220.0,2179,2292,1765,1
3221.0,2169,2291,1794,1
3222.0,2142,2295,1800,1
3223.0,2138,2303,1807,1
3224.0,2157,2332,1813,1
3225.0,2172,2344,1794,1
3226.0,2188,2307,1778,1
3227.0,2178,2311,1768,1
3228.0,2197,2308,1782,1
3229.0,2196,2305,1796,1
3230.0,2158,2300,1804,1
3231.0,2159,2302,1802,1
3232.0,2161,2303,1806,1
3233.0,2161,2302,1809,1
3234.0,2162,2302,1806,1
3235.0,2164,2306,1804,1
3236.0,2169,2313,1805,1
3237.0,2170,2311,1795,1
3238.0,2180,2304,1801,1
3239.0,2169,2298,1791,1
3240.0,2167,2290,1781,1
3241.0,2169,2281,1767,1
3242.0,2179,2295,1774,1
3243.0,2173,2301,1787,1
3244.0,2167,2291,1795,1
3245.0,2174,2294,1797,1
3246.0,2179,2303,1799,1
3247.0,2175,2300,1791,1
3248.0,2173,2299,1790,1
3249.0,2170,2298,1779,1
3250.0,2165,2290,1771,1
3251.0,2163,2298,1771,1
3252.0,2163,2296,1772,1
3253.0,2165,2301,1774,1
3254.0,2155,2298,1782,1
3255.0,2168,2303,1799,1
3256.0,2162,2305,1799,1
3257.0,2165,2309,1795,1
3258.0,2162,2306,1791,1
3259.0,2166,2301,1787,1
3260.0,2178,2302,1788,1
3261.0,2173,2303,1797,1
3262.0,2171,2300,1802,1
3263.0,2171,2298,1792,1
3264.0,2164,2298,1791,1
3265.0,2166,2301,1785,1
3266.0,2163,2295,1772,1
3267.0,2168,2298,1776,1
3268.0,2171,2314,1792,1
3269.0,2163,2311,1803,1
3270.0,2169,2303,1799,1
3271.0,2179,2294,1797,1
3272.0,2174,2304,1783,1
3273.0,2176,2298,1792,1
3274.0,2166,2292,1795,1
3275.0,2165,2288,1798,1
3276.0,2168,2300,1790,1
3277.0,2168,2307,1787,1
3278.0,2168,2303,1774,1
3279.0,2158,2312,1773,1
3280.0,2159,2310,1798,1
3281.0,2186,2296,1802,1
3282.0,2168,2293,1779,1
3283.0,2175,2290,1781,1
3284.0,2181,2307,1792,1
3285.0,2169,2297,1782,1
3286.0,2168,2304,1814,1
3287.0,2164,2305,1809,1
3288.0,2167,2295,1782,1
3289.0,2169,2298,1782,1
3290.0,2161,2303,1789,1
3291.0,2166,2316,1781,1
3292.0,2185,2299,1790,1
3293.0,2162,2290,1790,1
3294.0,2175,2298,1813,1
3295.0,2176,2303,1790,1
3296.0,2184,2294,1769,1
3297.0,2178,2294,1773,1
3298.0,2173,2308,1791,1
3299.0,2168,2297,1802,1
3300.0,2162,2305,1805,1
3301.0,2166,2307,1798,1
3302.0,2158,2308,1789,1
3303.0,2158,2296,1801,1
3304.0,2167,2307,1799,1
3305.0,2170,2292,1781,1
3306.0,2172,2279,1778,1
3307.0,2187,2287,1780,1
3308.0,2173,2290,1755,1
3309.0,2170,2299,1772,1
3310.0,2169,2319,1803,1
3311.0,2170,2323,1803,1
3312.0,2181,2314,1823,1
3313.0,2165,2298,1796,1
3314.0,2173,2301,1783,1
3315.0,2170,2302,1793,1
3316.0,2168,2297,1786,1
3317.0,2166,2297,1795,1
3318.0,2171,2289,1792,1
3319.0,2166,2297,1783,1
3320.0,2181,2309,1771,1
3321.0,2178,2304,1774,1
3322.0,2171,2301,1796,1
3323.0,2175,2303,1806,1
3324.0,2167,2294,1803,1
3325.0,2166,2301,1810,1
3326.0,2172,2302,1797,1
3327.0,2166,2305,1783,1
3328.0,2172,2307,1784,1
3329.0,2169,2303,1784,1
3330.0,2163,2302,1786,1
3331.0,2168,2305,1785,1
3332.0,2173,2313,1783,1
3333.0,2170,2303,1787,1
3334.0,2184,2299,1787,1
3335.0,2178,2292,1782,1
3336.0,2180,2302,1796,1
3337.0,2175,2299,1795,1
3338.0,2176,2311,1787,1
3339.0,2182,2303,1787,1
3340.0,2175,2306,1794,1
3341.0,2171,2303,1794,1
3342.0,2166,2300,1794,1
3343.0,2164,2295,1797,1
3344.0,2165,2298,1784,1
3345.0,2168,2295,1790,1
3346.0,2169,2297,1786,1
3347.0,2174,2296,1785,1
3348.0,2179,2297,1786,1
3349.0,2170,2297,1787,1
3350.0,2170,2300,1781,1
3351.0,2171,2298,1788,1
3352.0,2176,2296,1792,1
3353.0,2174,2295,1795,1
3354.0,2171,2295,1791,1
3355.0,2175,2294,1777,1
3356.0,2178,2296,1784,1
3357.0,2176,2308,1785,1
3358.0,2178,2305,1789,1
3359.0,2166,2298,1795,1
3360.0,2164,2303,1804,1
3361.0,2173,2298,1806,1
3362.0,2176,2295,1798,1
3363.0,2180,2302,1774,1
3364.0,2172,2300,1775,1
3365.0,2167,2299,1775,1
3366.0,2176,2303,1784,1
3367.0,2165,2300,1803,1
3368.0,2158,2298,1803,1
3369.0,2163,2295,1799,1
3370.0,2170,2299,1795,1
3371.0,2174,2300,1796,1
3372.0,2177,2292,1790,1
3373.0,2179,2295,1781,1
3374.0,2180,2298,1777,1
3375.0,2176,2295,1775,1
3376.0,2179,2299,1773,1
3377.0,2181,2295,1788,1
3378.0,2173,2303,1798,1
3379.0,2175,2303,1801,1
3380.0,2176,2296,1794,1
3381.0,2174,2298,1802,1
3382.0,2168,2296,1796,1
3383.0,2179,2300,1789,1
3384.0,2182,2300,1786,1
3385.0,2179,2292,1771,1
3386.0,2176,2305,1768,1
3387.0,2176,2303,1780,1
3388.0,2174,2299,1791,1
3389.0,2177,2304,1795,1
3390.0,2166,2300,1799,1
3391.0,2166,2293,1791,1
3392.0,2172,2305,1788,1
3393.0,2162,2300,1797,1
3394.0,2161,2298,1802,1
3395.0,2173,2293,1814,1
3396.0,2189,2297,1798,1
3397.0,2182,2301,1780,1
3398.0,2180,2298,1769,1
3399.0,2193,2299,1773,1
3400.0,2166,2301,1809,1
3401.0,2167,2302,1809,1
3402.0,2161,2295,1806,1
3403.0,2172,2301,1809,1
3404.0,2162,2310,1809,1
3405.0,2154,2311,1803,1
3406.0,2158,2301,1805,1
3407.0,2176,2294,1803,1
3408.0,2189,2291,1782,1
3409.0,2187,2291,1764,1
3410.0,2189,2299,1750,1
3411.0,2178,2306,1762,1
3412.0,2173,2310,1793,1
3413.0,2170,2314,1813,1
3414.0,2171,2303,1814,1
3415.0,2160,2300,1802,1
3416.0,2164,2300,1802,1
3417.0,2163,2308,1810,1
3418.0,2144,2313,1812,1
3419.0,2157,2292,1819,1
3420.0,2190,2283,1796,1
3421.0,2199,2281,1761,1
3422.0,2186,2294,1742,1
3423.0,2180,2295,1754,1
3424.0,2171,2299,1769,1
3425.0,2174,2326,1804,1
3426.0,2178,2321,1816,1
3427.0,2170,2303,1797,1
3428.0,2168,2299,1787,1
3429.0,2171,2302,1804,1
3430.0,2170,2312,1798,1
3431.0,2165,2307,1807,1
3432.0,2178,2304,1810,1
3433.0,2156,2306,1801,1
3434.0,2154,2310,1796,1
3435.0,2159,2299,1810,1
3436.0,2182,2288,1787,1
3437.0,2175,2287,1759,1
3438.0,2182,2291,1758,1
3439.0,2184,2299,1763,1
3440.0,2175,2307,1778,1
3441.0,2179,2307,1802,1
3442.0,2171,2300,1808,1
3443.0,2183,2295,1796,1
3444.0,2179,2297,1796,1
3445.0,2178,2301,1797,1
3446.0,2175,2299,1793,1
3447.0,2179,2303,1790,1
3448.0,2172,2303,1790,1
3449.0,2172,2301,1794,1
3450.0,2166,2304,1797,1
3451.0,2165,2300,1789,1
3452.0,2171,2295,1788,1
3453.0,2178,2301,1786,1
3454.0,2178,2300,1787,1
3455.0,2177,2301,1789,1
3456.0,2175,2301,1794,1
3457.0,2174,2301,1801,1
3458.0,2172,2307,1798,1
3459.0,2177,2302,1799,1
3460.0,2175,2300,1799,1
3461.0,2181,2303,1800,1
3462.0,2180,2295,1791,1
3463.0,2183,2297,1781,1
3464.0,2180,2297,1781,1
3465.0,2183,2292,1777,1
3466.0,2174,2292,1778,1
3467.0,2170,2295,1786,1
3468.0,2160,2300,1788,1
3469.0,2149,2310,1792,1
3470.0,2157,2325,1800,1
3471.0,2166,2306,1800,1
3472.0,2163,2302,1791,1
3473.0,2157,2307,1804,1
3474.0,2155,2308,1818,1
3475.0,2178,2312,1821,1
3476.0,2180,2308,1795,1
3477.0,2170,2299,1789,1
3478.0,2181,2288,1777,1
3479.0,2200,2292,1763,1
3480.0,2190,2306,1764,1
3481.0,2179,2311,1780,1
3482.0,2168,2295,1790,1
3483.0,2168,2298,1796,1
3484.0,2173,2302,1810,1
3485.0,2175,2303,1811,1
3486.0,2179,2304,1795,1
3487.0,2179,2300,1796,1
3488.0,2179,2307,1796,1
3489.0,2188,2296,1793,1
3490.0,2193,2292,1785,1
3491.0,2190,2291,1778,1
3492.0,2182,2293,1767,1
3493.0,2188,2289,1772,1
3494.0,2164,2297,1776,1
3495.0,2163,2306,1812,1
3496.0,2170,2302,1823,1
3497.0,2162,2294,1810,1
3498.0,2167,2294,1803,1
3499.0,2168,2295,1791,1
3500.0,2158,2294,1777,1
3501.0,2171,2295,1781,1
3502.0,2171,2299,1774,1
3503.0,2164,2302,1777,1
3504.0,2169,2305,1796,1
3505.0,2190,2291,1789,1
3506.0,2170,2290,1772,1
3507.0,2173,2284,1781,1
3508.0,2182,2288,1776,1
3509.0,2180,2291,1763,1
3510.0,2175,2301,1789,1
3511.0,2179,2319,1819,1
3512.0,2177,2313,1819,1
3513.0,2177,2305,1808,1
3514.0,2181,2301,1793,1
3515.0,2180,2298,1779,1
3516.0,2184,2300,1778,1
3517.0,2183,2299,1776,1
3518.0,2170,2300,1797,1
3519.0,2175,2296,1799,1
3520.0,2177,2301,1791,1
3521.0,2179,2306,1794,1
3522.0,2176,2295,1790,1
3523.0,2182,2301,1794,1
3524.0,2179,2292,1791,1
3525.0,2180,2295,1782,1
3526.0,2182,2293,1788,1
3527.0,2172,2296,1794,1
3528.0,2182,2301,1795,1
3529.0,2182,2303,1782,1
3530.0,2177,2292,1788,1
3531.0,2181,2293,1792,1
3532.0,2177,2295,1793,1
3533.0,2173,2300,1793,1
3534.0,2171,2298,1791,1
3535.0,2180,2302,1787,1
3536.0,2180,2294,1787,1
3537.0,2177,2294,1791,1
3538.0,2179,2295,1787,1
3539.0,2175,2295,1783,1
3540.0,2175,2298,1788,1
3541.0,2176,2298,1790,1
3542.0,2173,2295,1789,1
3543.0,2180,2294,1793,1
3544.0,2182,2296,1789,1
3545.0,2177,2298,1785,1
3546.0,2179,2296,1789,1
3547.0,2171,2294,1786,1
3548.0,2176,2293,1791,1
3549.0,2179,2296,1792,1
3550.0,2176,2291,1789,1
3551.0,2184,2292,1786,1
3552.0,2176,2297,1795,1
3553.0,2173,2296,1791,1
3554.0,2179,2294,1794,1
3555.0,2175,2293,1794,1
3556.0,2177,2291,1785,1
3557.0,2178,2292,1791,1
3558.0,2181,2299,1791,1
3559.0,2184,2299,1793,1
3560.0,2175,2301,1796,1
3561.0,2178,2294,1795,1
3562.0,2176,2302,1781,1
3563.0,2174,2299,1787,1
3564.0,2177,2295,1791,1
3565.0,2175,2293,1788,1
3566.0,2177,2303,1784,1
3567.0,2180,2299,1787,1
3568.0,2173,2300,1793,1
3569.0,2176,2300,1789,1
3570.0,2179,2299,1788,1
3571.0,2179,2298,1788,1
3572.0,2180,2297,1788,1
3573.0,2182,2296,1790,1
3574.0,2183,2295,1790,1
3575.0,2184,2293,1788,1
3576.0,2185,2292,1790,1
3577.0,2179,2301,1790,1
3578.0,2172,2301,1799,1
3579.0,2173,2293,1799,1
3580.0,2168,2292,1795,1
3581.0,2175,2294,1787,1
3582.0,2175,2292,1789,1
3583.0,2167,2292,1783,1
3584.0,2176,2293,1785,1
3585.0,2178,2297,1788,1
3586.0,2181,2294,1783,1
3587.0,2179,2300,1779,1
3588.0,2175,2300,1788,1
3589.0,2179,2296,1790,1
3590.0,2178,2298,1802,1
3591.0,2180,2299,1802,1
3592.0,2187,2301,1795,1
3593.0,2181,2300,1790,1
3594.0,2183,2301,1789,1
3595.0,2181,2301,1789,1
3596.0,2179,2295,1798,1
3597.0,2176,2295,1795,1
3598.0,2175,2291,1789,1
3599.0,2183,2294,1790,1
3600.0,2183,2297,1783,1
3601.0,2178,2298,1787,1
3602.0,2171,2297,1783,1
3603.0,2175,2293,1789,1
3604.0,2176,2293,1791,1
3605.0,2174,2292,1787,1
3606.0,2180,2289,1785,1
3607.0,2184,2295,1790,1
3608.0,2182,2299,1790,1
3609.0,2174,2301,1792,1
3610.0,2177,2300,1791,1
3611.0,2177,2294,1789,1
3612.0,2174,2293,1795,1
3613.0,2170,2298,1795,1
3614.0,2171,2293,1777,1
3615.0,2167,2294,1789,1
3616.0,2164,2299,1803,1
3617.0,2164,2293,1790,1
3618.0,2169,2289,1798,1
3619.0,2187,2298,1781,1
3620.0,2195,2297,1773,1
3621.0,2191,2293,1776,1
3622.0,2195,2294,1783,1
3623.0,2188,2296,1797,1
3624.0,2187,2293,1801,1
3625.0,2187,2300,1799,1
3626.0,2185,2303,1794,1
3627.0,2185,2302,1791,1
3628.0,2176,2303,1792,1
3629.0,2172,2301,1799,1
3630.0,2158,2297,1804,1
3631.0,2155,2293,1790,1
3632.0,2158,2281,1785,1
3633.0,2151,2276,1773,1
3634.0,2166,2291,1774,1
3635.0,2173,2295,1785,1
3636.0,2171,2289,1769,1
3637.0,2181,2298,1765,1
3638.0,2183,2307,1777,1
3639.0,2187,2290,1785,1
3640.0,2182,2293,1788,1
3641.0,2185,2292,1786,1
3642.0,2191,2297,1799,1
3643.0,2183,2291,1802,1
3644.0,2187,2299,1801,1
3645.0,2187,2305,1806,1
3646.0,2183,2299,1797,1
3647.0,2181,2303,1798,1
3648.0,2166,2299,1790,1
3649.0,2163,2295,1790,1
3650.0,2165,2295,1791,1
3651.0,2173,2290,1783,1
3652.0,2172,2293,1772,1
3653.0,2185,2301,1763,1
3654.0,2183,2297,1773,1
3655.0,2187,2295,1783,1
3656.0,2189,2293,1785,1
3657.0,2183,2292,1793,1
3658.0,2187,2293,1803,1
3659.0,2181,2297,1810,1
3660.0,2184,2299,1803,1
3661.0,2182,2293,1799,1
3662.0,2179,2293,1791,1
3663.0,2173,2298,1793,1
3664.0,2177,2293,1785,1
3665.0,2174,2294,1785,1
3666.0,2172,2294,1786,1
3667.0,2174,2296,1781,1
3668.0,2176,2294,1775,1
3669.0,2177,2291,1783,1
3670.0,2177,2289,1792,1
3671.0,2180,2295,1793,1
3672.0,2177,2293,1801,1
3673.0,2184,2294,1793,1
3674.0,2177,2291,1791,1
3675.0,2175,2299,1796,1
3676.0,2177,2294,1789,1
3677.0,2173,2292,1790,1
3678.0,2178,2297,1780,1
3679.0,2173,2297,1774,1
3680.0,2186,2295,1776,1
3681.0,2185,2295,1779,1
3682.0,2182,2297,1784,1
3683.0,2186,2291,1781,1
3684.0,2179,2295,1789,1
3685.0,2177,2292,1805,1
3686.0,2183,2296,1806,1
3687.0,2181,2296,1789,1
3688.0,2179,2303,1791,1
3689.0,2175,2298,1793,1
3690.0,2171,2303,1793,1
3691.0,2173,2299,1789,1
3692.0,2167,2294,1783,1
3693.0,2163,2287,1790,1
3694.0,2174,2269,1788,1
3695.0,2170,2287,1776,1
3696.0,2179,2301,1773,1
3697.0,2167,2293,1776,1
3698.0,2185,2293,1788,1
3699.0,2187,2290,1769,1
3700.0,2188,2295,1777,1
3701.0,2179,2296,1793,1
3702.0,2187,2294,1791,1
3703.0,2190,2295,1795,1
3704.0,2180,2302,1807,1
3705.0,2172,2295,1802,1
3706.0,2168,2299,1807,1
3707.0,2169,2299,1807,1
3708.0,2173,2296,1800,1
3709.0,2179,2292,1758,1
3710.0,2182,2297,1731,1
3711.0,2172,2292,1757,1
3712.0,2193,2291,1773,1
3713.0,2178,2297,1782,1
3714.0,2172,2297,1799,1
3715.0,2172,2307,1813,1
3716.0,2173,2298,1820,1
3717.0,2170,2298,1806,1
3718.0,2172,2296,1803,1
3719.0,2173,2289,1797,1
3720.0,2176,2287,1777,1
3721.0,2173,2279,1759,1
3722.0,2165,2285,1756,1
3723.0,2172,2292,1778,1
3724.0,2175,2290,1773,1
3725.0,2176,2285,1771,1
3726.0,2180,2294,1781,1
3727.0,2180,2298,1784,1
3728.0,2174,2294,1786,1
3729.0,2172,2293,1802,1
3730.0,2180,2298,1815,1
3731.0,2175,2291,1817,1
3732.0,2195,2294,1792,1
3733.0,2194,2293,1761,1
3734.0,2180,2287,1756,1
3735.0,2190,2291,1780,1
3736.0,2177,2302,1770,1
3737.0,2171,2293,1773,1
3738.0,2170,2297,1794,1
3739.0,2173,2301,1784,1
3740.0,2183,2291,1779,1
3741.0,2182,2291,1779,1
3742.0,2179,2290,1781,1
3743.0,2176,2291,1780,1
3744.0,2177,2294,1770,1
3745.0,2174,2299,1779,1
3746.0,2170,2302,1790,1
3747.0,2171,2294,1787,1
3748.0,2170,2289,1793,1
3749.0,2171,2290,1796,1
3750.0,2162,2299,1791,1
3751.0,2170,2295,1798,1
3752.0,2177,2303,1794,1
3753.0,2177,2296,1789,1
3754.0,2161,2283,1776,1
3755.0,2187,2272,1767,1
3756.0,2173,2287,1763,1
3757.0,2175,2295,1779,1
3758.0,2170,2296,1801,1
3759.0,2165,2306,1791,1
3760.0,2169,2301,1796,1
3761.0,2178,2300,1803,1
3762.0,2169,2300,1782,1
3763.0,2178,2292,1782,1
3764.0,2198,2291,1779,1
3765.0,2187,2289,1776,1
3766.0,2181,2283,1782,1
3767.0,2179,2290,1797,1
3768.0,2169,2295,1791,1
3769.0,2178,2297,1796,1
3770.0,2178,2294,1787,1
3771.0,2172,2296,1779,1
3772.0,2172,2302,1780,1
3773.0,2175,2298,1780,1
3774.0,2179,2294,1773,1
3775.0,2175,2297,1774,1
3776.0,2168,2313,1786,1
3777.0,2169,2301,1793,1
3778.0,2172,2286,1795,1
3779.0,2176,2281,1800,1
3780.0,2192,2285,1799,1
3781.0,2164,2309,1792,1
3782.0,2173,2299,1782,1
3783.0,2164,2292,1789,1
3784.0,2160,2287,1801,1
3785.0,2152,2298,1797,1
3786.0,2169,2297,1808,1
3787.0,2193,2294,1786,1
3788.0,2184,2303,1763,1
3789.0,2187,2291,1760,1
3790.0,2197,2280,1763,1
3791.0,2179,2287,1751,1
3792.0,2180,2292,1775,1
3793.0,2163,2303,1795,1
3794.0,2163,2305,1807,1
3795.0,2158,2307,1816,1
3796.0,2158,2299,1803,1
3797.0,2153,2291,1788,1
3798.0,2158,2287,1769,1
3799.0,2169,2296,1761,1
3800.0,2178,2297,1774,1
3801.0,2173,2294,1790,1
3802.0,2182,2286,1788,1
3803.0,2180,2288,1791,1
3804.0,2183,2297,1782,1
3805.0,2175,2286,1768,1
3806.0,2182,2295,1791,1
3807.0,2173,2296,1787,1
3808.0,2170,2297,1785,1
3809.0,2165,2295,1781,1
3810.0,2164,2310,1782,1
3811.0,2163,2320,1784,1
3812.0,2181,2304,1795,1
3813.0,2174,2287,1793,1
3814.0,2174,2284,1780,1
3815.0,2177,2293,1791,1
3816.0,2162,2297,1795,1
3817.0,2168,2293,1799,1
3818.0,2184,2290,1798,1
3819.0,2168,2285,1780,1
3820.0,2174,2290,1774,1
3821.0,2171,2308,1782,1
3822.0,2163,2320,1795,1
3823.0,2170,2319,1786,1
3824.0,2183,2277,1785,1
3825.0,2167,2283,1771,1
3826.0,2185,2289,1784,1
3827.0,2177,2301,1775,1
3828.0,2176,2295,1761,1
3829.0,2171,2298,1795,1
3830.0,2158,2305,1815,1
3831.0,2162,2297,1798,1
3832.0,2162,2302,1807,1
3833.0,2167,2305,1803,1
3834.0,2169,2304,1801,1
3835.0,2179,2293,1788,1
3836.0,2179,2288,1761,1
3837.0,2173,2282,1757,1
3838.0,2188,2289,1767,1
3839.0,2166,2290,1772,1
3840.0,2169,2299,1791,1
3841.0,2169,2309,1809,1
3842.0,2169,2303,1806,1
3843.0,2174,2301,1786,1
3844.0,2173,2291,1776,1
3845.0,2175,2308,1788,1
3846.0,2171,2303,1790,1
3847.0,2177,2286,1788,1
3848.0,2179,2286,1798,1
3849.0,2159,2285,1791,1
3850.0,2170,2292,1798,1
3851.0,2167,2297,1788,1
3852.0,2164,2300,1778,1
3853.0,2167,2299,1778,1
3854.0,2173,2297,1769,1
3855.0,2171,2292,1773,1
3856.0,2167,2300,1791,1
3857.0,2166,2296,1793,1
3858.0,2171,2295,1782,1
3859.0,2184,2297,1787,1
3860.0,2188,2290,1790,1
3861.0,2187,2291,1787,1
3862.0,2187,2297,1787,1
3863.0,2183,2292,1794,1
3864.0,2174,2302,1795,1
3865.0,2169,2295,1790,1
3866.0,2161,2296,1791,1
3867.0,2157,2294,1784,1
3868.0,2161,2301,1778,1
3869.0,2165,2307,1772,1
3870.0,2165,2307,1779,1
3871.0,2179,2305,1790,1
3872.0,2180,2295,1787,1
3873.0,2194,2289,1779,1
3874.0,2192,2289,1786,1
3875.0,2188,2296,1790,1
3876.0,2177,2293,1798,1
3877.0,2173,2299,1809,1
3878.0,2172,2302,1796,1
3879.0,2161,2300,1805,1
3880.0,2160,2303,1798,1
3881.0,2157,2294,1774,1
3882.0,2165,2289,1770,1
3883.0,2168,2299,1768,1
3884.0,2169,2299,1776,1
3885.0,2170,2307,1775,1
3886.0,2182,2293,1782,1
3887.0,2178,2294,1790,1
3888.0,2163,2299,1807,1
3889.0,2164,2293,1811,1
3890.0,2178,2290,1796,1
3891.0,2184,2291,1777,1
3892.0,2182,2293,1770,1
3893.0,2176,2300,1769,1
3894.0,2176,2311,1792,1
3895.0,2181,2297,1792,1
3896.0,2173,2294,1787,1
3897.0,2170,2303,1787,1
3898.0,2166,2297,1797,1
3899.0,2170,2281,1795,1
3900.0,2172,2285,1777,1
3901.0,2178,2298,1785,1
3902.0,2178,2296,1777,1
3903.0,2182,2297,1766,1
3904.0,2171,2297,1773,1
3905.0,2169,2295,1786,1
3906.0,2174,2293,1799,1
3907.0,2171,2291,1798,1
3908.0,2172,2291,1789,1
3909.0,2181,2293,1797,1
3910.0,2176,2286,1774,1
3911.0,2176,2287,1774,1
3912.0,2175,2295,1772,1
3913.0,2169,2296,1783,1
3914.0,2171,2303,1790,1
3915.0,2169,2299,1793,1
3916.0,2167,2296,1799,1
3917.0,2171,2297,1793,1
3918.0,2175,2295,1779,1
3919.0,2170,2295,1805,1
3920.0,2175,2295,1793,1
3921.0,2177,2291,1772,1
3922.0,2179,2298,1775,1
3923.0,2169,2307,1778,1
3924.0,2171,2312,1785,1
3925.0,2177,2295,1801,1
3926.0,2167,2295,1786,1
3927.0,2182,2292,1783,1
3928.0,2181,2301,1785,1
3929.0,2172,2299,1803,1
3930.0,2168,2302,1812,1
3931.0,2171,2296,1790,1
3932.0,2174,2291,1772,1
3933.0,2181,2295,1776,1
3934.0,2182,2297,1783,1
3935.0,2180,2301,1785,1
3936.0,2172,2301,1781,1
3937.0,2165,2290,1784,1
3938.0,2173,2298,1798,1
3939.0,2168,2299,1794,1
3940.0,2172,2302,1787,1
3941.0,2169,2305,1797,1
3942.0,2172,2299,1798,1
3943.0,2174,2298,1793,1
3944.0,2167,2296,1791,1
3945.0,2184,2294,1790,1
3946.0,2176,2294,1782,1
3947.0,2177,2297,1774,1
3948.0,2178,2302,1765,1
3949.0,2169,2303,1784,1
3950.0,2165,2299,1795,1
3951.0,2171,2301,1791,1
3952.0,2168,2297,1791,1
3953.0,2174,2292,1788,1
3954.0,2166,2295,1793,1
3955.0,2170,2297,1782,1
3956.0,2174,2306,1783,1
3957.0,2172,2302,1785,1
3958.0,2167,2301,1790,1
3959.0,2167,2297,1786,1
3960.0,2178,2303,1790,1
3961.0,2179,2298,1791,1
3962.0,2181,2298,1781,1
3963.0,2179,2299,1788,1
3964.0,2180,2306,1801,1
3965.0,2176,2307,1806,1
3966.0,2174,2300,1803,1
3967.0,2168,2296,1795,1
3968.0,2167,2292,1782,1
3969.0,2169,2294,1781,1
3970.0,2184,2296,1780,1
3971.0,2169,2301,1781,1
3972.0,2167,2298,1784,1
3973.0,2173,2307,1797,1
3974.0,2176,2300,1797,1
3975.0,2176,2302,1790,1
3976.0,2171,2293,1786,1
3977.0,2173,2299,1789,1
3978.0,2175,2295,1786,1
3979.0,2174,2297,1787,1
3980.0,2177,2300,1790,1
3981.0,2176,2295,1774,1
3982.0,2179,2296,1777,1
3983.0,2170,2299,1794,1
3984.0,2176,2296,1795,1
3985.0,2178,2294,1789,1
3986.0,2174,2293,1790,1
3987.0,2174,2293,1794,1
3988.0,2181,2297,1800,1
3989.0,2170,2299,1795,1
3990.0,2167,2300,1788,1
3991.0,2171,2293,1786,1
3992.0,2179,2295,1774,1
3993.0,2175,2312,1778,1
3994.0,2173,2313,1785,1
3995.0,2177,2313,1800,1
3996.0,2180,2291,1788,1
3997.0,2187,2301,1782,1
3998.0,2179,2307,1795,1
3999.0,2167,2292,1798,1
4000.0,2165,2288,1793,1
4001.0,2168,2288,1787,1
4002.0,2171,2293,1790,1
4003.0,2165,2295,1785,1
4004.0,2174,2295,1781,1
4005.0,2184,2294,1782,1
4006.0,2181,2303,1781,1
4007.0,2178,2311,1792,1
4008.0,2176,2301,1798,1
4009.0,2174,2293,1784,1
4010.0,2174,2292,1786,1
4011.0,2174,2300,1787,1
4012.0,2171,2296,1781,1
4013.0,2174,2295,1783,1
4014.0,2167,2298,1795,1
4015.0,2175,2299,1793,1
4016.0,2168,2297,1795,1
4017.0,2166,2296,1779,1
4018.0,2177,2289,1779,1
4019.0,2177,2288,1781,1
4020.0,2175,2301,1784,1
4021.0,2177,2298,1791,1
4022.0,2170,2301,1796,1
4023.0,2178,2298,1805,1
4024.0,2171,2293,1790,1
4025.0,2177,2293,1777,1
4026.0,2177,2290,1772,1
4027.0,2174,2298,1779,1
4028.0,2172,2297,1791,1
4029.0,2167,2299,1793,1
4030.0,2169,2295,1798,1
4031.0,2167,2299,1802,1
4032.0,2169,2293,1790,1
4033.0,2182,2295,1775,1
4034.0,2176,2298,1770,1
4035.0,2160,2308,1791,1
4036.0,2163,2305,1813,1
4037.0,2177,2297,1799,1
4038.0,2179,2289,1782,1
4039.0,2174,2302,1774,1
4040.0,2177,2306,1777,1
4041.0,2183,2301,1786,1
4042.0,2172,2305,1798,1
4043.0,2174,2291,1793,1
4044.0,2171,2292,1795,1
4045.0,2171,2299,1791,1
4046.0,2167,2296,1788,1
4047.0,2166,2301,1796,1
4048.0,2175,2296,1790,1
4049.0,2174,2294,1777,1
4050.0,2177,2295,1775,1
4051.0,2179,2299,1786,1
4052.0,2178,2296,1786,1
4053.0,2175,2289,1780,1
4054.0,2173,2297,1787,1
4055.0,2169,2302,1793,1
4056.0,2172,2301,1799,1
4057.0,2172,2296,1788,1
4058.0,2168,2302,1793,1
4059.0,2169,2300,1786,1
4060.0,2165,2296,1791,1
4061.0,2169,2295,1790,1
4062.0,2166,2297,1783,1
4063.0,2166,2303,1784,1
4064.0,2170,2299,1788,1
4065.0,2178,2294,1785,1
4066.0,2175,2300,1779,1
4067.0,2183,2298,1780,1
4068.0,2189,2303,1783,1
4069.0,2182,2295,1778,1
4070.0,2178,2296,1795,1
4071.0,2173,2303,1809,1
4072.0,2169,2298,1804,1
4073.0,2165,2298,1794,1
4074.0,2179,2293,1785,1
4075.0,2175,2296,1780,1
4076.0,2172,2295,1773,1
4077.0,2171,2293,1781,1
4078.0,2169,2300,1788,1
4079.0,2171,2294,1795,1
4080.0,2181,2292,1781,1
4081.0,2179,2294,1777,1
4082.0,2182,2292,1774,1
4083.0,2183,2290,1773,1
4084.0,2181,2292,1773,1
4085.0,2180,2292,1773,1
4086.0,2177,2291,1771,1
4087.0,2179,2287,1771,1
4088.0,2181,2289,1778,1
4089.0,2174,2294,1781,1
4090.0,2177,2295,1783,1
4091.0,2171,2302,1793,1
4092.0,2169,2298,1794,1
4093.0,2165,2294,1787,1
4094.0,2172,2296,1782,1
4095.0,2171,2298,1792,1
4096.0,2173,2289,1791,1
4097.0,2179,2292,1796,1
4098.0,2183,2299,1795,1
4099.0,2177,2301,1789,1
4100.0,2186,2294,1786,1
4101.0,2178,2296,1777,1
4102.0,2181,2295,1781,1
4103.0,2171,2293,1790,1
4104.0,2173,2290,1785,1
4105.0,2177,2294,1782,1
4106.0,2167,2299,1781,1
4107.0,2177,2299,1778,1
4108.0,2171,2299,1790,1
4109.0,2180,2299,1795,1
4110.0,2176,2303,1792,1
4111.0,2172,2295,1793,1
4112.0,2176,2297,1798,1
4113.0,2172,2290,1793,1
4114.0,2169,2287,1783,1
4115.0,2174,2290,1779,1
4116.0,2178,2295,1788,1
4117.0,2177,2290,1780,1
4118.0,2176,2295,1779,1
4119.0,2180,2298,1781,1
4120.0,2173,2301,1785,1
4121.0,2172,2294,1793,1
4122.0,2172,2301,1788,1
4123.0,2170,2297,1783,1
4124.0,2166,2299,1785,1
4125.0,2171,2298,1781,1
4126.0,2178,2299,1797,1
4127.0,2171,2299,1790,1
4128.0,2174,2296,1790,1
4129.0,2170,2297,1785,1
4130.0,2174,2294,1781,1
4131.0,2170,2298,1779,1
4132.0,2176,2299,1787,1
4133.0,2174,2294,1798,1
4134.0,2182,2295,1786,1
4135.0,2175,2291,1793,1
4136.0,2171,2291,1785,1
4137.0,2170,2289,1792,1
4138.0,2178,2289,1787,1
4139.0,2179,2298,1771,1
4140.0,2181,2292,1771,1
4141.0,2169,2297,1785,1
4142.0,2173,2299,1799,1
4143.0,2168,2296,1794,1
4144.0,2176,2295,1790,1
4145.0,2180,2299,1778,1
4146.0,2173,2298,1780,1
4147.0,2170,2301,1797,1
4148.0,2166,2302,1805,1
4149.0,2171,2297,1804,1
4150.0,2165,2290,1795,1
4151.0,2175,2298,1785,1
4152.0,2179,2293,1774,1
4153.0,2168,2303,1770,1
4154.0,2166,2305,1782,1
4155.0,2176,2296,1801,1
4156.0,2184,2295,1774,1
4157.0,2187,2293,1780,1
4158.0,2184,2301,1779,1
4159.0,2177,2305,1789,1
4160.0,2174,2306,1799,1
4161.0,2173,2303,1800,1
4162.0,2172,2305,1802,1
4163.0,2167,2291,1798,1
4164.0,2177,2288,1794,1
4165.0,2180,2286,1785,1
4166.0,2179,2285,1779,1
4167.0,2174,2290,1792,1
4168.0,2175,2291,1792,1
4169.0,2170,2287,1787,1
4170.0,2170,2287,1781,1
4171.0,2177,2288,1783,1
4172.0,2171,2283,1767,1
4173.0,2178,2280,1769,1
4174.0,2193,2304,1772,1
4175.0,2187,2307,1772,1
4176.0,2183,2310,1793,1
4177.0,2182,2301,1797,1
4178.0,2176,2289,1793,1
4179.0,2173,2288,1800,1
4180.0,2175,2292,1797,1
4181.0,2169,2297,1787,1
4182.0,2176,2293,1790,1
4183.0,2172,2289,1780,1
4184.0,2175,2291,1771,1
4185.0,2171,2296,1783,1
4186.0,2166,2298,1782,1
4187.0,2180,2307,1795,1
4188.0,2179,2300,1807,1
4189.0,2178,2293,1797,1
4190.0,2170,2295,1787,1
4191.0,2171,2291,1801,1
4192.0,2175,2285,1783,1
4193.0,2183,2286,1768,1
4194.0,2175,2299,1792,1
4195.0,2171,2306,1794,1
4196.0,2177,2309,1798,1
4197.0,2176,2299,1808,1
4198.0,2176,2301,1801,1
4199.0,2177,2302,1781,1
4200.0,2181,2295,1783,1
4201.0,2179,2294,1781,1
4202.0,2177,2291,1783,1
4203.0,2179,2297,1793,1
4204.0,2183,2302,1786,1
4205.0,2184,2309,1777,1
4206.0,2178,2301,1794,1
4207.0,2178,2301,1797,1
4208.0,2175,2295,1797,1
4209.0,2177,2288,1786,1
4210.0,2169,2298,1786,1
4211.0,2178,2299,1789,1
4212.0,2183,2297,1793,1
4213.0,2171,2303,1795,1
4214.0,2173,2304,1791,1
4215.0,2175,2293,1787,1
4216.0,2173,2289,1787,1
4217.0,2175,2297,1780,1
4218.0,2179,2295,1784,1
4219.0,2178,2294,1791,1
4220.0,2178,2293,1789,1
4221.0,2175,2293,1787,1
4222.0,2171,2291,1786,1
4223.0,2170,2297,1782,1
4224.0,2181,2290,1773,1
4225.0,2179,2286,1769,1
4226.0,2179,2294,1773,1
4227.0,2176,2308,1784,1
4228.0,2170,2311,1795,1
4229.0,2166,2298,1810,1
4230.0,2167,2289,1808,1
4231.0,2175,2295,1795,1
4232.0,2179,2297,1784,1
4233.0,2166,2299,1773,1
4234.0,2164,2296,1778,1
4235.0,2171,2285,1791,1
4236.0,2180,2291,1799,1
4237.0,2176,2298,1783,1
4238.0,2174,2294,1779,1
4239.0,2176,2301,1795,1
4240.0,2177,2302,1792,1
4241.0,2180,2291,1788,1
4242.0,2176,2291,1785,1
4243.0,2179,2302,1791,1
4244.0,2174,2299,1790,1
4245.0,2181,2307,1787,1
4246.0,2171,2298,1785,1
4247.0,2167,2292,1787,1
4248.0,2170,2286,1788,1
4249.0,2172,2287,1777,1
4250.0,2173,2285,1778,1
4251.0,2173,2287,1780,1
4252.0,2175,2286,1781,1
4253.0,2174,2286,1781,1
4254.0,2178,2283,1777,1
4255.0,2179,2281,1783,1
4256.0,2178,2281,1783,1
4257.0,2181,2291,1784,1
4258.0,2179,2308,1788,1
4259.0,2166,2307,1791,1
4260.0,2165,2307,1793,1
4261.0,2177,2285,1785,1
4262.0,2161,2279,1778,1
4263.0,2172,2290,1779,1
4264.0,2179,2297,1783,1
4265.0,2175,2292,1785,1
4266.0,2176,2288,1781,1
4267.0,2173,2295,1783,1
4268.0,2170,2298,1786,1
4269.0,2175,2293,1805,1
4270.0,2176,2299,1803,1
4271.0,2191,2304,1790,1
4272.0,2176,2297,1774,1
4273.0,2169,2292,1767,1
4274.0,2175,2303,1792,1
4275.0,2173,2293,1796,1
4276.0,2176,2292,1784,1
4277.0,2185,2292,1790,1
4278.0,2175,2298,1801,1
4279.0,2175,2300,1809,1
4280.0,2172,2301,1804,1
4281.0,2179,2303,1792,1
4282.0,2171,2297,1783,1
4283.0,2182,2295,1783,1
4284.0,2176,2299,1773,1
4285.0,2166,2292,1788,1
4286.0,2171,2294,1800,1
4287.0,2172,2300,1792,1
4288.0,2179,2301,1781,1
4289.0,2185,2299,1773,1
4290.0,2186,2296,1772,1
4291.0,2182,2297,1790,1
4292.0,2182,2298,1803,1
4293.0,2174,2301,1803,1
4294.0,2179,2297,1798,1
4295.0,2176,2299,1794,1
4296.0,2169,2290,1788,1
4297.0,2163,2286,1788,1
4298.0,2172,2293,1781,1
4299.0,2173,2296,1780,1
4300.0,2161,2297,1786,1
4301.0,2164,2291,1790,1
4302.0,2167,2292,1782,1
4303.0,2164,2291,1789,1
4304.0,2167,2288,1791,1
4305.0,2174,2295,1779,1
4306.0,2183,2298,1777,1
4307.0,2182,2298,1774,1
4308.0,2183,2292,1780,1
4309.0,2179,2289,1783,1
4310.0,2171,2291,1787,1
4311.0,2175,2293,1801,1
4312.0,2180,2297,1798,1
4313.0,2173,2299,1794,1
4314.0,2179,2298,1794,1
4315.0,2183,2302,1790,1
4316.0,2175,2297,1790,1
4317.0,2174,2291,1783,1
4318.0,2178,2294,1781,1
4319.0,2176,2295,1779,1
4320.0,2166,2299,1790,1
4321.0,2169,2298,1784,1
4322.0,2178,2291,1778,1
4323.0,2188,2292,1775,1
4324.0,2168,2295,1775,1
4325.0,2160,2298,1800,1
4326.0,2158,2294,1813,1
4327.0,2181,2298,1805,1
4328.0,2179,2304,1785,1
4329.0,2179,2291,1766,1
4330.0,2182,2299,1758,1
4331.0,2174,2305,1776,1
4332.0,2164,2302,1781,1
4333.0,2180,2291,1772,1
4334.0,2193,2299,1777,1
4335.0,2180,2302,1802,1
4336.0,2175,2297,1807,1
4337.0,2170,2299,1804,1
4338.0,2161,2295,1803,1
4339.0,2167,2289,1803,1
4340.0,2179,2286,1778,1
4341.0,2175,2273,1762,1
4342.0,2170,2293,1766,1
4343.0,2178,2303,1790,1
4344.0,2165,2298,1800,1
4345.0,2176,2290,1782,1
4346.0,2181,2289,1769,1
4347.0,2189,2294,1760,1
4348.0,2185,2298,1770,1
4349.0,2171,2295,1794,1
4350.0,2158,2290,1813,1
4351.0,2160,2287,1806,1
4352.0,2154,2284,1785,1
4353.0,2167,2293,1778,1
4354.0,2167,2296,1769,1
4355.0,2167,2300,1761,1
4356.0,2175,2299,1776,1
4357.0,2182,2303,1788,1
4358.0,2169,2300,1785,1
4359.0,2168,2298,1791,1
4360.0,2177,2295,1803,1
4361.0,2162,2288,1781,1
4362.0,2166,2288,1789,1
4363.0,2167,2299,1795,1
4364.0,2165,2292,1778,1
4365.0,2167,2287,1788,1
4366.0,2170,2285,1773,1
4367.0,2178,2301,1779,1
4368.0,2178,2294,1793,1
4369.0,2179,2291,1785,1
4370.0,2185,2285,1800,1
4371.0,2184,2289,1785,1
4372.0,2179,2293,1775,1
4373.0,2179,2298,1783,1
4374.0,2183,2311,1789,1
4375.0,2174,2302,1783,1
4376.0,2177,2303,1772,1
4377.0,2173,2292,1773,1
4378.0,2176,2296,1791,1
4379.0,2170,2296,1796,1
4380.0,2168,2305,1802,1
4381.0,2180,2301,1797,1
4382.0,2179,2302,1788,1
4383.0,2170,2305,1795,1
4384.0,2173,2299,1785,1
4385.0,2170,2300,1795,1
4386.0,2173,2290,1796,1
4387.0,2186,2282,1772,1
4388.0,2167,2290,1764,1
4389.0,2173,2287,1785,1
4390.0,2182,2287,1783,1
4391.0,2181,2289,1755,1
4392.0,2178,2299,1775,1
4393.0,2172,2307,1788,1
4394.0,2169,2300,1814,1
4395.0,2175,2298,1807,1
4396.0,2180,2288,1801,1
4397.0,2181,2286,1780,1
4398.0,2185,2291,1782,1
4399.0,2170,2290,1774,1
4400.0,2158,2297,1772,1
4401.0,2153,2301,1788,1
4402.0,2159,2311,1777,1
4403.0,2160,2319,1779,1
4404.0,2177,2306,1770,1
4405.0,2184,2305,1773,1
4406.0,2169,2308,1786,1
4407.0,2178,2318,1814,1
4408.0,2173,2317,1830,1
4409.0,2165,2321,1804,1
4410.0,2169,2310,1805,1
4411.0,2179,2291,1807,1
4412.0,2175,2287,1779,1
4413.0,2172,2286,1775,1
4414.0,2155,2285,1778,1
4415.0,2165,2289,1780,1
4416.0,2173,2287,1782,1
4417.0,2165,2286,1785,1
4418.0,2172,2288,1782,1
4419.0,2173,2285,1775,1
4420.0,2170,2298,1800,1
4421.0,2168,2297,1798,1
4422.0,2172,2296,1783,1
4423.0,2173,2286,1775,1
4424.0,2164,2285,1775,1
4425.0,2173,2277,1787,1
4426.0,2168,2295,1782,1
4427.0,2172,2303,1777,1
4428.0,2170,2301,1783,1
4429.0,2171,2299,1789,1
4430.0,2167,2298,1791,1
4431.0,2170,2296,1796,1
4432.0,2163,2293,1795,1
4433.0,2173,2292,1781,1
4434.0,2171,2296,1770,1
4435.0,2182,2297,1771,1
4436.0,2175,2304,1780,1
4437.0,2172,2298,1797,1
4438.0,2169,2301,1804,1
4439.0,2171,2302,1802,1
4440.0,2171,2300,1799,1
4441.0,2173,2295,1789,1
4442.0,2173,2295,1784,1
4443.0,2167,2301,1782,1
4444.0,2176,2290,1790,1
4445.0,2175,2291,1786,1
4446.0,2169,2297,1780,1
4447.0,2168,2296,1789,1
4448.0,2172,2295,1780,1
4449.0,2179,2294,1771,1
4450.0,2176,2296,1775,1
4451.0,2176,2297,1786,1
4452.0,2168,2299,1795,1
4453.0,2168,2298,1805,1
4454.0,2169,2297,1803,1
4455.0,2169,2294,1796,1
4456.0,2167,2297,1788,1
4457.0,2174,2297,1791,1
4458.0,2167,2299,1788,1
4459.0,2167,2297,1780,1
4460.0,2165,2298,1775,1
4461.0,2169,2284,1786,1
4462.0,2177,2300,1782,1
4463.0,2168,2295,1775,1
4464.0,2174,2292,1783,1
4465.0,2178,2293,1770,1
4466.0,2172,2299,1778,1
4467.0,2173,2307,1799,1
4468.0,2166,2303,1800,1
4469.0,2171,2303,1796,1
4470.0,2163,2302,1793,1
4471.0,2161,2292,1783,1
4472.0,2166,2294,1791,1
4473.0,2172,2294,1784,1
4474.0,2168,2293,1775,1
4475.0,2173,2301,1781,1
4476.0,2169,2305,1792,1
4477.0,2181,2303,1788,1
4478.0,2167,2297,1783,1
4479.0,2177,2289,1782,1
4480.0,2173,2289,1778,1
4481.0,2175,2299,1774,1
4482.0,2168,2301,1786,1
4483.0,2177,2293,1780,1
4484.0,2172,2299,1788,1
4485.0,2168,2294,1798,1
4486.0,2166,2293,1787,1
4487.0,2167,2294,1787,1
4488.0,2169,2293,1790,1
4489.0,2165,2303,1785,1
4490.0,2165,2299,1794,1
4491.0,2172,2303,1789,1
4492.0,2173,2285,1786,1
4493.0,2178,2294,1779,1
4494.0,2170,2293,1769,1
4495.0,2170,2296,1781,1
4496.0,2175,2293,1777,1
4497.0,2178,2300,1783,1
4498.0,2175,2299,1793,1
4499.0,2166,2301,1791,1
4500.0,2176,2298,1792,1
4501.0,2169,2296,1794,1
4502.0,2168,2304,1784,1
4503.0,2166,2296,1791,1
4504.0,2172,2301,1787,1
4505.0,2166,2299,1786,1
4506.0,2168,2302,1787,1
4507.0,2167,2300,1792,1
4508.0,2170,2293,1789,1
4509.0,2175,2295,1788,1
4510.0,2176,2299,1786,1
4511.0,2174,2303,1783,1
4512.0,2171,2295,1782,1
4513.0,2177,2289,1786,1
4514.0,2174,2301,1782,1
4515.0,2165,2298,1775,1
4516.0,2169,2304,1783,1
4517.0,2169,2304,1789,1
4518.0,2168,2299,1789,1
4519.0,2168,2298,1791,1
4520.0,2163,2300,1784,1
4521.0,2169,2297,1789,1
4522.0,2169,2298,1786,1
4523.0,2170,2298,1787,1
4524.0,2167,2298,1780,1
4525.0,2169,2303,1783,1
4526.0,2166,2299,1786,1
4527.0,2169,2289,1784,1
4528.0,2171,2298,1787,1
4529.0,2171,2293,1785,1
4530.0,2174,2294,1781,1
4531.0,2174,2298,1782,1
4532.0,2171,2302,1789,1
4533.0,2167,2295,1793,1
4534.0,2165,2296,1795,1
4535.0,2172,2299,1783,1
4536.0,2168,2301,1785,1
4537.0,2167,2295,1778,1
4538.0,2171,2297,1781,1
4539.0,2170,2300,1791,1
4540.0,2172,2299,1787,1
4541.0,2171,2296,1789,1
4542.0,2167,2293,1786,1
4543.0,2171,2293,1782,1
4544.0,2177,2295,1781,1
4545.0,2174,2299,1779,1
4546.0,2178,2295,1783,1
4547.0,2174,2294,1786,1
4548.0,2171,2296,1790,1
4549.0,2171,2295,1786,1
4550.0,2171,2294,1785,1
4551.0,2166,2301,1782,1
4552.0,2165,2300,1786,1
4553.0,2166,2297,1789,1
4554.0,2174,2293,1788,1
4555.0,2178,2297,1785,1
4556.0,2167,2298,1782,1
4557.0,2168,2295,1783,1
4558.0,2178,2296,1786,1
4559.0,2169,2297,1779,1
4560.0,2173,2290,1785,1
4561.0,2166,2299,1789,1
4562.0,2176,2291,1789,1
4563.0,2169,2299,1793,1
4564.0,2170,2297,1786,1
4565.0,2174,2301,1783,1
4566.0,2164,2299,1788,1
4567.0,2166,2294,1787,1
4568.0,2167,2295,1784,1
4569.0,2168,2292,1789,1
4570.0,2165,2301,1792,1
4571.0,2170,2302,1793,1
4572.0,2175,2298,1786,1
4573.0,2179,2292,1774,1
4574.0,2176,2292,1777,1
4575.0,2169,2296,1779,1
4576.0,2177,2299,1791,1
4577.0,2175,2298,1792,1
4578.0,2171,2294,1782,1
4579.0,2168,2295,1782,1
4580.0,2172,2294,1783,1
4581.0,2171,2300,1791,1
4582.0,2167,2295,1783,1
4583.0,2168,2294,1792,1
4584.0,2168,2299,1785,1
4585.0,2170,2302,1789,1
4586.0,2170,2306,1791,1
4587.0,2169,2303,1793,1
4588.0,2173,2302,1791,1
4589.0,2166,2299,1788,1
4590.0,2175,2299,1792,1
4591.0,2174,2299,1792,1
4592.0,2171,2299,1792,1
4593.0,2169,2299,1791,1
4594.0,2170,2299,1795,1
4595.0,2169,2301,1793,1
4596.0,2170,2301,1793,1
4597.0,2176,2296,1795,1
4598.0,2169,2302,1789,1
4599.0,2170,2298,1784,1
4600.0,2173,2299,1791,1
4601.0,2171,2296,1791,1
4602.0,2170,2298,1786,1
4603.0,2168,2299,1790,1
4604.0,2170,2301,1787,1
4605.0,2167,2296,1791,1
4606.0,2168,2300,1797,1
4607.0,2176,2299,1784,1
4608.0,2175,2297,1778,1
4609.0,2175,2297,1774,1
4610.0,2174,2291,1778,1
4611.0,2175,2299,1789,1
4612.0,2169,2303,1801,1
4613.0,2171,2298,1788,1
4614.0,2164,2305,1787,1
4615.0,2166,2296,1791,1
4616.0,2167,2299,1785,1
4617.0,2170,2298,1782,1
4618.0,2172,2299,1792,1
4619.0,2166,2301,1789,1
4620.0,2174,2301,1790,1
4621.0,2177,2296,1786,1
4622.0,2166,2297,1783,1
4623.0,2177,2294,1790,1
4624.0,2171,2301,1783,1
4625.0,2174,2297,1772,1
4626.0,2170,2302,1789,1
4627.0,2173,2297,1790,1
4628.0,2171,2299,1787,1
4629.0,2170,2297,1790,1
4630.0,2169,2300,1784,1
4631.0,2170,2295,1785,1
4632.0,2167,2300,1790,1
4633.0,2167,2302,1788,1
4634.0,2164,2298,1792,1
4635.0,2173,2297,1783,1
4636.0,2168,2292,1786,1
4637.0,2174,2299,1790,1
4638.0,2171,2303,1784,1
4639.0,2174,2299,1783,1
4640.0,2167,2299,1795,1
4641.0,2179,2292,1791,1
4642.0,2171,2291,1789,1
4643.0,2167,2295,1790,1
4644.0,2169,2296,1787,1
4645.0,2171,2298,1781,1
4646.0,2175,2297,1783,1
4647.0,2175,2301,1783,1
4648.0,2172,2303,1782,1
4649.0,2167,2297,1782,1
4650.0,2173,2303,1789,1
4651.0,2168,2299,1781,1
4652.0,2171,2297,1783,1
4653.0,2165,2294,1783,1
4654.0,2173,2299,1781,1
4655.0,2169,2297,1780,1
4656.0,2174,2296,1790,1
4657.0,2163,2299,1794,1
4658.0,2175,2300,1796,1
4659.0,2170,2297,1791,1
4660.0,2165,2300,1779,1
4661.0,2163,2296,1781,1
4662.0,2165,2299,1785,1
4663.0,2174,2293,1783,1
4664.0,2168,2293,1781,1
4665.0,2168,2299,1788,1
4666.0,2165,2300,1792,1
4667.0,2164,2290,1798,1
4668.0,2172,2291,1789,1
4669.0,2174,2295,1793,1
4670.0,2171,2301,1786,1
4671.0,2169,2294,1774,1
4672.0,2180,2284,1771,1
4673.0,2176,2287,1767,1
4674.0,2176,2297,1776,1
4675.0,2178,2300,1795,1
4676.0,2165,2301,1793,1
4677.0,2170,2310,1800,1
4678.0,2166,2306,1805,1
4679.0,2165,2294,1781,1
4680.0,2166,2303,1783,1
4681.0,2170,2299,1780,1
4682.0,2166,2303,1774,1
4683.0,2174,2302,1781,1
4684.0,2173,2294,1788,1
4685.0,2162,2293,1797,1
4686.0,2159,2294,1800,1
4687.0,2166,2280,1799,1
4688.0,2173,2292,1772,1
4689.0,2172,2304,1796,1
4690.0,2167,2303,1801,1
4691.0,2167,2289,1784,1
4692.0,2169,2299,1782,1
4693.0,2176,2296,1788,1
4694.0,2171,2298,1785,1
4695.0,2173,2300,1777,1
4696.0,2169,2299,1774,1
4697.0,2166,2301,1772,1
4698.0,2156,2300,1777,1
4699.0,2171,2288,1787,1
4700.0,2174,2300,1795,1
4701.0,2159,2298,1797,1
4702.0,2165,2297,1798,1
4703.0,2174,2299,1775,1
4704.0,2171,2296,1766,1
4705.0,2171,2295,1785,1
4706.0,2173,2302,1785,1
4707.0,2173,2301,1787,1
4708.0,2171,2302,1793,1
4709.0,2171,2299,1790,1
4710.0,2172,2296,1782,1
4711.0,2167,2296,1784,1
4712.0,2169,2305,1780,1
4713.0,2163,2303,1791,1
4714.0,2158,2302,1788,1
4715.0,2183,2302,1789,1
4716.0,2167,2304,1781,1
4717.0,2170,2300,1778,1
4718.0,2167,2296,1781,1
4719.0,2183,2295,1768,1
4720.0,2182,2302,1779,1
4721.0,2173,2300,1795,1
4722.0,2164,2305,1793,1
4723.0,2160,2287,1804,1
4724.0,2168,2281,1801,1
4725.0,2170,2281,1797,1
4726.0,2166,2301,1788,1
4727.0,2172,2297,1785,1
4728.0,2172,2294,1771,1
4729.0,2178,2292,1774,1
4730.0,2181,2297,1775,1
4731.0,2164,2296,1779,1
4732.0,2165,2291,1785,1
4733.0,2171,2300,1782,1
4734.0,2166,2305,1758,1
4735.0,2171,2307,1771,1
4736.0,2164,2303,1786,1
4737.0,2167,2299,1793,1
4738.0,2173,2296,1807,1
4739.0,2173,2301,1808,1
4740.0,2172,2306,1795,1
4741.0,2179,2291,1793,1
4742.0,2187,2292,1782,1
4743.0,2188,2292,1773,1
4744.0,2174,2295,1785,1
4745.0,2183,2297,1786,1
4746.0,2167,2298,1784,1
4747.0,2175,2289,1787,1
4748.0,2162,2297,1799,1
4749.0,2160,2298,1791,1
4750.0,2159,2303,1780,1
4751.0,2152,2299,1773,1
4752.0,2171,2293,1775,1
4753.0,2168,2291,1787,1
4754.0,2179,2293,1790,1
4755.0,2180,2305,1783,1
4756.0,2170,2303,1792,1
4757.0,2180,2299,1796,1
4758.0,2178,2297,1783,1
4759.0,2168,2300,1785,1
4760.0,2167,2287,1768,1
4761.0,2168,2289,1769,1
4762.0,2167,2292,1769,1
4763.0,2168,2292,1765,1
4764.0,2172,2294,1763,1
4765.0,2178,2289,1779,1
4766.0,2174,2307,1802,1
4767.0,2167,2295,1790,1
4768.0,2165,2297,1799,1
4769.0,2161,2300,1796,1
4770.0,2166,2295,1796,1
4771.0,2171,2297,1794,1
4772.0,2170,2303,1783,1
4773.0,2162,2307,1783,1
4774.0,2179,2300,1796,1
4775.0,2195,2296,1776,1
4776.0,2177,2301,1769,1
4777.0,2180,2301,1787,1
4778.0,2176,2304,1790,1
4779.0,2171,2301,1788,1
4780.0,2168,2302,1801,1
4781.0,2162,2304,1804,1
4782.0,2162,2298,1801,1
4783.0,2166,2296,1797,1
4784.0,2167,2302,1785,1
4785.0,2168,2313,1784,1
4786.0,2165,2287,1780,1
4787.0,2185,2291,1787,1
4788.0,2170,2297,1773,1
4789.0,2183,2293,1779,1
4790.0,2173,2298,1780,1
4791.0,2168,2298,1766,1
4792.0,2166,2306,1802,1
4793.0,2163,2299,1795,1
4794.0,2171,2294,1790,1
4795.0,2169,2293,1792,1
4796.0,2168,2298,1786,1
4797.0,2166,2301,1780,1
4798.0,2174,2291,1787,1
4799.0,2186,2295,1783,1
4800.0,2179,2294,1781,1
4801.0,2172,2295,1783,1
4802.0,2179,2286,1791,1
4803.0,2176,2299,1773,1
4804.0,2179,2297,1775,1
4805.0,2174,2304,1789,1
4806.0,2165,2305,1785,1
4807.0,2167,2301,1800,1
4808.0,2156,2298,1803,1
4809.0,2166,2304,1789,1
4810.0,2161,2294,1782,1
4811.0,2166,2283,1774,1
4812.0,2176,2295,1785,1
4813.0,2171,2295,1783,1
4814.0,2176,2290,1774,1
4815.0,2173,2298,1772,1
4816.0,2175,2309,1785,1
4817.0,2177,2310,1803,1
4818.0,2167,2309,1796,1
4819.0,2174,2306,1792,1
4820.0,2167,2295,1789,1
4821.0,2163,2287,1787,1
4822.0,2164,2291,1786,1
4823.0,2172,2295,1784,1
4824.0,2169,2287,1788,1
4825.0,2166,2292,1790,1
4826.0,2171,2290,1781,1
4827.0,2168,2287,1775,1
4828.0,2172,2294,1763,1
4829.0,2170,2305,1774,1
4830.0,2165,2305,1794,1
4831.0,2169,2305,1795,1
4832.0,2163,2302,1801,1
4833.0,2168,2301,1795,1
4834.0,2165,2299,1791,1
4835.0,2181,2305,1789,1
4836.0,2180,2307,1788,1
4837.0,2161,2296,1785,1
4838.0,2177,2287,1797,1
4839.0,2169,2298,1773,1
4840.0,2182,2303,1764,1
4841.0,2177,2300,1782,1
4842.0,2173,2297,1786,1
4843.0,2167,2294,1789,1
4844.0,2168,2294,1803,1
4845.0,2173,2294,1801,1
4846.0,2169,2285,1796,1
4847.0,2167,2302,1787,1
4848.0,2171,2299,1786,1
4849.0,2175,2301,1779,1
4850.0,2178,2291,1773,1
4851.0,2177,2281,1776,1
4852.0,2184,2292,1776,1
4853.0,2162,2295,1769,1
4854.0,2165,2304,1783,1
4855.0,2160,2309,1800,1
4856.0,2164,2310,1786,1
4857.0,2163,2303,1795,1
4858.0,2171,2300,1779,1
4859.0,2170,2299,1785,1
4860.0,2168,2301,1798,1
4861.0,2166,2305,1795,1
4862.0,2161,2302,1791,1
4863.0,2167,2302,1789,1
4864.0,2169,2305,1774,1
4865.0,2162,2312,1786,1
4866.0,2165,2293,1801,1
4867.0,2178,2287,1801,1
4868.0,2165,2298,1785,1
4869.0,2177,2294,1777,1
4870.0,2175,2289,1769,1
4871.0,2181,2290,1767,1
4872.0,2182,2297,1775,1
4873.0,2169,2299,1778,1
4874.0,2160,2306,1787,1
4875.0,2151,2307,1821,1
4876.0,2155,2302,1819,1
4877.0,2167,2296,1791,1
4878.0,2167,2297,1775,1
4879.0,2168,2301,1771,1
4880.0,2161,2306,1782,1
4881.0,2159,2306,1786,1
4882.0,2183,2287,1775,1
4883.0,2176,2289,1774,1
4884.0,2176,2296,1762,1
4885.0,2166,2301,1779,1
4886.0,2172,2299,1785,1
4887.0,2167,2301,1790,1
4888.0,2167,2298,1787,1
4889.0,2158,2303,1791,1
4890.0,2164,2300,1795,1
4891.0,2170,2300,1784,1
4892.0,2164,2292,1789,1
4893.0,2167,2300,1782,1
4894.0,2167,2311,1775,1
4895.0,2162,2309,1797,1
4896.0,2165,2303,1792,1
4897.0,2187,2289,1782,1
4898.0,2170,2286,1779,1
4899.0,2179,2289,1775,1
4900.0,2168,2287,1764,1
4901.0,2167,2288,1786,1
4902.0,2160,2298,1801,1
4903.0,2158,2295,1802,1
4904.0,2162,2291,1797,1
4905.0,2163,2295,1791,1
4906.0,2171,2297,1784,1
4907.0,2169,2300,1785,1
4908.0,2177,2309,1789,1
4909.0,2171,2302,1786,1
4910.0,2170,2300,1786,1
4911.0,2166,2307,1786,1
4912.0,2165,2307,1793,1
4913.0,2159,2312,1796,1
4914.0,2159,2314,1791,1
4915.0,2160,2305,1783,1
4916.0,2163,2295,1775,1
4917.0,2160,2291,1770,1
4918.0,2160,2295,1777,1
4919.0,2157,2300,1781,1
4920.0,2162,2301,1781,1
4921.0,2160,2308,1789,1
4922.0,2156,2298,1798,1
4923.0,2150,2285,1779,1
4924.0,2142,2285,1769,1
4925.0,2159,2295,1778,1
4926.0,2151,2303,1794,1
4927.0,2152,2299,1788,1
4928.0,2159,2300,1788,1
4929.0,2156,2299,1779,1
4930.0,2156,2295,1782,1
4931.0,2159,2297,1784,1
4932.0,2167,2296,1785,1
4933.0,2173,2290,1790,1
4934.0,2173,2295,1785,1
4935.0,2187,2295,1781,1
4936.0,2176,2302,1778,1
4937.0,2173,2306,1778,1
4938.0,2164,2307,1792,1
4939.0,2167,2300,1795,1
4940.0,2164,2301,1794,1
4941.0,2170,2291,1797,1
4942.0,2172,2293,1778,1
4943.0,2176,2291,1772,1
4944.0,2171,2293,1781,1
4945.0,2159,2295,1783,1
4946.0,2164,2293,1795,1
4947.0,2180,2294,1786,1
4948.0,2163,2302,1771,1
4949.0,2159,2291,1770,1
4950.0,2169,2297,1776,1
4951.0,2162,2304,1780,1
4952.0,2163,2305,1783,1
4953.0,2166,2300,1788,1
4954.0,2165,2296,1782,1
4955.0,2169,2308,1799,1
4956.0,2172,2299,1803,1
4957.0,2177,2300,1797,1
4958.0,2171,2309,1793,1
4959.0,2172,2293,1798,1
4960.0,2170,2297,1789,1
4961.0,2176,2296,1788,1
4962.0,2160,2295,1785,1
4963.0,2162,2296,1779,1
4964.0,2160,2297,1767,1
4965.0,2169,2300,1768,1
4966.0,2166,2302,1784,1
4967.0,2168,2302,1781,1
4968.0,2164,2308,1795,1
4969.0,2163,2300,1810,1
4970.0,2163,2295,1801,1
4971.0,2170,2289,1789,1
4972.0,2171,2298,1776,1
4973.0,2166,2301,1776,1
4974.0,2167,2302,1788,1
4975.0,2168,2304,1798,1
4976.0,2170,2305,1795,1
4977.0,2161,2297,1775,1
4978.0,2164,2291,1779,1
4979.0,2171,2287,1771,1
4980.0,2165,2300,1768,1
4981.0,2163,2305,1781,1
4982.0,2171,2301,1793,1
4983.0,2171,2299,1790,1
4984.0,2162,2295,1793,1
4985.0,2164,2303,1795,1
4986.0,2169,2300,1788,1
4987.0,2171,2297,1778,1
4988.0,2175,2299,1777,1
4989.0,2164,2298,1789,1
4990.0,2161,2302,1788,1
4991.0,2161,2295,1785,1
4992.0,2161,2297,1784,1
4993.0,2169,2299,1785,1
4994.0,2169,2300,1783,1
4995.0,2171,2299,1776,1
4996.0,2174,2301,1777,1
4997.0,2170,2298,1788,1
4998.0,2176,2298,1787,1
4999.0,2172,2296,1784,1
5000.0,2166,2300,1786,1
5001.0,2171,2304,1788,1
5002.0,2174,2299,1789,1
5003.0,2171,2300,1779,1
5004.0,2171,2293,1782,1
5005.0,2164,2296,1786,1
5006.0,2165,2301,1790,1
5007.0,2161,2299,1793,1
5008.0,2165,2298,1782,1
5009.0,2166,2300,1781,1
5010.0,2167,2295,1782,1
5011.0,2167,2301,1788,1
5012.0,2170,2298,1787,1
5013.0,2169,2301,1779,1
5014.0,2173,2297,1785,1
5015.0,2174,2293,1782,1
5016.0,2174,2295,1781,1
5017.0,2169,2297,1787,1
5018.0,2172,2301,1784,1
5019.0,2169,2305,1787,1
5020.0,2171,2304,1796,1
5021.0,2167,2299,1789,1
5022.0,2167,2289,1781,1
5023.0,2170,2300,1780,1
5024.0,2170,2301,1789,1
5025.0,2164,2297,1794,1
5026.0,2162,2295,1790,1
5027.0,2159,2289,1787,1
5028.0,2154,2287,1784,1
5029.0,2165,2296,1791,1
5030.0,2166,2295,1782,1
5031.0,2168,2292,1778,1
5032.0,2171,2287,1778,1
5033.0,2164,2283,1776,1
5034.0,2177,2291,1779,1
5035.0,2172,2288,1776,1
5036.0,2168,2287,1776,1
5037.0,2167,2297,1784,1
5038.0,2163,2302,1788,1
5039.0,2164,2307,1802,1
5040.0,2169,2310,1803,1
5041.0,2166,2306,1790,1
5042.0,2171,2303,1781,1
5043.0,2169,2306,1780,1
