timestamp,accX,accY,accZ,class
0.0,2057,2043,1665,1
1.0,2045,2039,1666,1
2.0,2042,2036,1662,1
3.0,2045,2042,1660,1
4.0,2043,2037,1660,1
5.0,2045,2036,1661,1
6.0,2042,2042,1662,1
7.0,2037,2037,1658,1
8.0,2041,2039,1659,1
9.0,2038,2039,1663,1
10.0,2043,2035,1669,1
11.0,2046,2041,1657,1
12.0,2043,2039,1669,1
13.0,2047,2036,1667,1
14.0,2044,2041,1669,1
15.0,2040,2041,1660,1
16.0,2043,2037,1664,1
17.0,2047,2039,1657,1
18.0,2042,2043,1668,1
19.0,2049,2037,1664,1
20.0,2038,2039,1670,1
21.0,2046,2038,1662,1
22.0,2044,2041,1662,1
23.0,2041,2038,1665,1
24.0,2041,2031,1670,1
25.0,2047,2038,1658,1
26.0,2042,2041,1663,1
27.0,2041,2038,1667,1
28.0,2046,2040,1664,1
29.0,2039,2043,1670,1
30.0,2043,2039,1661,1
31.0,2046,2043,1663,1
32.0,2039,2044,1661,1
33.0,2047,2042,1659,1
34.0,2039,2044,1664,1
35.0,2040,2042,1666,1
36.0,2042,2040,1667,1
37.0,2041,2039,1663,1
38.0,2039,2043,1669,1
39.0,2040,2038,1662,1
40.0,2045,2045,1666,1
41.0,2045,2041,1667,1
42.0,2046,2046,1663,1
43.0,2044,2034,1663,1
44.0,2040,2043,1663,1
45.0,2044,2045,1659,1
46.0,2043,2041,1662,1
47.0,2041,2039,1662,1
48.0,2038,2046,1662,1
49.0,2042,2042,1659,1
50.0,2047,2039,1668,1
51.0,2043,2042,1661,1
52.0,2041,2035,1664,1
53.0,2042,2038,1662,1
54.0,2041,2042,1668,1
55.0,2044,2040,1665,1
56.0,2038,2039,1659,1
57.0,2044,2046,1662,1
58.0,2043,2039,1663,1
59.0,2044,2040,1657,1
60.0,2041,2038,1658,1
61.0,2044,2040,1661,1
62.0,2046,2042,1661,1
63.0,2039,2039,1661,1
64.0,2042,2034,1663,1
65.0,2046,2041,1667,1
66.0,2034,2036,1660,1
67.0,2039,2039,1662,1
68.0,2039,2035,1664,1
69.0,2043,2039,1661,1
70.0,2039,2043,1662,1
71.0,2043,2041,1662,1
72.0,2040,2039,1662,1
73.0,2044,2044,1662,1
74.0,2042,2039,1661,1
75.0,2040,2045,1661,1
76.0,2043,2045,1661,1
77.0,2043,2042,1670,1
78.0,2045,2037,1667,1
79.0,2047,2048,1660,1
80.0,2042,2045,1666,1
81.0,2043,2042,1664,1
82.0,2040,2039,1666,1
83.0,2042,2037,1664,1
84.0,2042,2039,1662,1
85.0,2041,2035,1666,1
86.0,2039,2040,1665,1
87.0,2043,2041,1667,1
88.0,2039,2041,1663,1
89.0,2041,2043,1663,1
90.0,2048,2042,1657,1
91.0,2042,2041,1665,1
92.0,2040,2037,1665,1
93.0,2042,2045,1665,1
94.0,2039,2039,1658,1
95.0,2043,2040,1665,1
96.0,2042,2041,1659,1
97.0,2043,2043,1661,1
98.0,2042,2041,1660,1
99.0,2042,2042,1665,1
100.0,2045,2038,1665,1
101.0,2043,2037,1659,1
102.0,2040,2040,1662,1
103.0,2045,2042,1665,1
104.0,2044,2046,1667,1
105.0,2045,2042,1664,1
106.0,2042,2037,1661,1
107.0,2041,2047,1663,1
108.0,2042,2035,1665,1
109.0,2048,2040,1663,1
110.0,2038,2044,1662,1
111.0,2042,2039,1663,1
112.0,2045,2043,1664,1
113.0,2046,2035,1664,1
114.0,2043,2042,1667,1
115.0,2039,2037,1662,1
116.0,2044,2039,1662,1
117.0,2041,2040,1660,1
118.0,2041,2039,1664,1
119.0,2050,2040,1664,1
120.0,2046,2038,1665,1
121.0,2044,2041,1661,1
122.0,2045,2038,1659,1
123.0,2045,2040,1668,1
124.0,2042,2047,1662,1
125.0,2042,2043,1667,1
126.0,2047,2040,1659,1
127.0,2042,2039,1661,1
128.0,2041,2042,1662,1
129.0,2037,2042,1665,1
130.0,2043,2043,1665,1
131.0,2040,2035,1662,1
132.0,2041,2041,1662,1
133.0,2039,2037,1659,1
134.0,2043,2039,1663,1
135.0,2045,2043,1661,1
136.0,2044,2036,1661,1
137.0,2046,2044,1665,1
138.0,2034,2043,1664,1
139.0,2039,2040,1666,1
140.0,2040,2041,1663,1
141.0,2042,2042,1662,1
142.0,2045,2039,1664,1
143.0,2042,2043,1664,1
144.0,2039,2042,1660,1
145.0,2045,2037,1658,1
146.0,2046,2039,1665,1
147.0,2043,2034,1662,1
148.0,2048,2039,1665,1
149.0,2042,2043,1665,1
150.0,2038,2037,1660,1
151.0,2049,2041,1662,1
152.0,2041,2037,1663,1
153.0,2044,2038,1658,1
154.0,2045,2040,1661,1
155.0,2044,2036,1663,1
156.0,2042,2038,1667,1
157.0,2046,2041,1666,1
158.0,2039,2043,1669,1
159.0,2045,2039,1664,1
160.0,2046,2039,1666,1
161.0,2043,2042,1663,1
162.0,2045,2041,1665,1
163.0,2039,2040,1664,1
164.0,2044,2042,1662,1
165.0,2044,2036,1666,1
166.0,2040,2041,1666,1
167.0,2043,2043,1666,1
168.0,2046,2039,1658,1
169.0,2042,2041,1666,1
170.0,2036,2035,1665,1
171.0,2038,2041,1663,1
172.0,2040,2042,1662,1
173.0,2046,2040,1663,1
174.0,2035,2039,1663,1
175.0,2039,2038,1661,1
176.0,2041,2040,1665,1
177.0,2037,2037,1664,1
178.0,2040,2037,1658,1
179.0,2039,2041,1661,1
180.0,2039,2040,1657,1
181.0,2046,2043,1667,1
182.0,2040,2042,1663,1
183.0,2042,2042,1664,1
184.0,2048,2044,1663,1
185.0,2038,2042,1668,1
186.0,2043,2040,1663,1
187.0,2038,2041,1665,1
188.0,2039,2041,1658,1
189.0,2042,2043,1664,1
190.0,2044,2039,1659,1
191.0,2043,2042,1662,1
192.0,2041,2041,1661,1
193.0,2048,2037,1668,1
194.0,2043,2039,1659,1
195.0,2041,2037,1660,1
196.0,2035,2042,1657,1
197.0,2042,2039,1661,1
198.0,2043,2043,1664,1
199.0,2041,2044,1661,1
200.0,2044,2034,1666,1
201.0,2042,2040,1663,1
202.0,2036,2039,1668,1
203.0,2043,2040,1665,1
204.0,2042,2042,1668,1
205.0,2039,2039,1663,1
206.0,2041,2043,1665,1
207.0,2044,2042,1665,1
208.0,2041,2037,1661,1
209.0,2046,2036,1661,1
210.0,2045,2041,1659,1
211.0,2041,2037,1660,1
212.0,2039,2038,1665,1
213.0,2038,2040,1665,1
214.0,2042,2039,1663,1
215.0,2047,2043,1666,1
216.0,2045,2043,1669,1
217.0,2040,2039,1663,1
218.0,2044,2045,1670,1
219.0,2048,2043,1663,1
220.0,2046,2040,1663,1
221.0,2036,2042,1664,1
222.0,2039,2046,1668,1
223.0,2043,2037,1663,1
224.0,2041,2043,1665,1
225.0,2043,2042,1659,1
226.0,2043,2035,1663,1
227.0,2042,2039,1664,1
228.0,2038,2039,1661,1
229.0,2046,2038,1660,1
230.0,2044,2043,1663,1
231.0,2041,2041,1665,1
232.0,2044,2038,1670,1
233.0,2040,2045,1664,1
234.0,2051,2037,1666,1
235.0,2045,2041,1661,1
236.0,2045,2038,1667,1
237.0,2045,2044,1663,1
238.0,2041,2038,1666,1
239.0,2041,2036,1664,1
240.0,2045,2048,1667,1
241.0,2045,2041,1663,1
242.0,2043,2044,1665,1
243.0,2040,2039,1665,1
244.0,2041,2039,1663,1
245.0,2040,2039,1663,1
246.0,2041,2044,1665,1
247.0,2045,2037,1661,1
248.0,2042,2041,1664,1
249.0,2037,2038,1664,1
250.0,2049,2040,1661,1
251.0,2044,2041,1660,1
252.0,2041,2042,1666,1
253.0,2042,2037,1662,1
254.0,2042,2040,1663,1
255.0,2044,2038,1663,1
256.0,2039,2038,1663,1
257.0,2046,2039,1659,1
258.0,2032,2045,1661,1
259.0,2039,2041,1663,1
260.0,2042,2045,1664,1
261.0,2044,2043,1661,1
262.0,2041,2041,1665,1
263.0,2041,2036,1658,1
264.0,2040,2044,1665,1
265.0,2043,2036,1660,1
266.0,2045,2045,1660,1
267.0,2051,2040,1663,1
268.0,2048,2045,1661,1
269.0,2040,2038,1663,1
270.0,2043,2039,1666,1
271.0,2044,2041,1657,1
272.0,2039,2040,1668,1
273.0,2040,2043,1660,1
274.0,2044,2038,1665,1
275.0,2040,2041,1661,1
276.0,2043,2038,1661,1
277.0,2041,2040,1660,1
278.0,2037,2039,1669,1
279.0,2040,2039,1662,1
280.0,2038,2041,1663,1
281.0,2050,2041,1663,1
282.0,2042,2045,1665,1
283.0,2045,2041,1666,1
284.0,2042,2044,1668,1
285.0,2042,2046,1664,1
286.0,2040,2038,1667,1
287.0,2039,2047,1667,1
288.0,2047,2034,1664,1
289.0,2043,2039,1660,1
290.0,2043,2039,1661,1
291.0,2038,2038,1662,1
292.0,2043,2037,1662,1
293.0,2045,2044,1668,1
294.0,2042,2040,1665,1
295.0,2048,2039,1659,1
296.0,2043,2043,1662,1
297.0,2042,2039,1665,1
298.0,2044,2035,1663,1
299.0,2038,2042,1663,1
300.0,2043,2041,1661,1
301.0,2039,2039,1670,1
302.0,2044,2038,1667,1
303.0,2043,2046,1662,1
304.0,2045,2041,1662,1
305.0,2041,2036,1662,1
306.0,2042,2045,1665,1
307.0,2043,2038,1662,1
308.0,2047,2035,1662,1
309.0,2042,2040,1664,1
310.0,2043,2036,1656,1
311.0,2044,2039,1661,1
312.0,2046,2035,1663,1
313.0,2042,2045,1668,1
314.0,2046,2038,1667,1
315.0,2045,2042,1662,1
316.0,2038,2040,1663,1
317.0,2044,2037,1662,1
318.0,2045,2042,1667,1
319.0,2041,2039,1668,1
320.0,2048,2037,1661,1
321.0,2045,2041,1655,1
322.0,2044,2043,1662,1
323.0,2039,2046,1662,1
324.0,2042,2038,1662,1
325.0,2043,2038,1661,1
326.0,2051,2043,1658,1
327.0,2040,2040,1661,1
328.0,2042,2039,1661,1
329.0,2042,2036,1664,1
330.0,2043,2037,1663,1
331.0,2043,2043,1667,1
332.0,2042,2038,1660,1
333.0,2043,2043,1661,1
334.0,2048,2043,1664,1
335.0,2042,2040,1664,1
336.0,2036,2041,1664,1
337.0,2049,2038,1668,1
338.0,2048,2039,1658,1
339.0,2052,2034,1662,1
340.0,2045,2051,1671,1
341.0,2044,2049,1669,1
342.0,2040,2044,1660,1
343.0,2045,2035,1664,1
344.0,2039,2041,1657,1
345.0,2043,2047,1664,1
346.0,2044,2037,1665,1
347.0,2043,2043,1666,1
348.0,2038,2039,1660,1
349.0,2043,2043,1659,1
350.0,2047,2042,1661,1
351.0,2042,2039,1666,1
352.0,2038,2041,1662,1
353.0,2043,2039,1663,1
354.0,2043,2049,1666,1
355.0,2044,2041,1663,1
356.0,2045,2038,1660,1
357.0,2040,2043,1665,1
358.0,2046,2041,1663,1
359.0,2043,2041,1663,1
360.0,2043,2038,1666,1
361.0,2042,2038,1662,1
362.0,2050,2046,1667,1
363.0,2043,2038,1666,1
364.0,2045,2041,1666,1
365.0,2047,2035,1665,1
366.0,2042,2039,1668,1
367.0,2041,2040,1662,1
368.0,2043,2041,1665,1
369.0,2044,2041,1661,1
370.0,2039,2042,1664,1
371.0,2042,2041,1664,1
372.0,2045,2039,1661,1
373.0,2043,2038,1660,1
374.0,2045,2037,1664,1
375.0,2045,2042,1662,1
376.0,2046,2042,1663,1
377.0,2044,2045,1659,1
378.0,2042,2038,1665,1
379.0,2039,2040,1662,1
380.0,2042,2039,1662,1
381.0,2043,2043,1662,1
382.0,2043,2039,1667,1
383.0,2043,2037,1665,1
384.0,2049,2042,1663,1
385.0,2041,2043,1659,1
386.0,2045,2041,1667,1
387.0,2040,2039,1663,1
388.0,2035,2039,1667,1
389.0,2037,2043,1663,1
390.0,2044,2044,1659,1
391.0,2047,2036,1661,1
392.0,2040,2043,1667,1
393.0,2041,2040,1661,1
394.0,2046,2039,1663,1
395.0,2040,2039,1666,1
396.0,2041,2038,1667,1
397.0,2043,2041,1658,1
398.0,2040,2041,1658,1
399.0,2043,2040,1659,1
400.0,2042,2036,1657,1
401.0,2040,2039,1658,1
402.0,2044,2038,1657,1
403.0,2043,2038,1664,1
404.0,2042,2036,1669,1
405.0,2040,2040,1662,1
406.0,2045,2039,1661,1
407.0,2047,2038,1664,1
408.0,2044,2045,1666,1
409.0,2045,2044,1666,1
410.0,2042,2040,1662,1
411.0,2038,2038,1660,1
412.0,2043,2037,1660,1
413.0,2044,2035,1661,1
414.0,2040,2041,1660,1
415.0,2043,2043,1666,1
416.0,2041,2037,1666,1
417.0,2043,2038,1659,1
418.0,2041,2043,1670,1
419.0,2046,2038,1664,1
420.0,2045,2042,1662,1
421.0,2038,2038,1664,1
422.0,2045,2039,1656,1
423.0,2038,2042,1662,1
424.0,2044,2047,1663,1
425.0,2039,2034,1664,1
426.0,2042,2039,1665,1
427.0,2040,2040,1658,1
428.0,2043,2040,1661,1
429.0,2042,2043,1667,1
430.0,2044,2042,1661,1
431.0,2039,2037,1664,1
432.0,2035,2042,1664,1
433.0,2039,2041,1666,1
434.0,2037,2042,1663,1
435.0,2037,2037,1661,1
436.0,2038,2039,1665,1
437.0,2041,2039,1663,1
438.0,2044,2040,1658,1
439.0,2044,2032,1661,1
440.0,2046,2034,1663,1
441.0,2044,2039,1658,1
442.0,2048,2041,1662,1
443.0,2043,2045,1663,1
444.0,2046,2038,1661,1
445.0,2045,2038,1663,1
446.0,2034,2038,1658,1
447.0,2036,2033,1665,1
448.0,2041,2043,1665,1
449.0,2044,2044,1667,1
450.0,2041,2043,1665,1
451.0,2043,2036,1665,1
452.0,2041,2038,1662,1
453.0,2041,2039,1662,1
454.0,2036,2040,1660,1
455.0,2043,2040,1666,1
456.0,2040,2041,1660,1
457.0,2041,2039,1666,1
458.0,2042,2044,1662,1
459.0,2041,2044,1657,1
460.0,2040,2039,1667,1
461.0,2046,2041,1655,1
462.0,2040,2037,1670,1
463.0,2046,2040,1664,1
464.0,2040,2039,1662,1
465.0,2039,2039,1663,1
466.0,2036,2035,1661,1
467.0,2039,2037,1662,1
468.0,2044,2042,1663,1
469.0,2042,2038,1662,1
470.0,2040,2042,1664,1
471.0,2045,2035,1666,1
472.0,2039,2041,1665,1
473.0,2043,2045,1663,1
474.0,2045,2040,1667,1
475.0,2038,2042,1661,1
476.0,2047,2042,1660,1
477.0,2044,2040,1660,1
478.0,2049,2038,1662,1
479.0,2044,2045,1666,1
480.0,2043,2039,1663,1
481.0,2042,2048,1661,1
482.0,2043,2039,1662,1
483.0,2043,2040,1667,1
484.0,2041,2044,1662,1
485.0,2037,2037,1663,1
486.0,2044,2042,1664,1
487.0,2040,2034,1665,1
488.0,2042,2042,1662,1
489.0,2039,2044,1659,1
490.0,2045,2041,1659,1
491.0,2039,2040,1661,1
492.0,2048,2038,1667,1
493.0,2042,2043,1663,1
494.0,2045,2040,1665,1
495.0,2039,2038,1664,1
496.0,2042,2032,1664,1
497.0,2043,2042,1662,1
498.0,2043,2039,1663,1
499.0,2040,2041,1671,1
500.0,2043,2035,1664,1
501.0,2039,2046,1661,1
502.0,2040,2045,1665,1
503.0,2040,2043,1666,1
504.0,2036,2035,1661,1
505.0,2045,2042,1658,1
506.0,2042,2041,1664,1
507.0,2046,2045,1662,1
508.0,2040,2035,1664,1
509.0,2042,2044,1667,1
510.0,2045,2042,1669,1
511.0,2045,2039,1666,1
512.0,2043,2040,1665,1
513.0,2039,2042,1663,1
514.0,2040,2042,1664,1
515.0,2042,2039,1658,1
516.0,2039,2041,1666,1
517.0,2038,2040,1663,1
518.0,2039,2035,1661,1
519.0,2051,2042,1659,1
520.0,2040,2043,1664,1
521.0,2040,2038,1662,1
522.0,2037,2037,1662,1
523.0,2043,2039,1664,1
524.0,2042,2035,1661,1
525.0,2046,2039,1663,1
526.0,2041,2041,1659,1
527.0,2041,2041,1667,1
528.0,2040,2044,1659,1
529.0,2040,2042,1665,1
530.0,2041,2041,1664,1
531.0,2041,2044,1661,1
532.0,2044,2040,1665,1
533.0,2042,2041,1661,1
534.0,2040,2040,1666,1
535.0,2042,2040,1661,1
536.0,2045,2039,1662,1
537.0,2045,2042,1660,1
538.0,2046,2043,1663,1
539.0,2043,2040,1665,1
540.0,2038,2043,1665,1
541.0,2041,2039,1665,1
542.0,2039,2047,1666,1
543.0,2048,2037,1665,1
544.0,2042,2037,1662,1
545.0,2037,2044,1658,1
546.0,2041,2039,1665,1
547.0,2042,2043,1663,1
548.0,2043,2045,1661,1
549.0,2044,2040,1663,1
550.0,2043,2039,1661,1
551.0,2045,2041,1665,1
552.0,2045,2040,1663,1
553.0,2045,2041,1664,1
554.0,2043,2040,1666,1
555.0,2047,2036,1664,1
556.0,2039,2040,1660,1
557.0,2042,2049,1665,1
558.0,2040,2038,1663,1
559.0,2046,2043,1665,1
560.0,2046,2041,1664,1
561.0,2046,2041,1662,1
562.0,2042,2040,1658,1
563.0,2045,2039,1668,1
564.0,2041,2040,1665,1
565.0,2041,2041,1662,1
566.0,2048,2037,1663,1
567.0,2043,2039,1662,1
568.0,2040,2044,1661,1
569.0,2044,2041,1659,1
570.0,2045,2041,1660,1
571.0,2044,2037,1663,1
572.0,2043,2041,1661,1
573.0,2044,2041,1661,1
574.0,2038,2036,1666,1
575.0,2034,2056,1634,1
576.0,2058,2044,1625,1
577.0,2030,2033,1708,1
578.0,2031,2038,1636,1
579.0,2053,2044,1663,1
580.0,2037,2046,1698,1
581.0,2047,2041,1622,1
582.0,2046,2036,1681,1
583.0,2045,2040,1675,1
584.0,2045,2035,1656,1
585.0,2043,2032,1682,1
586.0,2038,2045,1646,1
587.0,2043,2041,1666,1
588.0,2041,2038,1664,1
589.0,2041,2045,1657,1
590.0,2047,2035,1664,1
591.0,2045,2042,1662,1
592.0,2043,2043,1652,1
593.0,2043,2037,1665,1
594.0,2045,2043,1661,1
595.0,2041,2046,1668,1
596.0,2041,2039,1665,1
597.0,2044,2049,1659,1
598.0,2044,2042,1668,1
599.0,2037,2040,1668,1
600.0,2045,2035,1659,1
601.0,2048,2039,1666,1
602.0,2045,2039,1659,1
603.0,2039,2044,1665,1
604.0,2042,2042,1668,1
605.0,2046,2041,1663,1
606.0,2038,2040,1662,1
607.0,2050,2038,1678,1
608.0,2043,2034,1659,1
609.0,2041,2039,1665,1
610.0,2045,2047,1664,1
611.0,2043,2044,1664,1
612.0,2041,2040,1664,1
613.0,2044,2034,1662,1
614.0,2042,2045,1663,1
615.0,1940,1976,1669,1
616.0,2041,2047,1655,1
617.0,2086,2073,1676,1
618.0,2099,2073,1667,1
619.0,2041,2035,1666,1
620.0,2052,2038,1666,1
621.0,2038,2043,1661,1
622.0,2031,2043,1667,1
623.0,2059,2037,1670,1
624.0,2043,2047,1667,1
625.0,2045,2038,1661,1
626.0,2042,2038,1666,1
627.0,2040,2036,1661,1
628.0,2045,2039,1665,1
629.0,2041,2038,1657,1
630.0,2037,2039,1665,1
631.0,2043,2037,1665,1
632.0,2042,2042,1662,1
633.0,2042,2038,1664,1
634.0,2039,2041,1660,1
635.0,2041,2044,1660,1
636.0,2042,2035,1660,1
637.0,2040,2040,1661,1
638.0,2044,2043,1663,1
639.0,2042,2043,1664,1
640.0,2048,2037,1667,1
641.0,2042,2039,1667,1
642.0,2046,2041,1665,1
643.0,2042,2039,1671,1
644.0,2038,2037,1669,1
645.0,2040,2029,1657,1
646.0,2041,2040,1671,1
647.0,2043,2043,1665,1
648.0,2043,2039,1660,1
649.0,2042,2037,1664,1
650.0,2039,2038,1659,1
651.0,2041,2038,1665,1
652.0,2042,2040,1659,1
653.0,2045,2039,1666,1
654.0,2043,2035,1663,1
655.0,2045,2041,1663,1
656.0,2047,2038,1664,1
657.0,2042,2040,1658,1
658.0,2040,2043,1665,1
659.0,2043,2038,1665,1
660.0,2043,2039,1664,1
661.0,2043,2039,1659,1
662.0,2041,2040,1664,1
663.0,2044,2039,1664,1
664.0,2044,2044,1661,1
665.0,2039,2034,1661,1
666.0,2038,2038,1657,1
667.0,2039,2040,1658,1
668.0,2037,2041,1673,1
669.0,2041,2038,1661,1
670.0,2041,2041,1655,1
671.0,2042,2038,1664,1
672.0,2042,2040,1664,1
673.0,2038,2042,1666,1
674.0,2042,2039,1662,1
675.0,2042,2038,1655,1
676.0,2041,2039,1667,1
677.0,2043,2034,1659,1
678.0,2042,2043,1669,1
679.0,2047,2038,1667,1
680.0,2038,2026,1661,1
681.0,2038,2029,1660,1
682.0,2036,2037,1662,1
683.0,2042,2039,1660,1
684.0,2041,2040,1665,1
685.0,2042,2039,1665,1
686.0,2043,2039,1663,1
687.0,2039,2042,1655,1
688.0,2043,2043,1658,1
689.0,2040,2034,1660,1
690.0,2043,2033,1660,1
691.0,2040,2042,1663,1
692.0,2047,2044,1663,1
693.0,2039,2038,1662,1
694.0,2042,2044,1665,1
695.0,2036,2036,1662,1
696.0,2042,2039,1662,1
697.0,2044,2041,1664,1
698.0,2042,2040,1663,1
699.0,2045,2040,1662,1
700.0,2048,2043,1664,1
701.0,2039,2036,1662,1
702.0,2043,2037,1662,1
703.0,2042,2035,1665,1
704.0,2045,2039,1663,1
705.0,2042,2043,1661,1
706.0,2039,2040,1665,1
707.0,2042,2034,1664,1
708.0,2040,2038,1661,1
709.0,2044,2043,1662,1
710.0,2042,2039,1666,1
711.0,2046,2037,1667,1
712.0,2045,2034,1664,1
713.0,2035,2039,1663,1
714.0,2048,2041,1665,1
715.0,2041,2038,1665,1
716.0,2043,2037,1662,1
717.0,2041,2037,1663,1
718.0,2047,2041,1664,1
719.0,2042,2036,1669,1
720.0,2045,2039,1662,1
721.0,2042,2042,1663,1
722.0,2040,2039,1662,1
723.0,2038,2040,1661,1
724.0,2042,2037,1662,1
725.0,2044,2041,1661,1
726.0,2041,2043,1662,1
727.0,2043,2039,1664,1
728.0,2044,2039,1660,1
729.0,2042,2036,1665,1
730.0,2040,2043,1664,1
731.0,2044,2038,1664,1
732.0,2046,2045,1664,1
733.0,2040,2041,1665,1
734.0,2044,2041,1659,1
735.0,2042,2033,1659,1
736.0,2042,2037,1666,1
737.0,2043,2035,1664,1
738.0,2050,2040,1663,1
739.0,2041,2040,1665,1
740.0,2040,2040,1666,1
741.0,2037,2041,1668,1
742.0,2046,2033,1663,1
743.0,2042,2034,1663,1
744.0,2039,2038,1663,1
745.0,2041,2037,1661,1
746.0,2044,2035,1663,1
747.0,2045,2040,1659,1
748.0,2040,2039,1667,1
749.0,2043,2044,1663,1
750.0,2041,2034,1663,1
751.0,2046,2037,1661,1
752.0,2038,2035,1661,1
753.0,2043,2042,1663,1
754.0,2043,2035,1658,1
755.0,2045,2036,1657,1
756.0,2042,2041,1660,1
757.0,2038,2043,1664,1
758.0,2042,2039,1662,1
759.0,2047,2035,1664,1
760.0,2045,2036,1665,1
761.0,2041,2041,1667,1
762.0,2042,2047,1666,1
763.0,2043,2041,1664,1
764.0,2043,2039,1664,1
765.0,2039,2037,1662,1
766.0,2043,2044,1663,1
767.0,2043,2046,1663,1
768.0,2045,2042,1662,1
769.0,2046,2039,1668,1
770.0,2042,2044,1662,1
771.0,2042,2042,1667,1
772.0,2048,2040,1655,1
773.0,2036,2036,1659,1
774.0,2043,2035,1660,1
775.0,2048,2038,1667,1
776.0,2046,2041,1657,1
777.0,2039,2041,1662,1
778.0,2042,2039,1666,1
779.0,2042,2034,1667,1
780.0,2043,2035,1663,1
781.0,2048,2040,1663,1
782.0,2038,2042,1662,1
783.0,2042,2039,1666,1
784.0,2046,2042,1659,1
785.0,2041,2040,1662,1
786.0,2044,2035,1663,1
787.0,2041,2039,1671,1
788.0,2045,2039,1663,1
789.0,2041,2040,1660,1
790.0,2046,2040,1663,1
791.0,2036,2041,1661,1
792.0,2043,2046,1665,1
793.0,2041,2041,1662,1
794.0,2043,2043,1661,1
795.0,2043,2039,1666,1
796.0,2042,2036,1663,1
797.0,2046,2045,1657,1
798.0,2040,2037,1665,1
799.0,2044,2042,1664,1
800.0,2043,2041,1665,1
801.0,2046,2043,1658,1
802.0,2039,2036,1667,1
803.0,2038,2039,1663,1
804.0,2042,2043,1662,1
805.0,2044,2041,1660,1
806.0,2048,2042,1664,1
807.0,2049,2037,1664,1
808.0,2039,2037,1664,1
809.0,2037,2042,1666,1
810.0,2044,2042,1665,1
811.0,2044,2041,1660,1
812.0,2041,2039,1667,1
813.0,2043,2035,1661,1
814.0,2047,2036,1662,1
815.0,2041,2039,1669,1
816.0,2047,2039,1665,1
817.0,2039,2039,1658,1
818.0,2041,2044,1666,1
819.0,2043,2045,1664,1
820.0,2044,2035,1661,1
821.0,2042,2043,1661,1
822.0,2043,2046,1660,1
823.0,2043,2042,1666,1
824.0,2045,2043,1663,1
825.0,2045,2047,1661,1
826.0,2042,2039,1663,1
827.0,2043,2038,1662,1
828.0,2043,2041,1665,1
829.0,2039,2039,1667,1
830.0,2041,2041,1663,1
831.0,2040,2042,1662,1
832.0,2043,2038,1665,1
833.0,2045,2037,1665,1
834.0,2044,2034,1662,1
835.0,2048,2038,1665,1
836.0,2043,2042,1665,1
837.0,2043,2042,1664,1
838.0,2043,2038,1659,1
839.0,2039,2031,1669,1
840.0,2043,2045,1664,1
841.0,2042,2046,1663,1
842.0,2047,2040,1659,1
843.0,2041,2043,1664,1
844.0,2039,2041,1663,1
845.0,2040,2043,1666,1
846.0,2041,2043,1669,1
847.0,2046,2041,1658,1
848.0,2041,2040,1658,1
849.0,2041,2039,1668,1
850.0,2043,2029,1648,1
851.0,2042,2032,1649,1
852.0,2034,2035,1668,1
853.0,2042,2047,1664,1
854.0,2038,2045,1659,1
855.0,2040,2039,1665,1
856.0,2051,2035,1662,1
857.0,2040,2037,1661,1
858.0,2046,2041,1661,1
859.0,2041,2042,1653,1
860.0,2041,2042,1666,1
861.0,2045,2044,1667,1
862.0,2041,2039,1662,1
863.0,2042,2042,1658,1
864.0,2041,2042,1663,1
865.0,2046,2044,1663,1
866.0,2046,2036,1661,1
867.0,2038,2036,1664,1
868.0,2043,2041,1660,1
869.0,2041,2042,1659,1
870.0,2045,2041,1662,1
871.0,2029,2042,1669,1
872.0,2043,2038,1662,1
873.0,2041,2039,1663,1
874.0,2042,2042,1664,1
875.0,2044,2040,1663,1
876.0,2043,2037,1663,1
877.0,2045,2036,1665,1
878.0,2042,2040,1663,1
879.0,2040,2031,1665,1
880.0,2043,2040,1661,1
881.0,2040,2037,1668,1
882.0,2050,2042,1659,1
883.0,2039,2036,1664,1
884.0,2038,2038,1666,1
885.0,2037,2035,1666,1
886.0,2041,2039,1661,1
887.0,2043,2040,1663,1
888.0,2045,2039,1658,1
889.0,2043,2041,1658,1
890.0,2041,2040,1663,1
891.0,2043,2038,1661,1
892.0,2044,2040,1661,1
893.0,2044,2036,1660,1
894.0,2043,2040,1664,1
895.0,2041,2035,1662,1
896.0,2042,2042,1657,1
897.0,2041,2041,1667,1
898.0,2040,2041,1669,1
899.0,2044,2037,1659,1
900.0,2039,2036,1663,1
901.0,2042,2041,1660,1
902.0,2040,2043,1661,1
903.0,2046,2039,1663,1
904.0,2042,2045,1657,1
905.0,2045,2039,1659,1
906.0,2045,2040,1664,1
907.0,2041,2043,1658,1
908.0,2046,2045,1661,1
909.0,2041,2046,1662,1
910.0,2043,2042,1662,1
911.0,2039,2035,1673,1
912.0,2042,2039,1661,1
913.0,2050,2039,1663,1
914.0,2040,2039,1669,1
915.0,2053,2041,1655,1
916.0,2046,2042,1659,1
917.0,2043,2035,1661,1
918.0,2046,2037,1661,1
919.0,2047,2036,1666,1
920.0,2047,2041,1659,1
921.0,2044,2045,1666,1
922.0,2042,2037,1666,1
923.0,2039,2040,1669,1
924.0,2050,2037,1670,1
925.0,2039,2039,1665,1
926.0,2048,2040,1662,1
927.0,2042,2042,1662,1
928.0,2043,2042,1659,1
929.0,2040,2045,1666,1
930.0,2041,2039,1660,1
931.0,2044,2046,1660,1
932.0,2047,2041,1666,1
933.0,2046,2036,1666,1
934.0,2042,2047,1655,1
935.0,2041,2044,1663,1
936.0,2046,2040,1655,1
937.0,2046,2044,1657,1
938.0,2037,2039,1665,1
939.0,2048,2038,1660,1
940.0,2043,2038,1662,1
941.0,2039,2038,1665,1
942.0,2040,2039,1663,1
943.0,2041,2043,1665,1
944.0,2041,2040,1665,1
945.0,2043,2040,1665,1
946.0,2038,2043,1662,1
947.0,2047,2037,1664,1
948.0,2039,2038,1662,1
949.0,2042,2043,1667,1
950.0,2039,2040,1658,1
951.0,2042,2039,1666,1
952.0,2044,2041,1661,1
953.0,2038,2036,1664,1
954.0,2037,2037,1663,1
955.0,2042,2042,1667,1
956.0,2040,2036,1687,1
957.0,2047,2044,1628,1
958.0,2051,2038,1677,1
959.0,2035,2042,1655,1
960.0,2045,2041,1673,1
961.0,2042,2038,1652,1
962.0,2044,2042,1659,1
963.0,2048,2042,1659,1
964.0,2040,2036,1661,1
965.0,2044,2040,1670,1
966.0,2046,2041,1659,1
967.0,2045,2043,1661,1
968.0,2038,2039,1662,1
969.0,2037,2040,1666,1
970.0,2042,2042,1663,1
971.0,2038,2038,1659,1
972.0,2038,2041,1664,1
973.0,2040,2044,1666,1
974.0,2048,2036,1665,1
975.0,2044,2036,1655,1
976.0,2039,2038,1660,1
977.0,2044,2045,1660,1
978.0,2039,2039,1661,1
979.0,2041,2043,1663,1
980.0,2043,2040,1663,1
981.0,2043,2041,1661,1
982.0,2042,2037,1660,1
983.0,2045,2041,1667,1
984.0,2047,2043,1662,1
985.0,2040,2042,1657,1
986.0,2041,2039,1673,1
987.0,2043,2040,1662,1
988.0,2043,2038,1664,1
989.0,2050,2044,1660,1
990.0,2043,2041,1664,1
991.0,2043,2041,1665,1
992.0,2045,2038,1662,1
993.0,2041,2040,1662,1
994.0,2044,2037,1660,1
995.0,2046,2038,1664,1
996.0,2041,2041,1666,1
997.0,2040,2043,1669,1
998.0,2042,2044,1660,1
999.0,2043,2038,1663,1
1000.0,2039,2042,1660,1
1001.0,2045,2041,1663,1
1002.0,2043,2042,1660,1
1003.0,2039,2035,1663,1
1004.0,2048,2039,1666,1
1005.0,2042,2040,1665,1
1006.0,2037,2041,1666,1
1007.0,2043,2040,1661,1
1008.0,2040,2042,1659,1
1009.0,2040,2041,1666,1
1010.0,2042,2041,1663,1
1011.0,2044,2035,1661,1
1012.0,2048,2045,1657,1
1013.0,2043,2037,1660,1
1014.0,2044,2037,1661,1
1015.0,2047,2043,1665,1
1016.0,2043,2039,1665,1
1017.0,2038,2043,1658,1
1018.0,2044,2041,1668,1
1019.0,2039,2039,1661,1
1020.0,2043,2046,1663,1
1021.0,2043,2043,1661,1
1022.0,2044,2043,1662,1
1023.0,2037,2041,1669,1
1024.0,2043,2037,1662,1
1025.0,2046,2039,1662,1
1026.0,2044,2041,1663,1
1027.0,2043,2035,1665,1
1028.0,2045,2041,1643,1
1029.0,2035,2049,1678,1
1030.0,2035,2039,1653,1
1031.0,2045,2033,1658,1
1032.0,2037,2039,1665,1
1033.0,2040,2048,1663,1
1034.0,2041,2030,1662,1
1035.0,2043,2045,1667,1
1036.0,2036,2043,1666,1
1037.0,2042,2038,1661,1
1038.0,2042,2043,1665,1
1039.0,2041,2041,1658,1
1040.0,2042,2039,1657,1
1041.0,2047,2041,1664,1
1042.0,2045,2041,1660,1
1043.0,2046,2040,1664,1
1044.0,2040,2039,1663,1
1045.0,2043,2038,1665,1
1046.0,2042,2038,1666,1
1047.0,2041,2040,1664,1
1048.0,2043,2038,1664,1
1049.0,2043,2039,1665,1
1050.0,2042,2038,1666,1
1051.0,2045,2041,1655,1
1052.0,2043,2038,1658,1
1053.0,2041,2045,1668,1
1054.0,2039,2037,1667,1
1055.0,2040,2037,1659,1
1056.0,2038,2046,1664,1
1057.0,2041,2041,1660,1
1058.0,2048,2038,1667,1
1059.0,2042,2048,1661,1
1060.0,2039,2043,1659,1
1061.0,2041,2037,1660,1
1062.0,2045,2041,1665,1
1063.0,2039,2041,1666,1
1064.0,2046,2033,1659,1
1065.0,2043,2038,1661,1
1066.0,2041,2039,1666,1
1067.0,2051,2037,1662,1
1068.0,2041,2044,1665,1
1069.0,2043,2041,1664,1
1070.0,2050,2042,1665,1
1071.0,2041,2040,1665,1
1072.0,2045,2044,1660,1
1073.0,2045,2031,1662,1
1074.0,2047,2044,1658,1
1075.0,2043,2039,1657,1
1076.0,2041,2037,1668,1
1077.0,2044,2041,1660,1
1078.0,2043,2041,1666,1
1079.0,2045,2039,1658,1
1080.0,2042,2040,1663,1
1081.0,2041,2043,1657,1
1082.0,2045,2035,1657,1
1083.0,2047,2036,1663,1
1084.0,2043,2038,1658,1
1085.0,2046,2040,1665,1
1086.0,2043,2044,1667,1
1087.0,2040,2039,1663,1
1088.0,2040,2044,1663,1
1089.0,2044,2041,1663,1
1090.0,2041,2042,1669,1
1091.0,2043,2034,1660,1
1092.0,2045,2045,1662,1
1093.0,2047,2043,1660,1
1094.0,2042,2035,1664,1
1095.0,2044,2039,1669,1
1096.0,2042,2045,1661,1
1097.0,2045,2039,1659,1
1098.0,2043,2042,1658,1
1099.0,2041,2032,1662,1
1100.0,2038,2044,1660,1
1101.0,2045,2036,1661,1
1102.0,2045,2040,1663,1
1103.0,2037,2038,1660,1
1104.0,2037,2041,1664,1
1105.0,2041,2042,1665,1
1106.0,2042,2043,1659,1
1107.0,2043,2039,1663,1
1108.0,2040,2038,1662,1
1109.0,2039,2040,1663,1
1110.0,2046,2041,1659,1
1111.0,2041,2040,1666,1
1112.0,2041,2040,1663,1
1113.0,2045,2038,1661,1
1114.0,2047,2035,1665,1
1115.0,2041,2039,1659,1
1116.0,2040,2040,1661,1
1117.0,2046,2043,1662,1
1118.0,2043,2045,1662,1
1119.0,2044,2043,1662,1
1120.0,2043,2043,1661,1
1121.0,2041,2039,1665,1
1122.0,2041,2034,1661,1
1123.0,2040,2045,1660,1
1124.0,2042,2039,1659,1
1125.0,2048,2045,1665,1
1126.0,2047,2035,1659,1
1127.0,2041,2038,1663,1
1128.0,2045,2038,1666,1
1129.0,2045,2039,1659,1
1130.0,2048,2038,1662,1
1131.0,2039,2045,1664,1
1132.0,2039,2036,1661,1
1133.0,2041,2039,1660,1
1134.0,2043,2046,1668,1
1135.0,2042,2044,1663,1
1136.0,2048,2041,1664,1
1137.0,2048,2037,1667,1
1138.0,2047,2037,1664,1
1139.0,2042,2043,1664,1
1140.0,2040,2042,1659,1
1141.0,2049,2043,1664,1
1142.0,2038,2035,1661,1
1143.0,2039,2040,1661,1
1144.0,2049,2040,1660,1
1145.0,2048,2041,1667,1
1146.0,2047,2038,1660,1
1147.0,2041,2036,1665,1
1148.0,2040,2041,1666,1
1149.0,2040,2034,1662,1
1150.0,2045,2040,1666,1
1151.0,2041,2042,1661,1
1152.0,2043,2039,1661,1
1153.0,2050,2039,1661,1
1154.0,2042,2038,1659,1
1155.0,2035,2036,1657,1
1156.0,2041,2040,1663,1
1157.0,2037,2033,1661,1
1158.0,2047,2042,1668,1
1159.0,2040,2041,1670,1
1160.0,2039,2055,1665,1
1161.0,2049,2036,1659,1
1162.0,2041,2042,1665,1
1163.0,2045,2039,1662,1
1164.0,2042,2046,1662,1
1165.0,2043,2039,1663,1
1166.0,2038,2038,1667,1
1167.0,2038,2039,1662,1
1168.0,2045,2042,1666,1
1169.0,2043,2039,1660,1
1170.0,2044,2042,1661,1
1171.0,2046,2045,1662,1
1172.0,2043,2037,1670,1
1173.0,2042,2045,1663,1
1174.0,2044,2040,1664,1
1175.0,2039,2035,1665,1
1176.0,2042,2041,1663,1
1177.0,2039,2042,1667,1
1178.0,2039,2037,1656,1
1179.0,2044,2043,1660,1
1180.0,2050,2041,1666,1
1181.0,2043,2041,1664,1
1182.0,2039,2042,1662,1
1183.0,2041,2040,1664,1
1184.0,2042,2037,1662,1
1185.0,2044,2036,1662,1
1186.0,2039,2037,1663,1
1187.0,2049,2039,1663,1
1188.0,2047,2043,1665,1
1189.0,2048,2038,1664,1
1190.0,2040,2034,1664,1
1191.0,2041,2037,1663,1
1192.0,2037,2031,1659,1
1193.0,2045,2040,1666,1
1194.0,2043,2037,1669,1
1195.0,2045,2041,1671,1
1196.0,2041,2040,1665,1
1197.0,2039,2039,1662,1
1198.0,2042,2043,1662,1
1199.0,2045,2035,1662,1
1200.0,2039,2039,1666,1
1201.0,2045,2039,1663,1
1202.0,2039,2041,1666,1
1203.0,2043,2044,1662,1
1204.0,2042,2042,1663,1
1205.0,2046,2037,1662,1
1206.0,2045,2033,1659,1
1207.0,2043,2037,1661,1
1208.0,2039,2041,1663,1
1209.0,2041,2039,1661,1
1210.0,2043,2037,1661,1
1211.0,2044,2037,1663,1
1212.0,2044,2042,1660,1
1213.0,2050,2043,1662,1
1214.0,2043,2041,1662,1
1215.0,2043,2035,1666,1
1216.0,2044,2044,1661,1
1217.0,2039,2037,1665,1
1218.0,2046,2036,1663,1
1219.0,2039,2038,1662,1
1220.0,2037,2034,1660,1
1221.0,2043,2040,1660,1
1222.0,2043,2036,1659,1
1223.0,2037,2043,1663,1
1224.0,2039,2043,1659,1
1225.0,2043,2042,1663,1
1226.0,2047,2040,1664,1
1227.0,2043,2042,1666,1
1228.0,2040,2041,1661,1
1229.0,2047,2038,1665,1
1230.0,2042,2037,1663,1
1231.0,2045,2043,1663,1
1232.0,2038,2043,1659,1
1233.0,2040,2042,1666,1
1234.0,2039,2044,1663,1
1235.0,2048,2037,1659,1
1236.0,2040,2038,1663,1
1237.0,2041,2045,1659,1
1238.0,2045,2041,1661,1
1239.0,2045,2043,1664,1
1240.0,2041,2045,1655,1
1241.0,2045,2043,1668,1
1242.0,2041,2042,1661,1
1243.0,2043,2039,1665,1
1244.0,2039,2044,1666,1
1245.0,2046,2046,1660,1
1246.0,2049,2040,1659,1
1247.0,2041,2044,1663,1
1248.0,2045,2039,1667,1
1249.0,2044,2041,1662,1
1250.0,2044,2043,1657,1
1251.0,2046,2042,1662,1
1252.0,2042,2039,1658,1
1253.0,2043,2042,1668,1
1254.0,2040,2042,1665,1
1255.0,2047,2040,1663,1
1256.0,2046,2035,1660,1
1257.0,2039,2039,1669,1
1258.0,2040,2042,1664,1
1259.0,2039,2040,1661,1
1260.0,2038,2036,1661,1
1261.0,2045,2038,1659,1
1262.0,2043,2042,1667,1
1263.0,2047,2042,1660,1
1264.0,2042,2039,1663,1
1265.0,2041,2042,1665,1
1266.0,2045,2043,1663,1
1267.0,2043,2043,1666,1
1268.0,2043,2043,1659,1
1269.0,2045,2039,1663,1
1270.0,2049,2043,1662,1
1271.0,2039,2043,1660,1
1272.0,2037,2039,1663,1
1273.0,2041,2042,1667,1
1274.0,2042,2042,1664,1
1275.0,2041,2041,1660,1
1276.0,2038,2043,1662,1
1277.0,2041,2042,1661,1
1278.0,2044,2038,1662,1
1279.0,2043,2039,1665,1
1280.0,2042,2041,1664,1
1281.0,2046,2042,1660,1
1282.0,2045,2041,1663,1
1283.0,2038,2042,1663,1
1284.0,2042,2033,1665,1
1285.0,2039,2042,1660,1
1286.0,2044,2040,1662,1
1287.0,2042,2045,1658,1
1288.0,2045,2034,1664,1
1289.0,2039,2037,1662,1
1290.0,2043,2040,1663,1
1291.0,2042,2041,1664,1
1292.0,2043,2038,1663,1
1293.0,2040,2040,1662,1
1294.0,2041,2037,1662,1
1295.0,2042,2043,1660,1
1296.0,2046,2038,1665,1
1297.0,2040,2040,1656,1
1298.0,2045,2040,1669,1
1299.0,2041,2040,1663,1
1300.0,2045,2040,1660,1
1301.0,2043,2040,1660,1
1302.0,2041,2039,1660,1
1303.0,2045,2041,1668,1
1304.0,2043,2041,1661,1
1305.0,2041,2042,1664,1
1306.0,2039,2039,1665,1
1307.0,2049,2041,1664,1
1308.0,2038,2048,1658,1
1309.0,2043,2044,1662,1
1310.0,2041,2043,1662,1
1311.0,2045,2041,1662,1
1312.0,2040,2039,1663,1
1313.0,2040,2039,1666,1
1314.0,2044,2042,1669,1
1315.0,2043,2036,1657,1
1316.0,2045,2038,1659,1
1317.0,2045,2038,1667,1
1318.0,2043,2038,1663,1
1319.0,2041,2035,1664,1
1320.0,2040,2034,1664,1
1321.0,2042,2039,1661,1
1322.0,2044,2041,1660,1
1323.0,2043,2036,1664,1
1324.0,2040,2033,1665,1
1325.0,2043,2038,1662,1
1326.0,2044,2040,1663,1
1327.0,2045,2041,1663,1
1328.0,2042,2043,1665,1
1329.0,2046,2040,1664,1
1330.0,2041,2039,1664,1
1331.0,2043,2038,1665,1
1332.0,2040,2041,1662,1
1333.0,2042,2037,1660,1
1334.0,2036,2041,1665,1
1335.0,2044,2035,1662,1
1336.0,2044,2042,1657,1
1337.0,2039,2043,1665,1
1338.0,2050,2035,1665,1
1339.0,2039,2039,1663,1
1340.0,2046,2043,1663,1
1341.0,2043,2040,1664,1
1342.0,2041,2043,1660,1
1343.0,2041,2039,1664,1
1344.0,2039,2035,1667,1
1345.0,2043,2043,1668,1
1346.0,2045,2041,1663,1
1347.0,2044,2032,1664,1
1348.0,2038,2036,1662,1
1349.0,2043,2039,1666,1
1350.0,2039,2043,1663,1
1351.0,2043,2038,1658,1
1352.0,2040,2044,1663,1
1353.0,2043,2042,1661,1
1354.0,2051,2039,1663,1
1355.0,2040,2044,1657,1
1356.0,2041,2039,1664,1
1357.0,2038,2038,1663,1
1358.0,2040,2038,1664,1
1359.0,2041,2040,1660,1
1360.0,2041,2028,1657,1
1361.0,2042,2030,1657,1
1362.0,2041,2035,1657,1
1363.0,2048,2041,1659,1
1364.0,2047,2040,1666,1
1365.0,2045,2043,1662,1
1366.0,2039,2038,1665,1
1367.0,2047,2041,1663,1
1368.0,2048,2043,1663,1
1369.0,2046,2042,1662,1
1370.0,2043,2038,1663,1
1371.0,2043,2041,1667,1
1372.0,2046,2042,1661,1
1373.0,2038,2038,1662,1
1374.0,2043,2041,1657,1
1375.0,2040,2046,1661,1
1376.0,2041,2038,1664,1
1377.0,2043,2038,1665,1
1378.0,2043,2045,1658,1
1379.0,2040,2040,1667,1
1380.0,2042,2040,1663,1
1381.0,2044,2040,1661,1
1382.0,2038,2041,1659,1
1383.0,2037,2043,1659,1
1384.0,2042,2035,1661,1
1385.0,2039,2040,1666,1
1386.0,2037,2037,1665,1
1387.0,2045,2042,1663,1
1388.0,2042,2039,1667,1
1389.0,2038,2040,1665,1
1390.0,2045,2040,1665,1
1391.0,2042,2040,1668,1
1392.0,2045,2035,1666,1
1393.0,2039,2042,1663,1
1394.0,2051,2046,1663,1
1395.0,2044,2039,1664,1
1396.0,2045,2038,1660,1
1397.0,2038,2040,1665,1
1398.0,2037,2039,1663,1
1399.0,2044,2039,1665,1
1400.0,2044,2043,1663,1
1401.0,2045,2043,1662,1
1402.0,2044,2047,1665,1
1403.0,2042,2037,1660,1
1404.0,2042,2040,1660,1
1405.0,2038,2047,1662,1
1406.0,2044,2037,1663,1
1407.0,2036,2033,1664,1
1408.0,2040,2035,1662,1
1409.0,2045,2045,1663,1
1410.0,2041,2045,1665,1
1411.0,2042,2044,1664,1
1412.0,2042,2039,1666,1
1413.0,2040,2035,1662,1
1414.0,2045,2041,1659,1
1415.0,2043,2038,1663,1
1416.0,2035,2037,1660,1
1417.0,2036,2041,1663,1
1418.0,2043,2044,1664,1
1419.0,2039,2039,1665,1
1420.0,2041,2033,1666,1
1421.0,2042,2033,1664,1
1422.0,2042,2041,1658,1
1423.0,2043,2041,1661,1
1424.0,2041,2040,1663,1
1425.0,2046,2042,1664,1
1426.0,2040,2039,1660,1
1427.0,2041,2042,1660,1
1428.0,2043,2042,1663,1
1429.0,2040,2039,1664,1
1430.0,2044,2038,1660,1
1431.0,2039,2035,1667,1
1432.0,2043,2042,1664,1
1433.0,2039,2046,1667,1
1434.0,2043,2039,1662,1
1435.0,2045,2040,1667,1
1436.0,2042,2037,1667,1
1437.0,2041,2042,1666,1
1438.0,2042,2039,1663,1
1439.0,2044,2041,1662,1
1440.0,2037,2043,1664,1
1441.0,2044,2038,1663,1
1442.0,2042,2037,1661,1
1443.0,2039,2035,1661,1
1444.0,2042,2031,1659,1
1445.0,2042,2038,1662,1
1446.0,2038,2040,1658,1
1447.0,2041,2042,1661,1
1448.0,2045,2039,1659,1
1449.0,2037,2041,1665,1
1450.0,2041,2041,1659,1
1451.0,2043,2042,1665,1
1452.0,2046,2040,1660,1
1453.0,2045,2041,1664,1
1454.0,2045,2041,1664,1
1455.0,2041,2044,1665,1
1456.0,2044,2046,1663,1
1457.0,2043,2043,1663,1
1458.0,2037,2039,1664,1
1459.0,2042,2043,1663,1
1460.0,2038,2039,1663,1
1461.0,2046,2042,1657,1
1462.0,2040,2042,1660,1
1463.0,2038,2038,1661,1
1464.0,2039,2037,1660,1
1465.0,2037,2037,1662,1
1466.0,2040,2041,1659,1
1467.0,2041,2041,1662,1
1468.0,2043,2038,1662,1
1469.0,2045,2041,1658,1
1470.0,2049,2037,1665,1
1471.0,2045,2039,1663,1
1472.0,2048,2050,1662,1
1473.0,2043,2043,1662,1
1474.0,2041,2036,1665,1
1475.0,2038,2039,1661,1
1476.0,2040,2037,1665,1
1477.0,2044,2042,1662,1
1478.0,2038,2041,1661,1
1479.0,2042,2036,1663,1
1480.0,2044,2040,1665,1
1481.0,2042,2037,1667,1
1482.0,2043,2038,1663,1
1483.0,2044,2043,1662,1
1484.0,2042,2044,1661,1
1485.0,2046,2045,1664,1
1486.0,2042,2040,1663,1
1487.0,2041,2037,1663,1
1488.0,2038,2041,1658,1
1489.0,2040,2047,1665,1
1490.0,2046,2043,1657,1
1491.0,2040,2038,1663,1
1492.0,2045,2042,1666,1
1493.0,2044,2038,1661,1
1494.0,2036,2044,1662,1
1495.0,2038,2040,1661,1
1496.0,2042,2041,1663,1
1497.0,2043,2040,1661,1
1498.0,2044,2041,1665,1
1499.0,2041,2043,1665,1
1500.0,2042,2044,1664,1
1501.0,2043,2039,1662,1
1502.0,2042,2043,1661,1
1503.0,2043,2043,1657,1
1504.0,2040,2039,1663,1
1505.0,2042,2034,1658,1
1506.0,2046,2046,1661,1
1507.0,2043,2042,1661,1
1508.0,2050,2039,1661,1
1509.0,2041,2043,1663,1
1510.0,2041,2037,1660,1
1511.0,2044,2036,1657,1
1512.0,2046,2042,1665,1
1513.0,2034,2041,1663,1
1514.0,2035,2038,1660,1
1515.0,2043,2041,1661,1
1516.0,2045,2037,1664,1
1517.0,2039,2039,1668,1
1518.0,2047,2041,1663,1
1519.0,2044,2039,1666,1
1520.0,2041,2041,1663,1
1521.0,2041,2043,1659,1
1522.0,2043,2032,1665,1
1523.0,2037,2037,1657,1
1524.0,2040,2032,1659,1
1525.0,2041,2040,1664,1
1526.0,2044,2042,1667,1
1527.0,2047,2040,1660,1
1528.0,2038,2039,1664,1
1529.0,2047,2037,1661,1
1530.0,2043,2045,1668,1
1531.0,2045,2044,1668,1
1532.0,2043,2041,1666,1
1533.0,2040,2042,1660,1
1534.0,2040,2046,1665,1
1535.0,2044,2036,1661,1
1536.0,2043,2039,1664,1
1537.0,2042,2041,1665,1
1538.0,2046,2040,1661,1
1539.0,2045,2040,1669,1
1540.0,2047,2039,1663,1
1541.0,2038,2039,1663,1
1542.0,2042,2044,1667,1
1543.0,2040,2037,1662,1
1544.0,2039,2041,1662,1
1545.0,2044,2045,1658,1
1546.0,2045,2040,1658,1
1547.0,2037,2044,1664,1
1548.0,2039,2040,1663,1
1549.0,2046,2041,1662,1
1550.0,2037,2046,1666,1
1551.0,2043,2041,1660,1
1552.0,2046,2042,1665,1
1553.0,2043,2040,1662,1
1554.0,2047,2040,1666,1
1555.0,2044,2039,1662,1
1556.0,2044,2039,1661,1
1557.0,2041,2040,1664,1
1558.0,2038,2039,1666,1
1559.0,2042,2042,1666,1
1560.0,2042,2041,1667,1
1561.0,2043,2034,1665,1
1562.0,2043,2038,1662,1
1563.0,2040,2039,1663,1
1564.0,2046,2038,1664,1
1565.0,2043,2044,1662,1
1566.0,2036,2042,1665,1
1567.0,2042,2042,1663,1
1568.0,2046,2038,1663,1
1569.0,2044,2038,1665,1
1570.0,2036,2039,1661,1
1571.0,2039,2042,1658,1
1572.0,2042,2041,1663,1
1573.0,2046,2039,1661,1
1574.0,2049,2042,1662,1
1575.0,2043,2037,1658,1
1576.0,2040,2037,1663,1
1577.0,2038,2039,1662,1
1578.0,2035,2039,1664,1
1579.0,2039,2042,1664,1
1580.0,2040,2037,1669,1
1581.0,2040,2044,1659,1
1582.0,2047,2043,1662,1
1583.0,2048,2042,1664,1
1584.0,2044,2049,1668,1
1585.0,2049,2039,1659,1
1586.0,2040,2032,1660,1
1587.0,2045,2038,1662,1
1588.0,2040,2041,1661,1
1589.0,2043,2040,1667,1
1590.0,2042,2046,1664,1
1591.0,2041,2041,1663,1
1592.0,2044,2045,1665,1
1593.0,2048,2038,1661,1
1594.0,2045,2040,1667,1
1595.0,2042,2038,1660,1
1596.0,2043,2039,1659,1
1597.0,2038,2037,1659,1
1598.0,2042,2036,1663,1
1599.0,2040,2043,1664,1
1600.0,2045,2043,1658,1
1601.0,2043,2045,1661,1
1602.0,2042,2045,1661,1
1603.0,2043,2044,1663,1
1604.0,2043,2040,1669,1
1605.0,2043,2042,1660,1
1606.0,2039,2041,1667,1
1607.0,2043,2039,1663,1
1608.0,2045,2039,1664,1
1609.0,2046,2040,1660,1
1610.0,2038,2039,1662,1
1611.0,2044,2035,1663,1
1612.0,2043,2038,1665,1
1613.0,2043,2035,1663,1
1614.0,2040,2038,1662,1
1615.0,2040,2039,1664,1
1616.0,2037,2043,1663,1
1617.0,2045,2043,1654,1
1618.0,2044,2041,1666,1
1619.0,2043,2043,1663,1
1620.0,2043,2045,1663,1
1621.0,2040,2038,1665,1
1622.0,2044,2045,1666,1
1623.0,2044,2039,1656,1
1624.0,2045,2048,1657,1
1625.0,2040,2038,1661,1
1626.0,2041,2043,1659,1
1627.0,2045,2043,1662,1
1628.0,2039,2041,1663,1
1629.0,2041,2036,1666,1
1630.0,2043,2039,1658,1
1631.0,2041,2037,1668,1
1632.0,2046,2042,1663,1
1633.0,2045,2047,1663,1
1634.0,2037,2027,1666,1
1635.0,2097,1987,1664,1
1636.0,2020,2052,1661,1
1637.0,1981,2111,1660,1
1638.0,2053,2048,1659,1
1639.0,2040,2040,1668,1
1640.0,2043,2028,1665,1
1641.0,2062,1904,1650,1
1642.0,2060,2066,1654,1
1643.0,1968,1998,1605,1
1644.0,1997,2088,1679,1
1645.0,2125,2094,1532,1
1646.0,2122,2168,1455,1
1647.0,2110,2213,1474,1
1648.0,2078,2194,1524,1
1649.0,2111,2181,1537,1
1650.0,2112,2099,1553,1
1651.0,2135,2118,1607,1
1652.0,2162,2100,1662,1
1653.0,2159,2071,1704,1
1654.0,2171,1996,1790,1
1655.0,2245,2044,1777,1
1656.0,2214,2038,1765,1
1657.0,2295,2052,1873,1
1658.0,2276,2003,1819,1
1659.0,2235,1911,1807,1
1660.0,2224,1886,1840,1
1661.0,2263,1925,1830,1
1662.0,2297,1978,1834,1
1663.0,2290,1977,1851,1
1664.0,2363,1973,1816,1
1665.0,2315,1944,1804,1
1666.0,2291,1943,1820,1
1667.0,2318,1951,1822,1
1668.0,2316,1967,1843,1
1669.0,2371,1952,1820,1
1670.0,2346,1971,1811,1
1671.0,2403,2001,1888,1
1672.0,2343,1942,1834,1
1673.0,2361,1964,1864,1
1674.0,2351,1969,1854,1
1675.0,2374,1983,1870,1
1676.0,2387,1983,1870,1
1677.0,2371,1985,1881,1
1678.0,2387,1993,1888,1
1679.0,2405,2008,1885,1
1680.0,2375,2009,1922,1
1681.0,2397,2003,1892,1
1682.0,2365,1992,1902,1
1683.0,2380,2021,1877,1
1684.0,2403,2032,1867,1
1685.0,2395,2030,1871,1
1686.0,2406,2043,1873,1
1687.0,2399,2038,1894,1
1688.0,2387,2038,1917,1
1689.0,2390,2053,1917,1
1690.0,2408,2081,1927,1
1691.0,2419,2075,1893,1
1692.0,2423,2047,1879,1
1693.0,2385,2025,1900,1
1694.0,2379,2030,1915,1
1695.0,2395,2068,1931,1
1696.0,2414,2069,1908,1
1697.0,2412,2052,1897,1
1698.0,2402,2049,1901,1
1699.0,2393,2040,1913,1
1700.0,2401,2049,1907,1
1701.0,2400,2051,1908,1
1702.0,2406,2062,1911,1
1703.0,2401,2046,1909,1
1704.0,2405,2074,1920,1
1705.0,2417,2073,1904,1
1706.0,2404,2062,1890,1
1707.0,2399,2042,1895,1
1708.0,2386,2023,1903,1
1709.0,2397,2061,1930,1
1710.0,2424,2083,1931,1
1711.0,2418,2069,1914,1
1712.0,2406,2058,1903,1
1713.0,2397,2040,1902,1
1714.0,2390,2038,1911,1
1715.0,2391,2058,1921,1
1716.0,2409,2067,1923,1
1717.0,2411,2066,1914,1
1718.0,2399,2050,1907,1
1719.0,2392,2042,1905,1
1720.0,2403,2056,1916,1
1721.0,2406,2061,1921,1
1722.0,2420,2063,1910,1
1723.0,2405,2057,1907,1
1724.0,2391,2041,1914,1
1725.0,2399,2053,1918,1
1726.0,2415,2061,1914,1
1727.0,2427,2076,1906,1
1728.0,2394,2056,1902,1
1729.0,2404,2055,1916,1
1730.0,2396,2050,1912,1
1731.0,2409,2040,1897,1
1732.0,2403,2058,1906,1
1733.0,2407,2063,1921,1
1734.0,2405,2053,1907,1
1735.0,2407,2049,1907,1
1736.0,2399,2047,1912,1
1737.0,2404,2044,1919,1
1738.0,2399,2053,1914,1
1739.0,2412,2071,1917,1
1740.0,2420,2065,1906,1
1741.0,2404,2045,1903,1
1742.0,2401,2047,1911,1
1743.0,2394,2052,1919,1
1744.0,2389,2046,1910,1
1745.0,2408,2055,1913,1
1746.0,2406,2059,1907,1
1747.0,2415,2048,1899,1
1748.0,2403,2045,1905,1
1749.0,2399,2047,1900,1
1750.0,2398,2052,1907,1
1751.0,2411,2066,1906,1
1752.0,2409,2059,1912,1
1753.0,2403,2053,1914,1
1754.0,2384,2044,1901,1
1755.0,2390,2035,1903,1
1756.0,2385,2038,1917,1
1757.0,2393,2066,1926,1
1758.0,2417,2072,1907,1
1759.0,2417,2058,1888,1
1760.0,2413,2045,1879,1
1761.0,2391,2053,1906,1
1762.0,2391,2051,1914,1
1763.0,2407,2060,1901,1
1764.0,2412,2067,1900,1
1765.0,2402,2051,1901,1
1766.0,2393,2044,1902,1
1767.0,2389,2039,1899,1
1768.0,2383,2044,1915,1
1769.0,2393,2055,1908,1
1770.0,2384,2056,1909,1
1771.0,2407,2071,1904,1
1772.0,2412,2066,1890,1
1773.0,2410,2062,1879,1
1774.0,2397,2051,1889,1
1775.0,2398,2059,1887,1
1776.0,2402,2052,1894,1
1777.0,2398,2063,1889,1
1778.0,2394,2064,1890,1
1779.0,2390,2053,1890,1
1780.0,2393,2058,1902,1
1781.0,2401,2061,1899,1
1782.0,2399,2057,1884,1
1783.0,2403,2051,1891,1
1784.0,2397,2048,1899,1
1785.0,2396,2055,1897,1
1786.0,2414,2052,1889,1
1787.0,2400,2055,1898,1
1788.0,2397,2052,1896,1
1789.0,2404,2057,1897,1
1790.0,2387,2048,1900,1
1791.0,2388,2049,1902,1
1792.0,2389,2047,1896,1
1793.0,2390,2055,1900,1
1794.0,2392,2062,1891,1
1795.0,2410,2068,1890,1
1796.0,2401,2060,1885,1
1797.0,2409,2063,1894,1
1798.0,2398,2064,1906,1
1799.0,2397,2058,1895,1
1800.0,2398,2052,1891,1
1801.0,2401,2066,1895,1
1802.0,2394,2066,1897,1
1803.0,2404,2068,1890,1
1804.0,2402,2045,1881,1
1805.0,2396,2051,1885,1
1806.0,2391,2052,1901,1
1807.0,2396,2054,1906,1
1808.0,2387,2056,1907,1
1809.0,2396,2058,1905,1
1810.0,2384,2055,1905,1
1811.0,2406,2065,1890,1
1812.0,2415,2064,1885,1
1813.0,2407,2057,1883,1
1814.0,2389,2057,1900,1
1815.0,2383,2062,1906,1
1816.0,2403,2051,1895,1
1817.0,2403,2067,1892,1
1818.0,2393,2058,1896,1
1819.0,2404,2062,1895,1
1820.0,2400,2058,1893,1
1821.0,2392,2062,1895,1
1822.0,2391,2049,1897,1
1823.0,2392,2052,1891,1
1824.0,2403,2060,1894,1
1825.0,2403,2067,1902,1
1826.0,2413,2067,1897,1
1827.0,2403,2066,1899,1
1828.0,2389,2050,1899,1
1829.0,2395,2055,1889,1
1830.0,2402,2068,1891,1
1831.0,2397,2063,1898,1
1832.0,2389,2044,1897,1
1833.0,2387,2061,1912,1
1834.0,2393,2056,1895,1
1835.0,2409,2068,1895,1
1836.0,2405,2065,1892,1
1837.0,2395,2053,1896,1
1838.0,2384,2053,1896,1
1839.0,2400,2061,1900,1
1840.0,2403,2065,1900,1
1841.0,2402,2074,1902,1
1842.0,2400,2065,1893,1
1843.0,2395,2051,1880,1
1844.0,2388,2055,1886,1
1845.0,2398,2063,1891,1
1846.0,2398,2064,1903,1
1847.0,2400,2067,1902,1
1848.0,2399,2058,1898,1
1849.0,2393,2069,1894,1
1850.0,2403,2066,1891,1
1851.0,2411,2070,1894,1
1852.0,2397,2063,1890,1
1853.0,2393,2054,1910,1
1854.0,2395,2059,1908,1
1855.0,2390,2053,1894,1
1856.0,2392,2061,1897,1
1857.0,2397,2061,1887,1
1858.0,2411,2063,1881,1
1859.0,2407,2071,1887,1
1860.0,2400,2063,1892,1
1861.0,2390,2050,1890,1
1862.0,2393,2053,1897,1
1863.0,2391,2059,1896,1
1864.0,2398,2060,1902,1
1865.0,2404,2061,1897,1
1866.0,2402,2061,1902,1
1867.0,2395,2063,1891,1
1868.0,2396,2059,1889,1
1869.0,2399,2062,1893,1
1870.0,2391,2037,1892,1
1871.0,2393,2042,1893,1
1872.0,2398,2057,1900,1
1873.0,2395,2061,1898,1
1874.0,2396,2059,1895,1
1875.0,2391,2056,1889,1
1876.0,2400,2061,1897,1
1877.0,2395,2063,1896,1
1878.0,2403,2066,1891,1
1879.0,2395,2055,1893,1
1880.0,2395,2065,1897,1
1881.0,2394,2054,1896,1
1882.0,2397,2056,1891,1
1883.0,2398,2054,1896,1
1884.0,2398,2061,1898,1
1885.0,2399,2059,1900,1
1886.0,2394,2055,1885,1
1887.0,2403,2059,1895,1
1888.0,2401,2066,1896,1
1889.0,2395,2061,1888,1
1890.0,2395,2052,1900,1
1891.0,2398,2069,1896,1
1892.0,2394,2051,1891,1
1893.0,2402,2062,1892,1
1894.0,2403,2064,1893,1
1895.0,2405,2058,1883,1
1896.0,2396,2059,1893,1
1897.0,2398,2053,1899,1
1898.0,2384,2057,1902,1
1899.0,2384,2052,1893,1
1900.0,2390,2050,1896,1
1901.0,2391,2051,1898,1
1902.0,2379,2052,1916,1
1903.0,2349,2022,1915,1
1904.0,2366,2039,1902,1
1905.0,2300,2020,1759,1
1906.0,2294,2029,1453,1
1907.0,2235,1967,1157,1
1908.0,2335,1945,979,1
1909.0,2439,2039,1164,1
1910.0,2238,2002,1965,1
1911.0,2069,2572,4091,1
1912.0,2906,3465,4095,1
1913.0,3186,3234,2905,1
1914.0,2561,2813,2103,1
1915.0,1645,2439,1593,1
1916.0,1307,1899,485,1
1917.0,1229,1554,2,1
1918.0,1352,1318,2,1
1919.0,1649,1820,153,1
1920.0,1971,2282,1010,1
1921.0,2039,2659,2463,1
1922.0,2356,2828,3734,1
1923.0,3104,3061,3868,1
1924.0,3222,3117,3685,1
1925.0,2783,2829,3003,1
1926.0,2173,2563,2303,1
1927.0,1651,2401,1404,1
1928.0,1286,1860,178,1
1929.0,1131,1233,2,1
1930.0,1285,1468,2,1
1931.0,1709,2128,313,1
1932.0,1744,2482,1699,1
1933.0,2109,2779,3042,1
1934.0,2964,3100,3255,1
1935.0,3618,3557,3587,1
1936.0,3460,3394,3336,1
1937.0,2581,2759,2858,1
1938.0,1914,2466,2155,1
1939.0,1500,2341,1263,1
1940.0,1201,1859,325,1
1941.0,1132,1346,2,1
1942.0,1280,1487,70,1
1943.0,1439,1793,840,1
1944.0,1722,2267,1828,1
1945.0,2229,2543,2624,1
1946.0,2895,2883,2914,1
1947.0,3381,3263,3241,1
1948.0,3342,3431,3156,1
1949.0,2730,2967,2430,1
1950.0,1897,2349,1644,1
1951.0,1498,1998,876,1
1952.0,1244,1545,409,1
1953.0,1152,1369,419,1
1954.0,1237,1467,744,1
1955.0,1450,1893,1429,1
1956.0,1937,2290,1965,1
1957.0,2500,2704,2460,1
1958.0,3225,3251,2696,1
1959.0,3566,3730,3131,1
1960.0,3350,3519,2942,1
1961.0,2583,2920,2457,1
1962.0,1834,2508,1923,1
1963.0,1244,2125,1183,1
1964.0,905,1449,438,1
1965.0,878,1145,305,1
1966.0,1023,1319,631,1
1967.0,1293,1781,1287,1
1968.0,1692,2301,1983,1
1969.0,2247,2481,2266,1
1970.0,2755,3010,2457,1
1971.0,3603,3633,2507,1
1972.0,3828,3894,2423,1
1973.0,3163,3233,2362,1
1974.0,2281,2572,2326,1
1975.0,1795,2203,2026,1
1976.0,1674,2011,1603,1
1977.0,1788,1945,1251,1
1978.0,1861,1913,1213,1
1979.0,1826,1859,1289,1
1980.0,1958,1867,1313,1
1981.0,2141,2095,1437,1
1982.0,2348,2350,1742,1
1983.0,2337,2401,1967,1
1984.0,2327,2332,1932,1
1985.0,2291,2031,1999,1
1986.0,2179,2297,1831,1
1987.0,2311,2274,1880,1
1988.0,2306,2303,1870,1
1989.0,2170,2119,1749,1
1990.0,2201,2067,1720,1
1991.0,2303,2105,1569,1
1992.0,2392,2055,1584,1
1993.0,2140,1914,1825,1
1994.0,2311,2213,2051,1
1995.0,2204,2029,2039,1
1996.0,2627,3173,3112,1
1997.0,2542,2025,1897,1
1998.0,2323,2108,1985,1
1999.0,2327,2113,1902,1
2000.0,2485,2128,1886,1
2001.0,2403,2137,1920,1
2002.0,2320,2178,1981,1
2003.0,2547,2245,2099,1
2004.0,2432,2241,2110,1
2005.0,2421,2191,2079,1
2006.0,2419,2229,2084,1
2007.0,2405,2222,2052,1
2008.0,2339,2144,2046,1
2009.0,2250,2133,2063,1
2010.0,2149,2001,2401,1
2011.0,2312,2115,2174,1
2012.0,2378,2171,2281,1
2013.0,2500,2292,2048,1
2014.0,2464,2091,2210,1
2015.0,2459,2015,2303,1
2016.0,2391,2061,2316,1
2017.0,2364,2175,2355,1
2018.0,2260,2177,2247,1
2019.0,2282,2314,2054,1
2020.0,2177,2287,2095,1
2021.0,2263,2282,2109,1
2022.0,2268,2520,2027,1
2023.0,2242,2695,1990,1
2024.0,2225,2465,1956,1
2025.0,2210,2319,1916,1
2026.0,2220,2420,1860,1
2027.0,2219,2492,1931,1
2028.0,2176,2357,1989,1
2029.0,2211,2257,1969,1
2030.0,2185,2295,1741,1
2031.0,2232,2394,1979,1
2032.0,2233,2345,1884,1
2033.0,2197,2339,1880,1
2034.0,2167,2299,1849,1
2035.0,2155,2324,1913,1
2036.0,2185,2336,1918,1
2037.0,2249,2357,1901,1
2038.0,2232,2339,1817,1
2039.0,2148,2327,1834,1
2040.0,2107,2359,1751,1
2041.0,2106,2354,1753,1
2042.0,2124,2284,1754,1
2043.0,2147,2271,1747,1
2044.0,2087,2279,1719,1
2045.0,2061,2318,1751,1
2046.0,2106,2310,1687,1
2047.0,2137,2255,1649,1
2048.0,2040,2278,1674,1
2049.0,2058,2263,1764,1
2050.0,2071,2304,1851,1
2051.0,2058,2270,1818,1
2052.0,2061,2261,1835,1
2053.0,1977,2202,1742,1
2054.0,2035,2266,1721,1
2055.0,2056,2320,1640,1
2056.0,2099,2400,1673,1
2057.0,2111,2380,1719,1
2058.0,2085,2255,1729,1
2059.0,2057,2258,1737,1
2060.0,2057,2308,1741,1
2061.0,2063,2333,1752,1
2062.0,2039,2284,1789,1
2063.0,2040,2226,1705,1
2064.0,2020,2271,1732,1
2065.0,2083,2273,1750,1
2066.0,2094,2255,1736,1
2067.0,2016,2179,1737,1
2068.0,1987,2140,1740,1
2069.0,2022,2222,1702,1
2070.0,2040,2231,1673,1
2071.0,2026,2196,1671,1
2072.0,2071,2307,1742,1
2073.0,2119,2357,1731,1
2074.0,2068,2334,1719,1
2075.0,2026,2314,1745,1
2076.0,1989,2247,1766,1
2077.0,1954,2224,1803,1
2078.0,1977,2188,1775,1
2079.0,2011,2202,1683,1
2080.0,2071,2233,1666,1
2081.0,2027,2266,1657,1
2082.0,2042,2232,1680,1
2083.0,2035,2207,1725,1
2084.0,1980,2141,1677,1
2085.0,2019,2152,1666,1
2086.0,2034,2187,1710,1
2087.0,2063,2147,1663,1
2088.0,2038,2171,1693,1
2089.0,1962,2095,1661,1
2090.0,1976,2301,1678,1
2091.0,1855,2253,1667,1
2092.0,1981,2190,1747,1
2093.0,2017,2149,1748,1
2094.0,1982,2162,1668,1
2095.0,1952,2293,1740,1
2096.0,1934,2122,1623,1
2097.0,2006,2357,1568,1
2098.0,1987,2128,1635,1
2099.0,2038,2015,1698,1
2100.0,2000,1993,1686,1
2101.0,1922,2178,1706,1
2102.0,1869,2156,1749,1
2103.0,2015,2282,1764,1
2104.0,1997,2129,1689,1
2105.0,2018,2201,1641,1
2106.0,2135,2250,1502,1
2107.0,2053,2239,1784,1
2108.0,2150,2097,1713,1
2109.0,1966,2274,1711,1
2110.0,2005,2213,1823,1
2111.0,1987,2214,1743,1
2112.0,2031,2161,1737,1
2113.0,2044,2317,1724,1
2114.0,2024,2365,1799,1
2115.0,1994,2328,1776,1
2116.0,1962,2305,1801,1
2117.0,1979,2339,1811,1
2118.0,1981,2351,1795,1
2119.0,1984,2312,1800,1
2120.0,1989,2260,1776,1
2121.0,1978,2309,1759,1
2122.0,1951,2364,1834,1
2123.0,2018,2350,1866,1
2124.0,1961,2313,1800,1
2125.0,1912,2340,1834,1
2126.0,1929,2385,1832,1
2127.0,1936,2358,1852,1
2128.0,1962,2323,1836,1
2129.0,1901,2342,1901,1
2130.0,1961,2404,1910,1
2131.0,1984,2397,1901,1
2132.0,1951,2326,1848,1
2133.0,1948,2320,1874,1
2134.0,1992,2406,1797,1
2135.0,1925,2285,1771,1
2136.0,1848,2350,1831,1
2137.0,2003,2602,1731,1
2138.0,2009,2359,1819,1
2139.0,1939,2375,1839,1
2140.0,1938,2343,1770,1
2141.0,1975,2337,1763,1
2142.0,2093,2343,1784,1
2143.0,2062,2304,1755,1
2144.0,1973,2260,1766,1
2145.0,1948,2251,1732,1
2146.0,2009,2278,1751,1
2147.0,2046,2265,1706,1
2148.0,2003,2296,1734,1
2149.0,1965,2229,1724,1
2150.0,1932,2187,1751,1
2151.0,1937,2162,1756,1
2152.0,1970,2199,1734,1
2153.0,2036,2235,1710,1
2154.0,2047,2227,1737,1
2155.0,2004,2187,1707,1
2156.0,1984,2181,1675,1
2157.0,2033,2197,1691,1
2158.0,2027,2209,1669,1
2159.0,1995,2189,1674,1
2160.0,1963,2179,1689,1
2161.0,1946,2178,1698,1
2162.0,1974,2159,1669,1
2163.0,2011,2156,1679,1
2164.0,2018,2201,1681,1
2165.0,1999,2198,1735,1
2166.0,2007,2153,1665,1
2167.0,2022,2155,1704,1
2168.0,1906,1973,1656,1
2169.0,1959,2023,1689,1
2170.0,2232,2399,1783,1
2171.0,2093,2301,1747,1
2172.0,2053,2186,1743,1
2173.0,2032,2204,1667,1
2174.0,2058,2205,1630,1
2175.0,2039,2252,1721,1
2176.0,2008,2200,1712,1
2177.0,2013,2184,1737,1
2178.0,2013,2177,1695,1
2179.0,2039,2189,1658,1
2180.0,1984,2234,1693,1
2181.0,1951,2249,1724,1
2182.0,2062,2187,1650,1
2183.0,2048,2174,1682,1
2184.0,1984,2180,1689,1
2185.0,1931,2212,1756,1
2186.0,1983,2208,1750,1
2187.0,1969,2213,1735,1
2188.0,1992,2205,1739,1
2189.0,1974,2174,1700,1
2190.0,1935,2149,1721,1
2191.0,2065,2218,1678,1
2192.0,2033,2154,1636,1
2193.0,2094,2155,1674,1
2194.0,2015,2202,1691,1
2195.0,2010,2185,1660,1
2196.0,1966,2235,1719,1
2197.0,1967,2227,1688,1
2198.0,1987,2187,1703,1
2199.0,2048,2132,1634,1
2200.0,2077,2154,1635,1
2201.0,1999,2231,1746,1
2202.0,1989,2245,1689,1
2203.0,1983,2156,1660,1
2204.0,2037,2187,1700,1
2205.0,2097,2277,1778,1
2206.0,2050,2271,1787,1
2207.0,1993,2119,1562,1
2208.0,1989,2142,1607,1
2209.0,2124,2215,1757,1
2210.0,2062,2129,1647,1
2211.0,2063,2128,1652,1
2212.0,2108,2142,1743,1
2213.0,2071,2197,1709,1
2214.0,2017,2266,1671,1
2215.0,2022,2234,1764,1
2216.0,2037,2176,1787,1
2217.0,1999,2170,1776,1
2218.0,1989,2266,1661,1
2219.0,2040,2253,1694,1
2220.0,2031,2209,1786,1
2221.0,2016,2197,1863,1
2222.0,1997,2359,1871,1
2223.0,1962,2310,1824,1
2224.0,1902,2371,1758,1
2225.0,1911,2373,1789,1
2226.0,1888,2390,1771,1
2227.0,1914,2363,1744,1
2228.0,1941,2302,1743,1
2229.0,1928,2268,1748,1
2230.0,1894,2296,1755,1
2231.0,1848,2320,1736,1
2232.0,1934,2317,1774,1
2233.0,1955,2324,1773,1
2234.0,1979,2362,1736,1
2235.0,1954,2297,1798,1
2236.0,1863,2300,1872,1
2237.0,1843,2266,1869,1
2238.0,1839,2257,1843,1
2239.0,1878,2277,1835,1
2240.0,1880,2306,1826,1
2241.0,1901,2341,1836,1
2242.0,1911,2368,1829,1
2243.0,1911,2346,1815,1
2244.0,1899,2303,1810,1
2245.0,1872,2286,1839,1
2246.0,1899,2331,1830,1
2247.0,1920,2356,1809,1
2248.0,1925,2355,1823,1
2249.0,1908,2317,1786,1
2250.0,1887,2273,1863,1
2251.0,1801,2312,1894,1
2252.0,1859,2309,1866,1
2253.0,1911,2338,1786,1
2254.0,1941,2361,1777,1
2255.0,1907,2333,1841,1
2256.0,1870,2284,1900,1
2257.0,1824,2283,1898,1
2258.0,1844,2330,1884,1
2259.0,1885,2247,2069,1
2260.0,1875,2385,1887,1
2261.0,1908,2363,1770,1
2262.0,1880,2330,1743,1
2263.0,1878,2359,1863,1
2264.0,1847,2343,1898,1
2265.0,1816,2288,1910,1
2266.0,1782,2246,1922,1
2267.0,1759,2281,1886,1
2268.0,1801,2340,1930,1
2269.0,1858,2373,1920,1
2270.0,1868,2323,1920,1
2271.0,1812,2247,1902,1
2272.0,1803,2353,1880,1
2273.0,1827,2345,1892,1
2274.0,1885,2380,1923,1
2275.0,1858,2356,1929,1
2276.0,1841,2320,1918,1
2277.0,1885,2331,1912,1
2278.0,1845,2361,1873,1
2279.0,1843,2343,1878,1
2280.0,1834,2333,1896,1
2281.0,1815,2332,1894,1
2282.0,1837,2347,1951,1
2283.0,1851,2355,1957,1
2284.0,1818,2329,1871,1
2285.0,1778,2294,1854,1
2286.0,1812,2332,1927,1
2287.0,1824,2355,1956,1
2288.0,1866,2386,1960,1
2289.0,1909,2317,1915,1
2290.0,1825,2287,1931,1
2291.0,1789,2246,1904,1
2292.0,1766,2253,1871,1
2293.0,1819,2305,1900,1
2294.0,1833,2341,1932,1
2295.0,1840,2347,1953,1
2296.0,1851,2341,1906,1
2297.0,1857,2361,1903,1
2298.0,1801,2304,1916,1
2299.0,1822,2303,1908,1
2300.0,1819,2322,1885,1
2301.0,1831,2346,1903,1
2302.0,1792,2285,1961,1
2303.0,1840,2369,2008,1
2304.0,1835,2355,1913,1
2305.0,1843,2321,1896,1
2306.0,1790,2295,1903,1
2307.0,1799,2324,1915,1
2308.0,1800,2327,1910,1
2309.0,1830,2354,1969,1
2310.0,1835,2356,1939,1
2311.0,1822,2363,1858,1
2312.0,1865,2353,1872,1
2313.0,1781,2180,1887,1
2314.0,1815,2335,2006,1
2315.0,1806,2321,1984,1
2316.0,1816,2281,1927,1
2317.0,1829,2294,1900,1
2318.0,1823,2287,1909,1
2319.0,1838,2343,1916,1
2320.0,1823,2327,1915,1
2321.0,1739,2338,1930,1
2322.0,1897,2334,1971,1
2323.0,1827,2325,1922,1
2324.0,1778,2315,1895,1
2325.0,1855,2335,1888,1
2326.0,1785,2269,1916,1
2327.0,1782,2298,1925,1
2328.0,1777,2312,1918,1
2329.0,1821,2332,1901,1
2330.0,1820,2328,1882,1
2331.0,1790,2315,1848,1
2332.0,1778,2285,1858,1
2333.0,1776,2270,1899,1
2334.0,1849,2355,1972,1
2335.0,1874,2336,1969,1
2336.0,1822,2275,1876,1
2337.0,1836,2367,1855,1
2338.0,1786,2197,1887,1
2339.0,1700,2127,1930,1
2340.0,1720,2221,1987,1
2341.0,1844,2322,1887,1
2342.0,1827,2323,1908,1
2343.0,1667,2480,1901,1
2344.0,1789,2209,1985,1
2345.0,1785,2233,1892,1
2346.0,1642,2143,1986,1
2347.0,1808,2388,1957,1
2348.0,1874,2399,1908,1
2349.0,1815,2345,1923,1
2350.0,1787,2313,1953,1
2351.0,1802,2307,1948,1
2352.0,1768,2319,1902,1
2353.0,1781,2295,1902,1
2354.0,1774,2309,1931,1
2355.0,1794,2292,1923,1
2356.0,1789,2287,1934,1
2357.0,1751,2282,1963,1
2358.0,1716,2288,1943,1
2359.0,1794,2328,1919,1
2360.0,1780,2291,1914,1
2361.0,1770,2285,1933,1
2362.0,1766,2270,1941,1
2363.0,1741,2309,1948,1
2364.0,1831,2390,1925,1
2365.0,1806,2447,1906,1
2366.0,1839,2434,1899,1
2367.0,1813,2321,1932,1
2368.0,1807,2269,1957,1
2369.0,1779,2268,2014,1
2370.0,1722,2259,2024,1
2371.0,1741,2247,1997,1
2372.0,1818,2281,1982,1
2373.0,1845,2281,1953,1
2374.0,1903,2277,1983,1
2375.0,1856,2293,1943,1
2376.0,1912,2296,1886,1
2377.0,1940,2355,1888,1
2378.0,1939,2419,1888,1
2379.0,1925,2427,1887,1
2380.0,1832,2340,1928,1
2381.0,1833,2343,1930,1
2382.0,1872,2337,1947,1
2383.0,1900,2365,1929,1
2384.0,1896,2381,1927,1
2385.0,1897,2392,1929,1
2386.0,1905,2387,1939,1
2387.0,1907,2390,1938,1
2388.0,1907,2386,1940,1
2389.0,1907,2388,1945,1
2390.0,1901,2390,1950,1
2391.0,1907,2399,1948,1
2392.0,1911,2398,1949,1
2393.0,1911,2396,1949,1
2394.0,1920,2396,1957,1
2395.0,1919,2391,1961,1
2396.0,1924,2394,1956,1
2397.0,1925,2402,1956,1
2398.0,1928,2401,1957,1
2399.0,1933,2403,1953,1
2400.0,1936,2399,1958,1
2401.0,1937,2409,1957,1
2402.0,1942,2404,1962,1
2403.0,1934,2389,1969,1
2404.0,1941,2382,1961,1
2405.0,1935,2385,1954,1
2406.0,1935,2396,1958,1
2407.0,1943,2393,1963,1
2408.0,1940,2385,1967,1
2409.0,1942,2386,1957,1
2410.0,1945,2397,1962,1
2411.0,1953,2400,1965,1
2412.0,1944,2397,1961,1
2413.0,1948,2393,1960,1
2414.0,1944,2400,1963,1
2415.0,1954,2396,1960,1
2416.0,1951,2406,1964,1
2417.0,1953,2407,1967,1
2418.0,1956,2410,1965,1
2419.0,1949,2407,1965,1
2420.0,1950,2403,1963,1
2421.0,1955,2405,1968,1
2422.0,1958,2401,1963,1
2423.0,1954,2405,1969,1
2424.0,1957,2408,1966,1
2425.0,1958,2405,1959,1
2426.0,1957,2405,1963,1
2427.0,1959,2398,1959,1
2428.0,1956,2398,1964,1
2429.0,1959,2404,1961,1
2430.0,1957,2405,1963,1
2431.0,1958,2399,1967,1
2432.0,1949,2394,1962,1
2433.0,1948,2402,1960,1
2434.0,1952,2403,1959,1
2435.0,1956,2401,1959,1
2436.0,1954,2400,1958,1
2437.0,1951,2395,1962,1
2438.0,1952,2404,1969,1
2439.0,1955,2405,1963,1
2440.0,1958,2405,1957,1
2441.0,1948,2399,1955,1
2442.0,1953,2399,1957,1
2443.0,1949,2405,1958,1
2444.0,1938,2394,1965,1
2445.0,1935,2401,1959,1
2446.0,1929,2396,1952,1
2447.0,1971,2404,1982,1
2448.0,1960,2401,1996,1
2449.0,1965,2394,1984,1
2450.0,1967,2409,1973,1
2451.0,1979,2415,1985,1
2452.0,1986,2414,1990,1
2453.0,1984,2408,1990,1
2454.0,1989,2413,2001,1
2455.0,1986,2417,1996,1
2456.0,1994,2420,2005,1
2457.0,2001,2413,2013,1
2458.0,2015,2399,2013,1
2459.0,2011,2415,2012,1
2460.0,2007,2411,2013,1
2461.0,2010,2414,2005,1
2462.0,2009,2412,1998,1
2463.0,2001,2413,2004,1
2464.0,2001,2414,2001,1
2465.0,1991,2418,2009,1
2466.0,2001,2406,2003,1
2467.0,1993,2405,1999,1
2468.0,1973,2422,1992,1
2469.0,1965,2436,1985,1
2470.0,1966,2424,1980,1
2471.0,1950,2416,1969,1
2472.0,1974,2404,1978,1
2473.0,1974,2403,1965,1
2474.0,1967,2412,1962,1
2475.0,1959,2417,1984,1
2476.0,1959,2402,2006,1
2477.0,1966,2398,2015,1
2478.0,1994,2403,1997,1
2479.0,2020,2404,1985,1
2480.0,2016,2403,1972,1
2481.0,1999,2404,1957,1
2482.0,1977,2407,1947,1
2483.0,1952,2407,1930,1
2484.0,1893,2437,1924,1
2485.0,1878,2414,1948,1
2486.0,1905,2387,1986,1
2487.0,1931,2389,1999,1
2488.0,1978,2395,1979,1
2489.0,2026,2405,1964,1
2490.0,2058,2397,1971,1
2491.0,2011,2391,1970,1
2492.0,1990,2394,1960,1
2493.0,1963,2409,1944,1
2494.0,1946,2398,1931,1
2495.0,1925,2398,1926,1
2496.0,1891,2414,1920,1
2497.0,1908,2409,1945,1
2498.0,1916,2419,1972,1
2499.0,1963,2402,1983,1
2500.0,1998,2393,1966,1
2501.0,2041,2380,1962,1
2502.0,2031,2396,1959,1
2503.0,1987,2398,1956,1
2504.0,1960,2399,1939,1
2505.0,1928,2393,1931,1
2506.0,1897,2400,1924,1
2507.0,1893,2411,1941,1
2508.0,1910,2411,1958,1
2509.0,1923,2410,1965,1
2510.0,1968,2399,1959,1
2511.0,2004,2385,1957,1
2512.0,2036,2378,1952,1
2513.0,1989,2402,1948,1
2514.0,1975,2395,1945,1
2515.0,1962,2374,1931,1
2516.0,1946,2371,1925,1
2517.0,1921,2392,1926,1
2518.0,1878,2409,1925,1
2519.0,1867,2401,1917,1
2520.0,1912,2410,1953,1
2521.0,1957,2404,1941,1
2522.0,1992,2387,1935,1
2523.0,1994,2387,1944,1
2524.0,1974,2390,1941,1
2525.0,1972,2387,1934,1
2526.0,1969,2391,1923,1
2527.0,1954,2401,1923,1
2528.0,1934,2405,1933,1
2529.0,1934,2395,1946,1
2530.0,1934,2401,1934,1
2531.0,1957,2412,1930,1
2532.0,1949,2399,1926,1
2533.0,1955,2377,1931,1
2534.0,1981,2376,1927,1
2535.0,2009,2384,1927,1
2536.0,1979,2386,1924,1
2537.0,1974,2385,1945,1
2538.0,1967,2391,1943,1
2539.0,1970,2385,1940,1
2540.0,1969,2381,1935,1
2541.0,1949,2398,1935,1
2542.0,1931,2405,1931,1
2543.0,1924,2406,1934,1
2544.0,1924,2401,1943,1
2545.0,1916,2398,1942,1
2546.0,1915,2393,1945,1
2547.0,1930,2401,1954,1
2548.0,1952,2400,1945,1
2549.0,1958,2398,1949,1
2550.0,1950,2426,1973,1
2551.0,1948,2423,1967,1
2552.0,1923,2417,1960,1
2553.0,1936,2387,1933,1
2554.0,1952,2410,1947,1
2555.0,1965,2411,1961,1
2556.0,1972,2406,1948,1
2557.0,1974,2395,1949,1
2558.0,1989,2391,1956,1
2559.0,1977,2401,1966,1
2560.0,1975,2402,1975,1
2561.0,1968,2411,1977,1
2562.0,1974,2422,1968,1
2563.0,1980,2425,1964,1
2564.0,1969,2421,1960,1
2565.0,1967,2417,1957,1
2566.0,1950,2417,1965,1
2567.0,1938,2393,1992,1
2568.0,1939,2387,1975,1
2569.0,1939,2406,1949,1
2570.0,1950,2414,1951,1
2571.0,1978,2439,1988,1
2572.0,1979,2440,1985,1
2573.0,1992,2417,1974,1
2574.0,2015,2425,1975,1
2575.0,2009,2405,1975,1
2576.0,1990,2398,1975,1
2577.0,2003,2394,1981,1
2578.0,2025,2387,1992,1
2579.0,2055,2402,2005,1
2580.0,2087,2406,2022,1
2581.0,2048,2439,2016,1
2582.0,2030,2431,2014,1
2583.0,2041,2401,2005,1
2584.0,2061,2413,2015,1
2585.0,2075,2427,2022,1
2586.0,2067,2440,2002,1
2587.0,2060,2407,1987,1
2588.0,2039,2394,1971,1
2589.0,2046,2398,1983,1
2590.0,2059,2398,1990,1
2591.0,2044,2420,1981,1
2592.0,2034,2423,1980,1
2593.0,2045,2423,1976,1
2594.0,2043,2387,1972,1
2595.0,2033,2390,1961,1
2596.0,2045,2427,1965,1
2597.0,2033,2446,1966,1
2598.0,2021,2434,1967,1
2599.0,2036,2396,1962,1
2600.0,2056,2405,1974,1
2601.0,2050,2389,1971,1
2602.0,2061,2412,1979,1
2603.0,2072,2406,1989,1
2604.0,2042,2406,1973,1
2605.0,2046,2439,1979,1
2606.0,2050,2435,1968,1
2607.0,2040,2405,1967,1
2608.0,2044,2405,1967,1
2609.0,2062,2415,1969,1
2610.0,2064,2416,1966,1
2611.0,2047,2411,1969,1
2612.0,2035,2416,1970,1
2613.0,2042,2403,1965,1
2614.0,2048,2403,1966,1
2615.0,2056,2408,1961,1
2616.0,2038,2414,1963,1
2617.0,2038,2418,1963,1
2618.0,2039,2415,1964,1
2619.0,2075,2407,1963,1
2620.0,2044,2414,1959,1
2621.0,2046,2415,1966,1
2622.0,2039,2420,1971,1
2623.0,2030,2428,1958,1
2624.0,2037,2411,1951,1
2625.0,2044,2406,1947,1
2626.0,2061,2419,1958,1
2627.0,2071,2417,1967,1
2628.0,2048,2411,1958,1
2629.0,2048,2402,1972,1
2630.0,2041,2411,1963,1
2631.0,2049,2391,1964,1
2632.0,2069,2387,1989,1
2633.0,2051,2414,1966,1
2634.0,2020,2418,1962,1
2635.0,2029,2408,1966,1
2636.0,2070,2391,1968,1
2637.0,2089,2400,1974,1
2638.0,2092,2408,1967,1
2639.0,2074,2412,1962,1
2640.0,2053,2419,1965,1
2641.0,2032,2418,1962,1
2642.0,2029,2422,1966,1
2643.0,2031,2430,1958,1
2644.0,2050,2415,1956,1
2645.0,2056,2404,1955,1
2646.0,2055,2411,1959,1
2647.0,2039,2405,1951,1
2648.0,2040,2411,1950,1
2649.0,2036,2414,1954,1
2650.0,2040,2407,1959,1
2651.0,2051,2410,1965,1
2652.0,2048,2398,1966,1
2653.0,2054,2405,1963,1
2654.0,2053,2413,1955,1
2655.0,2064,2409,1960,1
2656.0,2061,2412,1959,1
2657.0,2062,2410,1966,1
2658.0,2063,2413,1961,1
2659.0,2069,2410,1968,1
2660.0,2058,2413,1962,1
2661.0,2046,2416,1957,1
2662.0,2043,2413,1950,1
2663.0,2049,2412,1951,1
2664.0,2053,2415,1944,1
2665.0,2051,2411,1948,1
2666.0,2069,2401,1945,1
2667.0,2064,2402,1953,1
2668.0,2053,2397,1962,1
2669.0,2054,2411,1963,1
2670.0,2050,2413,1966,1
2671.0,2028,2405,1951,1
2672.0,2032,2404,1950,1
2673.0,2035,2411,1956,1
2674.0,2038,2417,1953,1
2675.0,2038,2421,1960,1
2676.0,2033,2417,1950,1
2677.0,2035,2411,1963,1
2678.0,2044,2422,1963,1
2679.0,2064,2449,1957,1
2680.0,2053,2457,1954,1
2681.0,2034,2424,1953,1
2682.0,2020,2409,1971,1
2683.0,2039,2390,1964,1
2684.0,2051,2402,1977,1
2685.0,2056,2415,1982,1
2686.0,2047,2422,1977,1
2687.0,2052,2387,1986,1
2688.0,2065,2341,2006,1
2689.0,2071,2418,1986,1
2690.0,2065,2435,1980,1
2691.0,2033,2451,1965,1
2692.0,2022,2440,1959,1
2693.0,2040,2436,1963,1
2694.0,2045,2457,1961,1
2695.0,2045,2435,1966,1
2696.0,2039,2410,1964,1
2697.0,2039,2374,1959,1
2698.0,2044,2350,1975,1
2699.0,2052,2397,1979,1
2700.0,2060,2393,1974,1
2701.0,2057,2396,1981,1
2702.0,2043,2402,1973,1
2703.0,2046,2407,1970,1
2704.0,2054,2428,1961,1
2705.0,2064,2404,1968,1
2706.0,2067,2397,1964,1
2707.0,2058,2406,1963,1
2708.0,2053,2427,1959,1
2709.0,2043,2435,1955,1
2710.0,2044,2415,1948,1
2711.0,2040,2405,1950,1
2712.0,2053,2411,1950,1
2713.0,2055,2419,1946,1
2714.0,2055,2401,1955,1
2715.0,2060,2381,1976,1
2716.0,2058,2383,1983,1
2717.0,2068,2406,1974,1
2718.0,2060,2407,1971,1
2719.0,2064,2412,1952,1
2720.0,2069,2392,1992,1
2721.0,2069,2391,1990,1
2722.0,2069,2392,1987,1
2723.0,2063,2404,1985,1
2724.0,2059,2401,1980,1
2725.0,2057,2404,1985,1
2726.0,2049,2407,2002,1
2727.0,2039,2437,1975,1
2728.0,2023,2426,1937,1
2729.0,2034,2419,1955,1
2730.0,2051,2418,1989,1
2731.0,2027,2427,1984,1
2732.0,2021,2418,1979,1
2733.0,2019,2405,1987,1
2734.0,2021,2410,1990,1
2735.0,2009,2425,1989,1
2736.0,1995,2432,1987,1
2737.0,2006,2426,1987,1
2738.0,1990,2419,1965,1
2739.0,1985,2403,1952,1
2740.0,1982,2408,1957,1
2741.0,2006,2415,1987,1
2742.0,2025,2417,2012,1
2743.0,1988,2411,1975,1
2744.0,1974,2398,1966,1
2745.0,1979,2409,1973,1
2746.0,2007,2418,1989,1
2747.0,2009,2417,1990,1
2748.0,2001,2416,1988,1
2749.0,1987,2409,1988,1
2750.0,1982,2409,1980,1
2751.0,1989,2413,1989,1
2752.0,1999,2426,1990,1
2753.0,1992,2420,1990,1
2754.0,1987,2413,1984,1
2755.0,1992,2403,1984,1
2756.0,2007,2401,1990,1
2757.0,2006,2406,1978,1
2758.0,2026,2401,2005,1
2759.0,2005,2395,1997,1
2760.0,2008,2418,1991,1
2761.0,2011,2436,1999,1
2762.0,1997,2424,1995,1
2763.0,1994,2409,2000,1
2764.0,1989,2413,2006,1
2765.0,2000,2415,2001,1
2766.0,2006,2426,1999,1
2767.0,2006,2425,2000,1
2768.0,2000,2411,1995,1
2769.0,1990,2405,2004,1
2770.0,1988,2402,1997,1
2771.0,1982,2408,2003,1
2772.0,1996,2402,2010,1
2773.0,2000,2415,2007,1
2774.0,1992,2422,2001,1
2775.0,1987,2416,2004,1
2776.0,1989,2404,2006,1
2777.0,1983,2421,2004,1
2778.0,1976,2423,2007,1
2779.0,1963,2430,2003,1
2780.0,1960,2419,1983,1
2781.0,1977,2403,1979,1
2782.0,1966,2408,1979,1
2783.0,1977,2439,2000,1
2784.0,1992,2435,2019,1
2785.0,1988,2418,2016,1
2786.0,1981,2407,2005,1
2787.0,1952,2410,1986,1
2788.0,1944,2390,1969,1
2789.0,1940,2387,1962,1
2790.0,1943,2386,1948,1
2791.0,1925,2435,1955,1
2792.0,1939,2447,1973,1
2793.0,1954,2419,1992,1
2794.0,1957,2389,2010,1
2795.0,1959,2375,1999,1
2796.0,1938,2384,1985,1
2797.0,1906,2394,1966,1
2798.0,1901,2360,1959,1
2799.0,1889,2339,1948,1
2800.0,1896,2340,1942,1
2801.0,1887,2349,1956,1
2802.0,1915,2376,1980,1
2803.0,1950,2375,1991,1
2804.0,1956,2375,1996,1
2805.0,1948,2411,2006,1
2806.0,1975,2438,2005,1
2807.0,1989,2475,2020,1
2808.0,2027,2481,2035,1
2809.0,2038,2483,2048,1
2810.0,1963,2473,2037,1
2811.0,1930,2432,2025,1
2812.0,1914,2401,2026,1
2813.0,1898,2375,2026,1
2814.0,1914,2340,2022,1
2815.0,1909,2349,2006,1
2816.0,1882,2369,2015,1
2817.0,1907,2369,2035,1
2818.0,1932,2391,2034,1
2819.0,1931,2414,2043,1
2820.0,1973,2423,2032,1
2821.0,1994,2447,2025,1
2822.0,1948,2444,2030,1
2823.0,1900,2403,2037,1
2824.0,1883,2423,2038,1
2825.0,1907,2415,2055,1
2826.0,1927,2435,2047,1
2827.0,1942,2442,2047,1
2828.0,1925,2422,2037,1
2829.0,1931,2386,2030,1
2830.0,1937,2383,2031,1
2831.0,1911,2399,2044,1
2832.0,1889,2390,2063,1
2833.0,1918,2428,2066,1
2834.0,1902,2397,2029,1
2835.0,1908,2373,2005,1
2836.0,1911,2369,2017,1
2837.0,1935,2382,2044,1
2838.0,1934,2394,2091,1
2839.0,1934,2393,2123,1
2840.0,1952,2409,2109,1
2841.0,1933,2393,2095,1
2842.0,1919,2391,2079,1
2843.0,1921,2389,2082,1
2844.0,1910,2391,2090,1
2845.0,1908,2386,2091,1
2846.0,1913,2393,2090,1
2847.0,1912,2395,2085,1
2848.0,1923,2402,2082,1
2849.0,1922,2398,2072,1
2850.0,1920,2393,2070,1
2851.0,1915,2398,2071,1
2852.0,1915,2397,2075,1
2853.0,1924,2401,2081,1
2854.0,1915,2400,2076,1
2855.0,1910,2394,2074,1
2856.0,1918,2396,2073,1
2857.0,1920,2389,2072,1
2858.0,1921,2392,2075,1
2859.0,1920,2390,2077,1
2860.0,1914,2392,2075,1
2861.0,1920,2396,2078,1
2862.0,1916,2392,2070,1
2863.0,1914,2399,2084,1
2864.0,1916,2393,2079,1
2865.0,1920,2399,2081,1
2866.0,1914,2393,2080,1
2867.0,1914,2390,2080,1
2868.0,1906,2401,2080,1
2869.0,1909,2398,2078,1
2870.0,1910,2401,2073,1
2871.0,1919,2398,2079,1
2872.0,1915,2397,2077,1
2873.0,1910,2389,2077,1
2874.0,1913,2394,2072,1
2875.0,1918,2398,2074,1
2876.0,1918,2401,2077,1
2877.0,1915,2396,2080,1
2878.0,1910,2387,2075,1
2879.0,1907,2399,2079,1
2880.0,1919,2395,2079,1
2881.0,1915,2394,2073,1
2882.0,1910,2397,2079,1
2883.0,1913,2401,2072,1
2884.0,1911,2402,2073,1
2885.0,1913,2397,2075,1
2886.0,1915,2394,2080,1
2887.0,1911,2396,2082,1
2888.0,1914,2403,2073,1
2889.0,1918,2393,2076,1
2890.0,1927,2395,2084,1
2891.0,1927,2394,2082,1
2892.0,1925,2391,2080,1
2893.0,1920,2397,2078,1
2894.0,1918,2400,2079,1
2895.0,1920,2397,2075,1
2896.0,1915,2403,2076,1
2897.0,1918,2399,2072,1
2898.0,1919,2404,2074,1
2899.0,1913,2386,2072,1
2900.0,1908,2383,2068,1
2901.0,1916,2378,2072,1
2902.0,1913,2384,2070,1
2903.0,1923,2397,2071,1
2904.0,1913,2391,2059,1
2905.0,1907,2379,2056,1
2906.0,1912,2355,2059,1
2907.0,1907,2371,2057,1
2908.0,1900,2397,2048,1
2909.0,1893,2432,2051,1
2910.0,1871,2480,2043,1
2911.0,1886,2475,2076,1
2912.0,1920,2425,2081,1
2913.0,1988,2301,2085,1
2914.0,1949,2347,2069,1
2915.0,1905,2419,2060,1
2916.0,1904,2393,2071,1
2917.0,1886,2381,2061,1
2918.0,1884,2410,2042,1
2919.0,1942,2372,2042,1
2920.0,1905,2328,2035,1
2921.0,1868,2363,2060,1
2922.0,1843,2456,2095,1
2923.0,1850,2533,2124,1
2924.0,1898,2499,2090,1
2925.0,1989,2330,2044,1
2926.0,2030,2209,1992,1
2927.0,1907,2268,1965,1
2928.0,1812,2388,1935,1
2929.0,1819,2432,1967,1
2930.0,1901,2446,2021,1
2931.0,1977,2451,2083,1
2932.0,1990,2444,2153,1
2933.0,1885,2423,2139,1
2934.0,1839,2383,2071,1
2935.0,1821,2399,2036,1
2936.0,1887,2339,2008,1
2937.0,1960,2243,1983,1
2938.0,1945,2269,1971,1
2939.0,1869,2406,1958,1
2940.0,1890,2521,1977,1
2941.0,1970,2513,2048,1
2942.0,1972,2469,2104,1
2943.0,1904,2403,2101,1
2944.0,1847,2311,2070,1
2945.0,1759,2314,2013,1
2946.0,1810,2381,2024,1
2947.0,1914,2431,2025,1
2948.0,1959,2415,1994,1
2949.0,1896,2376,2011,1
2950.0,1818,2383,2013,1
2951.0,1888,2357,2043,1
2952.0,1951,2388,1985,1
2953.0,1967,2437,1957,1
2954.0,1971,2429,2024,1
2955.0,1902,2399,2083,1
2956.0,1899,2401,2081,1
2957.0,1913,2407,2058,1
2958.0,1910,2395,2046,1
2959.0,1920,2390,2046,1
2960.0,1906,2404,2043,1
2961.0,1895,2399,2040,1
2962.0,1911,2383,2035,1
2963.0,1906,2388,2038,1
2964.0,1909,2384,2020,1
2965.0,1913,2378,2030,1
2966.0,1911,2388,2039,1
2967.0,1903,2405,2044,1
2968.0,1910,2391,2048,1
2969.0,1906,2394,2039,1
2970.0,1913,2398,2027,1
2971.0,1911,2394,2035,1
2972.0,1898,2411,2028,1
2973.0,1908,2419,2012,1
2974.0,1900,2399,2028,1
2975.0,1906,2397,2032,1
2976.0,1906,2398,2036,1
2977.0,1900,2401,2044,1
2978.0,1899,2397,2039,1
2979.0,1896,2384,2037,1
2980.0,1899,2383,2031,1
2981.0,1897,2395,2035,1
2982.0,1881,2397,2040,1
2983.0,1882,2399,2050,1
2984.0,1888,2403,2046,1
2985.0,1904,2393,2046,1
2986.0,1897,2382,2065,1
2987.0,1894,2384,2060,1
2988.0,1882,2393,2063,1
2989.0,1889,2405,2046,1
2990.0,1888,2406,2050,1
2991.0,1899,2420,2048,1
2992.0,1902,2413,2039,1
2993.0,1902,2382,2042,1
2994.0,1914,2392,2055,1
2995.0,1921,2386,2065,1
2996.0,1912,2369,2065,1
2997.0,1909,2369,2083,1
2998.0,1905,2382,2063,1
2999.0,1903,2394,2049,1
3000.0,1902,2396,2060,1
3001.0,1894,2388,2056,1
3002.0,1906,2403,2057,1
3003.0,1896,2412,2066,1
3004.0,1899,2400,2067,1
3005.0,1902,2406,2057,1
3006.0,1908,2405,2063,1
3007.0,1909,2398,2065,1
3008.0,1910,2379,2073,1
3009.0,1906,2383,2069,1
3010.0,1905,2369,2080,1
3011.0,1920,2378,2070,1
3012.0,1916,2392,2069,1
3013.0,1925,2379,2081,1
3014.0,1914,2378,2075,1
3015.0,1909,2395,2083,1
3016.0,1913,2395,2078,1
3017.0,1926,2388,2083,1
3018.0,1913,2385,2077,1
3019.0,1903,2402,2079,1
3020.0,1905,2409,2064,1
3021.0,1905,2408,2062,1
3022.0,1913,2405,2066,1
3023.0,1917,2395,2070,1
3024.0,1914,2399,2071,1
3025.0,1920,2397,2063,1
3026.0,1910,2401,2063,1
3027.0,1911,2402,2060,1
3028.0,1914,2382,2057,1
3029.0,1920,2380,2065,1
3030.0,1908,2382,2061,1
3031.0,1900,2402,2055,1
3032.0,1898,2404,2050,1
3033.0,1906,2396,2056,1
3034.0,1909,2395,2064,1
3035.0,1911,2395,2064,1
3036.0,1908,2390,2065,1
3037.0,1899,2391,2067,1
3038.0,1905,2390,2056,1
3039.0,1905,2388,2045,1
3040.0,1901,2394,2048,1
3041.0,1911,2394,2058,1
3042.0,1918,2393,2063,1
3043.0,1912,2398,2057,1
3044.0,1913,2389,2054,1
3045.0,1905,2391,2055,1
3046.0,1900,2389,2053,1
3047.0,1905,2396,2053,1
3048.0,1903,2395,2059,1
3049.0,1899,2395,2059,1
3050.0,1900,2394,2053,1
3051.0,1887,2401,2059,1
3052.0,1892,2405,2066,1
3053.0,1891,2400,2070,1
3054.0,1894,2386,2064,1
3055.0,1889,2375,2045,1
3056.0,1886,2366,2041,1
3057.0,1886,2365,2046,1
3058.0,1896,2371,2058,1
3059.0,1881,2374,2068,1
3060.0,1899,2388,2041,1
3061.0,1898,2388,2042,1
3062.0,1897,2362,2055,1
3063.0,1897,2380,2044,1
3064.0,1906,2362,2049,1
3065.0,1870,2407,2024,1
3066.0,1885,2410,2032,1
3067.0,1888,2397,2035,1
3068.0,1895,2407,2044,1
3069.0,1941,2377,2060,1
3070.0,1931,2344,2031,1
3071.0,1882,2356,1958,1
3072.0,1804,2363,1894,1
3073.0,1757,2335,1878,1
3074.0,1831,2358,1930,1
3075.0,1861,2354,2021,1
3076.0,1882,2407,2069,1
3077.0,1905,2446,2095,1
3078.0,1905,2423,2073,1
3079.0,1909,2409,2031,1
3080.0,1890,2373,2005,1
3081.0,1866,2365,1996,1
3082.0,1867,2363,2007,1
3083.0,1865,2382,2017,1
3084.0,1879,2392,2023,1
3085.0,1885,2386,2012,1
3086.0,1880,2361,2002,1
3087.0,1876,2363,1994,1
3088.0,1863,2365,1987,1
3089.0,1877,2376,2002,1
3090.0,1868,2373,1983,1
3091.0,1866,2366,1987,1
3092.0,1874,2368,1996,1
3093.0,1882,2366,1987,1
3094.0,1869,2349,1971,1
3095.0,1865,2337,1954,1
3096.0,1850,2327,1955,1
3097.0,1841,2347,1967,1
3098.0,1853,2367,1977,1
3099.0,1850,2373,1977,1
3100.0,1848,2369,1982,1
3101.0,1838,2365,1983,1
3102.0,1823,2372,1987,1
3103.0,1812,2369,1999,1
3104.0,1810,2367,1999,1
3105.0,1805,2375,1999,1
3106.0,1795,2393,1996,1
3107.0,1762,2439,2004,1
3108.0,1722,2527,1999,1
3109.0,1768,2492,2015,1
3110.0,1870,2385,2039,1
3111.0,1873,2281,1994,1
3112.0,1797,2236,1913,1
3113.0,1683,2204,1885,1
3114.0,1674,2202,1936,1
3115.0,1660,2237,2040,1
3116.0,1667,2258,2008,1
3117.0,1768,2275,1995,1
3118.0,1845,2323,2006,1
3119.0,1914,2333,2015,1
3120.0,1860,2343,1988,1
3121.0,1807,2304,2003,1
3122.0,1780,2302,2015,1
3123.0,1795,2322,2005,1
3124.0,1817,2347,2009,1
3125.0,1849,2373,2007,1
3126.0,1865,2391,2009,1
3127.0,1839,2420,2012,1
3128.0,1823,2455,2043,1
3129.0,1845,2446,2060,1
3130.0,1874,2400,2027,1
3131.0,1902,2378,2014,1
3132.0,1920,2367,2036,1
3133.0,1905,2357,2072,1
3134.0,1902,2389,2085,1
3135.0,1917,2375,2086,1
3136.0,1919,2367,2066,1
3137.0,1910,2359,2056,1
3138.0,1919,2359,2063,1
3139.0,1920,2367,2059,1
3140.0,1924,2374,2060,1
3141.0,1943,2378,2077,1
3142.0,1932,2378,2067,1
3143.0,1943,2378,2074,1
3144.0,1946,2384,2074,1
3145.0,1943,2389,2070,1
3146.0,1936,2397,2070,1
3147.0,1940,2399,2069,1
3148.0,1939,2392,2054,1
3149.0,1945,2394,2058,1
3150.0,1940,2394,2044,1
3151.0,1933,2388,2022,1
3152.0,1921,2373,2021,1
3153.0,1923,2375,2018,1
3154.0,1921,2384,2027,1
3155.0,1913,2395,2033,1
3156.0,1910,2401,2036,1
3157.0,1906,2404,2044,1
3158.0,1903,2399,2037,1
3159.0,1908,2407,2044,1
3160.0,1903,2396,2022,1
3161.0,1892,2398,1995,1
3162.0,1885,2389,2001,1
3163.0,1881,2387,1999,1
3164.0,1875,2394,1995,1
3165.0,1872,2398,2000,1
3166.0,1869,2392,2007,1
3167.0,1857,2386,2006,1
3168.0,1858,2384,2009,1
3169.0,1851,2382,2014,1
3170.0,1845,2389,2015,1
3171.0,1851,2388,2021,1
3172.0,1845,2376,2015,1
3173.0,1850,2373,2016,1
3174.0,1839,2388,2007,1
3175.0,1842,2383,2017,1
3176.0,1849,2373,2012,1
3177.0,1855,2379,2011,1
3178.0,1840,2374,2023,1
3179.0,1841,2370,2039,1
3180.0,1850,2364,2018,1
3181.0,1865,2362,2037,1
3182.0,1854,2368,2031,1
3183.0,1854,2372,2021,1
3184.0,1840,2367,2008,1
3185.0,1823,2363,2009,1
3186.0,1823,2358,2025,1
3187.0,1814,2370,2029,1
3188.0,1813,2394,2032,1
3189.0,1814,2376,2034,1
3190.0,1827,2372,2038,1
3191.0,1843,2349,2059,1
3192.0,1853,2347,2059,1
3193.0,1876,2349,2072,1
3194.0,1881,2343,2082,1
3195.0,1864,2338,2061,1
3196.0,1878,2341,2063,1
3197.0,1875,2347,2081,1
3198.0,1888,2358,2087,1
3199.0,1891,2367,2089,1
3200.0,1879,2385,2080,1
3201.0,1868,2400,2071,1
3202.0,1865,2401,2042,1
3203.0,1857,2395,2018,1
3204.0,1843,2398,2023,1
3205.0,1837,2410,2019,1
3206.0,1850,2404,2026,1
3207.0,1862,2405,2057,1
3208.0,1880,2389,2068,1
3209.0,1895,2386,2072,1
3210.0,1899,2371,2070,1
3211.0,1899,2369,2054,1
3212.0,1899,2365,2039,1
3213.0,1886,2358,2021,1
3214.0,1881,2360,2019,1
3215.0,1870,2366,2015,1
3216.0,1856,2387,2023,1
3217.0,1847,2415,2026,1
3218.0,1840,2430,2030,1
3219.0,1859,2420,2029,1
3220.0,1875,2400,2026,1
3221.0,1889,2387,2024,1
3222.0,1897,2383,2027,1
3223.0,1903,2381,2027,1
3224.0,1907,2384,2032,1
3225.0,1889,2377,2015,1
3226.0,1897,2388,2040,1
3227.0,1906,2413,2055,1
3228.0,1914,2414,2039,1
3229.0,1892,2388,2047,1
3230.0,1946,2359,2033,1
3231.0,1944,2360,2033,1
3232.0,1952,2385,2053,1
3233.0,1964,2383,2056,1
3234.0,1987,2387,2069,1
3235.0,1979,2402,2091,1
3236.0,1981,2407,2102,1
3237.0,1967,2401,2085,1
3238.0,1947,2403,2071,1
3239.0,1939,2411,2051,1
3240.0,1925,2412,2040,1
3241.0,1917,2413,2026,1
3242.0,1901,2418,2029,1
3243.0,1913,2414,2030,1
3244.0,1917,2409,2034,1
3245.0,1920,2403,2039,1
3246.0,1922,2402,2039,1
3247.0,1926,2400,2029,1
3248.0,1922,2390,2025,1
3249.0,1928,2379,2014,1
3250.0,1916,2389,2011,1
3251.0,1923,2396,2010,1
3252.0,1925,2399,2019,1
3253.0,1929,2399,2022,1
3254.0,1926,2399,2026,1
3255.0,1920,2401,2035,1
3256.0,1922,2403,2031,1
3257.0,1918,2409,2033,1
3258.0,1919,2407,2033,1
3259.0,1917,2406,2031,1
3260.0,1916,2403,2031,1
3261.0,1915,2396,2034,1
3262.0,1915,2403,2035,1
3263.0,1915,2395,2039,1
3264.0,1918,2396,2041,1
3265.0,1912,2393,2039,1
3266.0,1924,2389,2038,1
3267.0,1920,2390,2040,1
3268.0,1913,2398,2042,1
3269.0,1910,2403,2042,1
3270.0,1916,2402,2043,1
3271.0,1917,2406,2035,1
3272.0,1921,2405,2037,1
3273.0,1913,2395,2042,1
3274.0,1915,2402,2042,1
3275.0,1912,2408,2037,1
3276.0,1914,2401,2044,1
3277.0,1920,2402,2045,1
3278.0,1919,2400,2039,1
3279.0,1927,2398,2042,1
3280.0,1926,2401,2048,1
3281.0,1920,2402,2041,1
3282.0,1921,2401,2046,1
3283.0,1927,2401,2053,1
3284.0,1926,2399,2051,1
3285.0,1926,2396,2055,1
3286.0,1929,2402,2054,1
3287.0,1927,2409,2049,1
3288.0,1925,2405,2050,1
3289.0,1923,2405,2049,1
3290.0,1925,2399,2052,1
3291.0,1922,2399,2045,1
3292.0,1927,2399,2048,1
3293.0,1925,2399,2045,1
3294.0,1923,2401,2050,1
3295.0,1927,2402,2046,1
3296.0,1928,2399,2044,1
3297.0,1926,2401,2046,1
3298.0,1926,2398,2045,1
3299.0,1930,2397,2043,1
3300.0,1926,2405,2049,1
3301.0,1926,2401,2043,1
3302.0,1928,2400,2049,1
3303.0,1928,2395,2040,1
3304.0,1925,2401,2044,1
3305.0,1929,2399,2048,1
3306.0,1928,2398,2051,1
3307.0,1928,2402,2050,1
3308.0,1926,2405,2047,1
3309.0,1925,2405,2048,1
3310.0,1929,2409,2051,1
3311.0,1929,2404,2049,1
3312.0,1926,2398,2047,1
3313.0,1924,2397,2048,1
3314.0,1929,2403,2050,1
3315.0,1922,2400,2045,1
3316.0,1928,2401,2046,1
3317.0,1926,2405,2041,1
3318.0,1925,2402,2049,1
3319.0,1925,2400,2048,1
3320.0,1918,2398,2046,1
3321.0,1920,2400,2049,1
3322.0,1919,2401,2053,1
3323.0,1925,2398,2049,1
3324.0,1919,2399,2045,1
3325.0,1922,2396,2050,1
3326.0,1926,2396,2055,1
3327.0,1920,2401,2051,1
3328.0,1924,2401,2051,1
3329.0,1923,2404,2051,1
3330.0,1922,2406,2047,1
3331.0,1922,2402,2051,1
3332.0,1924,2400,2052,1
3333.0,1921,2403,2052,1
3334.0,1922,2400,2050,1
3335.0,1926,2399,2048,1
3336.0,1925,2403,2053,1
3337.0,1925,2399,2051,1
3338.0,1924,2399,2051,1
3339.0,1928,2404,2053,1
3340.0,1927,2403,2050,1
3341.0,1926,2399,2048,1
3342.0,1923,2399,2046,1
3343.0,1923,2401,2042,1
3344.0,1930,2397,2044,1
3345.0,1927,2400,2045,1
3346.0,1931,2398,2049,1
3347.0,1931,2402,2047,1
3348.0,1924,2401,2048,1
3349.0,1924,2395,2046,1
3350.0,1922,2405,2049,1
3351.0,1925,2397,2043,1
3352.0,1923,2398,2046,1
3353.0,1925,2402,2047,1
3354.0,1925,2402,2045,1
3355.0,1926,2404,2046,1
3356.0,1923,2401,2041,1
3357.0,1923,2401,2043,1
3358.0,1928,2402,2036,1
3359.0,1929,2404,2044,1
3360.0,1923,2398,2043,1
3361.0,1919,2396,2045,1
3362.0,1918,2394,2043,1
3363.0,1925,2403,2038,1
3364.0,1928,2401,2039,1
3365.0,1930,2398,2035,1
3366.0,1927,2405,2035,1
3367.0,1926,2399,2039,1
3368.0,1928,2403,2037,1
3369.0,1925,2398,2039,1
3370.0,1925,2396,2041,1
3371.0,1923,2399,2033,1
3372.0,1930,2399,2035,1
3373.0,1923,2404,2040,1
3374.0,1921,2402,2040,1
3375.0,1917,2403,2042,1
3376.0,1924,2401,2040,1
3377.0,1918,2403,2039,1
3378.0,1926,2402,2046,1
3379.0,1921,2400,2045,1
3380.0,1915,2399,2050,1
3381.0,1923,2406,2042,1
3382.0,1921,2401,2043,1
3383.0,1913,2397,2047,1
3384.0,1922,2394,2048,1
3385.0,1917,2405,2044,1
3386.0,1915,2401,2043,1
3387.0,1917,2398,2044,1
3388.0,1911,2399,2046,1
3389.0,1909,2402,2045,1
3390.0,1920,2394,2046,1
3391.0,1917,2401,2047,1
3392.0,1916,2399,2051,1
3393.0,1919,2394,2044,1
3394.0,1924,2401,2048,1
3395.0,1922,2399,2048,1
3396.0,1923,2401,2049,1
3397.0,1924,2400,2048,1
3398.0,1919,2395,2044,1
3399.0,1924,2401,2047,1
3400.0,1918,2389,2046,1
3401.0,1919,2391,2046,1
3402.0,1920,2405,2041,1
3403.0,1917,2403,2042,1
3404.0,1914,2400,2045,1
3405.0,1925,2397,2043,1
3406.0,1918,2400,2042,1
3407.0,1922,2398,2045,1
3408.0,1925,2401,2045,1
3409.0,1925,2397,2046,1
3410.0,1923,2394,2046,1
3411.0,1924,2395,2043,1
3412.0,1921,2396,2037,1
3413.0,1926,2396,2048,1
3414.0,1922,2398,2041,1
3415.0,1920,2398,2047,1
3416.0,1922,2399,2044,1
3417.0,1916,2398,2046,1
3418.0,1911,2402,2044,1
3419.0,1913,2402,2042,1
3420.0,1915,2399,2044,1
3421.0,1915,2403,2044,1
3422.0,1907,2394,2054,1
3423.0,1917,2401,2046,1
3424.0,1921,2399,2049,1
3425.0,1922,2395,2052,1
3426.0,1922,2398,2046,1
3427.0,1918,2401,2052,1
3428.0,1917,2399,2052,1
3429.0,1913,2398,2051,1
3430.0,1921,2401,2047,1
3431.0,1917,2401,2051,1
3432.0,1917,2399,2048,1
3433.0,1922,2391,2051,1
3434.0,1920,2400,2055,1
3435.0,1918,2396,2051,1
3436.0,1918,2401,2044,1
3437.0,1920,2401,2054,1
3438.0,1924,2399,2050,1
3439.0,1922,2397,2048,1
3440.0,1925,2400,2051,1
3441.0,1922,2403,2051,1
3442.0,1922,2400,2046,1
3443.0,1916,2403,2049,1
3444.0,1921,2400,2050,1
3445.0,1916,2397,2046,1
3446.0,1924,2401,2049,1
3447.0,1920,2398,2050,1
3448.0,1914,2400,2046,1
3449.0,1920,2403,2047,1
3450.0,1918,2403,2046,1
3451.0,1921,2398,2053,1
3452.0,1919,2401,2051,1
3453.0,1921,2397,2053,1
3454.0,1922,2401,2051,1
3455.0,1921,2402,2052,1
3456.0,1926,2400,2053,1
3457.0,1917,2397,2054,1
3458.0,1916,2398,2054,1
3459.0,1921,2399,2051,1
3460.0,1920,2400,2045,1
3461.0,1921,2402,2049,1
3462.0,1922,2398,2050,1
3463.0,1917,2400,2049,1
3464.0,1914,2397,2047,1
3465.0,1920,2405,2049,1
3466.0,1922,2401,2048,1
3467.0,1921,2395,2048,1
3468.0,1920,2396,2050,1
3469.0,1921,2399,2050,1
3470.0,1917,2398,2039,1
3471.0,1923,2402,2048,1
3472.0,1921,2400,2048,1
3473.0,1917,2391,2049,1
3474.0,1911,2399,2045,1
3475.0,1920,2397,2046,1
3476.0,1920,2394,2046,1
3477.0,1925,2396,2047,1
3478.0,1920,2399,2040,1
3479.0,1920,2397,2045,1
3480.0,1921,2397,2040,1
3481.0,1919,2405,2046,1
3482.0,1917,2400,2044,1
3483.0,1923,2398,2039,1
3484.0,1923,2400,2041,1
3485.0,1914,2402,2040,1
3486.0,1926,2393,2047,1
3487.0,1915,2399,2042,1
3488.0,1921,2396,2049,1
3489.0,1917,2397,2047,1
3490.0,1927,2398,2048,1
3491.0,1928,2404,2045,1
3492.0,1918,2411,2037,1
3493.0,1906,2404,2029,1
3494.0,1910,2401,2031,1
3495.0,1915,2393,2030,1
3496.0,1913,2399,2027,1
3497.0,1915,2401,2030,1
3498.0,1919,2396,2024,1
3499.0,1921,2399,2033,1
3500.0,1920,2396,2030,1
3501.0,1919,2394,2025,1
3502.0,1921,2395,2024,1
3503.0,1923,2395,2027,1
3504.0,1918,2391,2021,1
3505.0,1918,2385,2008,1
3506.0,1914,2389,2011,1
3507.0,1910,2388,2011,1
3508.0,1911,2389,2011,1
3509.0,1911,2391,2007,1
3510.0,1909,2398,2013,1
3511.0,1909,2400,2015,1
3512.0,1912,2397,2026,1
3513.0,1906,2395,2025,1
3514.0,1906,2403,2027,1
3515.0,1900,2404,2027,1
3516.0,1910,2399,2031,1
3517.0,1908,2398,2029,1
3518.0,1905,2395,2026,1
3519.0,1906,2403,2031,1
3520.0,1910,2392,2037,1
3521.0,1907,2395,2033,1
3522.0,1905,2391,2029,1
3523.0,1907,2397,2030,1
3524.0,1900,2391,2030,1
3525.0,1907,2397,2031,1
3526.0,1907,2398,2031,1
3527.0,1908,2395,2031,1
3528.0,1903,2400,2031,1
3529.0,1906,2388,2029,1
3530.0,1908,2395,2032,1
3531.0,1911,2393,2032,1
3532.0,1909,2400,2031,1
3533.0,1909,2393,2030,1
3534.0,1907,2395,2032,1
3535.0,1910,2394,2029,1
3536.0,1914,2394,2033,1
3537.0,1906,2399,2033,1
3538.0,1910,2398,2038,1
3539.0,1919,2401,2038,1
3540.0,1909,2403,2038,1
3541.0,1915,2396,2041,1
3542.0,1920,2398,2039,1
3543.0,1919,2398,2042,1
3544.0,1919,2395,2047,1
3545.0,1915,2400,2041,1
3546.0,1918,2399,2039,1
3547.0,1917,2396,2039,1
3548.0,1918,2399,2041,1
3549.0,1919,2397,2034,1
3550.0,1919,2397,2035,1
3551.0,1924,2399,2038,1
3552.0,1919,2396,2039,1
3553.0,1921,2397,2036,1
3554.0,1920,2398,2038,1
3555.0,1912,2397,2037,1
3556.0,1917,2402,2034,1
3557.0,1918,2395,2035,1
3558.0,1923,2394,2042,1
3559.0,1917,2398,2038,1
3560.0,1917,2400,2038,1
3561.0,1921,2396,2043,1
3562.0,1915,2397,2039,1
3563.0,1918,2394,2039,1
3564.0,1919,2400,2033,1
3565.0,1927,2397,2037,1
3566.0,1928,2397,2041,1
3567.0,1925,2404,2036,1
3568.0,1921,2395,2034,1
3569.0,1913,2405,2042,1
3570.0,1893,2395,2046,1
3571.0,1897,2396,2045,1
3572.0,1910,2395,2049,1
3573.0,1914,2399,2048,1
3574.0,1913,2399,2049,1
3575.0,1918,2397,2052,1
3576.0,1915,2395,2050,1
3577.0,1914,2397,2053,1
3578.0,1915,2395,2045,1
3579.0,1908,2393,2045,1
3580.0,1912,2401,2050,1
3581.0,1910,2397,2043,1
3582.0,1909,2398,2051,1
3583.0,1909,2397,2050,1
3584.0,1910,2399,2052,1
3585.0,1915,2398,2048,1
3586.0,1920,2396,2052,1
3587.0,1909,2393,2054,1
3588.0,1915,2396,2053,1
3589.0,1911,2398,2047,1
3590.0,1911,2399,2049,1
3591.0,1908,2396,2048,1
3592.0,1921,2394,2053,1
3593.0,1915,2398,2044,1
3594.0,1910,2399,2048,1
3595.0,1913,2394,2049,1
3596.0,1918,2399,2042,1
3597.0,1906,2395,2046,1
3598.0,1912,2390,2046,1
3599.0,1915,2394,2047,1
3600.0,1912,2395,2041,1
3601.0,1911,2395,2046,1
3602.0,1918,2400,2045,1
3603.0,1916,2399,2043,1
3604.0,1911,2396,2041,1
3605.0,1916,2395,2047,1
3606.0,1914,2395,2042,1
3607.0,1909,2395,2044,1
3608.0,1914,2399,2044,1
3609.0,1916,2397,2045,1
3610.0,1911,2398,2045,1
3611.0,1913,2395,2045,1
3612.0,1913,2395,2046,1
3613.0,1914,2396,2046,1
3614.0,1913,2396,2041,1
3615.0,1909,2394,2043,1
3616.0,1914,2403,2040,1
3617.0,1907,2400,2043,1
3618.0,1908,2403,2046,1
3619.0,1913,2398,2046,1
3620.0,1912,2394,2044,1
3621.0,1911,2394,2041,1
3622.0,1905,2395,2046,1
3623.0,1913,2397,2044,1
3624.0,1911,2395,2046,1
3625.0,1914,2392,2048,1
3626.0,1914,2399,2041,1
3627.0,1912,2398,2046,1
3628.0,1911,2397,2045,1
3629.0,1911,2401,2047,1
3630.0,1913,2400,2045,1
3631.0,1909,2394,2046,1
3632.0,1912,2395,2047,1
3633.0,1910,2395,2046,1
3634.0,1908,2399,2041,1
3635.0,1911,2399,2043,1
3636.0,1910,2391,2048,1
3637.0,1909,2395,2045,1
3638.0,1913,2398,2043,1
3639.0,1906,2394,2043,1
3640.0,1920,2401,2045,1
3641.0,1913,2394,2049,1
3642.0,1907,2398,2048,1
3643.0,1918,2395,2048,1
3644.0,1907,2399,2046,1
3645.0,1913,2398,2048,1
3646.0,1907,2398,2048,1
3647.0,1912,2401,2047,1
3648.0,1909,2393,2043,1
3649.0,1910,2399,2048,1
3650.0,1911,2400,2045,1
3651.0,1913,2396,2042,1
3652.0,1908,2391,2044,1
3653.0,1908,2398,2047,1
3654.0,1911,2392,2044,1
3655.0,1913,2395,2047,1
3656.0,1912,2399,2050,1
3657.0,1911,2392,2045,1
3658.0,1909,2398,2045,1
3659.0,1911,2400,2049,1
3660.0,1911,2401,2052,1
3661.0,1913,2395,2049,1
3662.0,1914,2394,2041,1
3663.0,1916,2392,2050,1
3664.0,1916,2401,2048,1
3665.0,1913,2396,2049,1
3666.0,1913,2391,2048,1
3667.0,1912,2398,2048,1
3668.0,1911,2392,2047,1
3669.0,1916,2398,2044,1
3670.0,1909,2402,2047,1
3671.0,1916,2397,2051,1
3672.0,1912,2400,2046,1
3673.0,1909,2396,2049,1
3674.0,1909,2394,2048,1
3675.0,1914,2396,2046,1
3676.0,1908,2403,2049,1
3677.0,1906,2402,2050,1
3678.0,1916,2398,2048,1
3679.0,1914,2399,2046,1
3680.0,1910,2401,2050,1
3681.0,1914,2398,2043,1
3682.0,1912,2391,2045,1
3683.0,1912,2397,2042,1
3684.0,1905,2398,2051,1
3685.0,1912,2397,2043,1
3686.0,1911,2399,2048,1
3687.0,1911,2397,2048,1
3688.0,1916,2398,2046,1
3689.0,1912,2395,2044,1
3690.0,1915,2397,2048,1
3691.0,1912,2396,2045,1
3692.0,1908,2400,2043,1
3693.0,1909,2394,2043,1
3694.0,1911,2397,2046,1
3695.0,1912,2396,2045,1
3696.0,1910,2396,2045,1
3697.0,1916,2393,2048,1
3698.0,1916,2397,2045,1
3699.0,1918,2404,2046,1
3700.0,1914,2399,2044,1
3701.0,1915,2394,2047,1
3702.0,1913,2396,2050,1
3703.0,1911,2399,2048,1
3704.0,1914,2399,2043,1
3705.0,1913,2399,2048,1
3706.0,1910,2397,2044,1
3707.0,1914,2399,2051,1
3708.0,1914,2392,2046,1
3709.0,1917,2394,2045,1
3710.0,1911,2397,2049,1
3711.0,1914,2399,2045,1
3712.0,1919,2397,2049,1
3713.0,1913,2395,2048,1
3714.0,1915,2399,2047,1
3715.0,1915,2394,2049,1
3716.0,1914,2392,2047,1
3717.0,1915,2398,2044,1
3718.0,1915,2397,2050,1
3719.0,1910,2399,2049,1
3720.0,1917,2393,2045,1
3721.0,1908,2394,2045,1
3722.0,1914,2399,2042,1
3723.0,1910,2400,2048,1
3724.0,1911,2399,2046,1
3725.0,1913,2401,2043,1
3726.0,1910,2400,2048,1
3727.0,1910,2394,2043,1
3728.0,1908,2397,2044,1
3729.0,1909,2399,2045,1
3730.0,1912,2397,2051,1
3731.0,1911,2398,2047,1
3732.0,1914,2395,2050,1
3733.0,1914,2396,2046,1
3734.0,1904,2395,2051,1
3735.0,1911,2397,2048,1
3736.0,1911,2399,2047,1
3737.0,1911,2399,2049,1
3738.0,1915,2398,2050,1
3739.0,1910,2398,2043,1
3740.0,1909,2382,2040,1
3741.0,1909,2384,2040,1
3742.0,1911,2400,2043,1
3743.0,1912,2398,2047,1
3744.0,1912,2395,2046,1
3745.0,1909,2395,2043,1
3746.0,1910,2398,2043,1
3747.0,1913,2394,2045,1
3748.0,1905,2391,2043,1
3749.0,1913,2397,2047,1
3750.0,1913,2395,2047,1
3751.0,1913,2393,2045,1
3752.0,1911,2399,2042,1
3753.0,1910,2395,2046,1
3754.0,1909,2392,2046,1
3755.0,1911,2397,2043,1
3756.0,1912,2396,2048,1
3757.0,1918,2397,2047,1
3758.0,1912,2402,2039,1
3759.0,1917,2397,2040,1
3760.0,1914,2391,2039,1
3761.0,1913,2391,2037,1
3762.0,1908,2393,2039,1
3763.0,1907,2392,2042,1
3764.0,1909,2397,2034,1
3765.0,1905,2397,2040,1
3766.0,1911,2397,2040,1
3767.0,1911,2401,2038,1
3768.0,1907,2398,2040,1
3769.0,1913,2397,2045,1
3770.0,1907,2397,2044,1
3771.0,1906,2395,2043,1
3772.0,1909,2396,2042,1
3773.0,1916,2394,2047,1
3774.0,1911,2391,2044,1
3775.0,1910,2399,2044,1
3776.0,1910,2399,2044,1
3777.0,1907,2393,2042,1
3778.0,1909,2396,2040,1
3779.0,1910,2398,2041,1
3780.0,1912,2393,2040,1
3781.0,1906,2397,2044,1
3782.0,1910,2395,2037,1
3783.0,1914,2395,2039,1
3784.0,1909,2394,2043,1
3785.0,1909,2394,2037,1
3786.0,1912,2395,2037,1
3787.0,1911,2397,2043,1
3788.0,1914,2393,2040,1
3789.0,1909,2397,2044,1
3790.0,1913,2397,2042,1
3791.0,1918,2399,2046,1
3792.0,1906,2401,2045,1
3793.0,1910,2395,2043,1
3794.0,1909,2396,2040,1
3795.0,1909,2397,2042,1
3796.0,1910,2391,2041,1
3797.0,1913,2407,2045,1
3798.0,1910,2395,2043,1
3799.0,1912,2399,2042,1
3800.0,1912,2395,2045,1
3801.0,1911,2396,2046,1
3802.0,1913,2398,2045,1
3803.0,1911,2396,2043,1
3804.0,1912,2394,2042,1
3805.0,1905,2392,2042,1
3806.0,1911,2393,2053,1
3807.0,1910,2397,2042,1
3808.0,1913,2400,2046,1
3809.0,1911,2402,2047,1
3810.0,1906,2398,2048,1
3811.0,1912,2399,2047,1
3812.0,1916,2400,2043,1
3813.0,1911,2402,2043,1
3814.0,1911,2396,2047,1
3815.0,1914,2398,2051,1
3816.0,1914,2395,2045,1
3817.0,1910,2396,2040,1
3818.0,1911,2396,2043,1
3819.0,1904,2395,2049,1
3820.0,1906,2398,2043,1
3821.0,1908,2400,2044,1
3822.0,1912,2396,2050,1
3823.0,1911,2394,2047,1
3824.0,1914,2398,2042,1
3825.0,1901,2398,2042,1
3826.0,1907,2400,2046,1
3827.0,1914,2398,2045,1
3828.0,1915,2396,2042,1
3829.0,1912,2394,2039,1
3830.0,1909,2399,2043,1
3831.0,1912,2391,2047,1
3832.0,1910,2400,2047,1
3833.0,1919,2395,2044,1
3834.0,1921,2402,2051,1
3835.0,1913,2397,2042,1
3836.0,1918,2396,2043,1
3837.0,1915,2399,2047,1
3838.0,1913,2399,2043,1
3839.0,1913,2397,2044,1
3840.0,1907,2395,2039,1
3841.0,1911,2396,2046,1
3842.0,1913,2397,2045,1
3843.0,1923,2402,2046,1
3844.0,1911,2396,2043,1
3845.0,1912,2395,2048,1
3846.0,1913,2392,2048,1
3847.0,1911,2395,2042,1
3848.0,1912,2395,2043,1
3849.0,1917,2403,2040,1
3850.0,1915,2396,2045,1
3851.0,1911,2399,2048,1
3852.0,1911,2395,2045,1
3853.0,1913,2397,2042,1
3854.0,1917,2397,2039,1
3855.0,1917,2397,2047,1
3856.0,1912,2395,2040,1
3857.0,1912,2399,2040,1
3858.0,1915,2401,2041,1
3859.0,1915,2401,2031,1
3860.0,1913,2404,2034,1
3861.0,1909,2399,2029,1
3862.0,1908,2393,2022,1
3863.0,1913,2390,2026,1
3864.0,1899,2392,2023,1
3865.0,1905,2393,2028,1
3866.0,1905,2388,2030,1
3867.0,1910,2394,2030,1
3868.0,1903,2397,2025,1
3869.0,1912,2392,2031,1
3870.0,1908,2402,2029,1
3871.0,1910,2400,2032,1
3872.0,1911,2399,2029,1
3873.0,1912,2400,2031,1
3874.0,1916,2395,2030,1
3875.0,1911,2397,2034,1
3876.0,1914,2393,2028,1
3877.0,1907,2398,2034,1
3878.0,1913,2398,2033,1
3879.0,1903,2396,2030,1
3880.0,1909,2397,2036,1
3881.0,1908,2399,2029,1
3882.0,1911,2398,2025,1
3883.0,1910,2395,2026,1
3884.0,1911,2399,2027,1
3885.0,1905,2394,2035,1
3886.0,1910,2394,2029,1
3887.0,1914,2397,2031,1
3888.0,1911,2395,2033,1
3889.0,1912,2399,2034,1
3890.0,1908,2395,2031,1
3891.0,1910,2398,2027,1
3892.0,1913,2400,2029,1
3893.0,1907,2400,2029,1
3894.0,1903,2395,2031,1
3895.0,1904,2394,2031,1
3896.0,1906,2401,2030,1
3897.0,1906,2396,2038,1
3898.0,1901,2397,2031,1
3899.0,1905,2401,2034,1
3900.0,1912,2393,2032,1
3901.0,1904,2395,2033,1
3902.0,1906,2399,2027,1
3903.0,1908,2394,2029,1
3904.0,1907,2395,2023,1
3905.0,1908,2395,2024,1
3906.0,1911,2392,2024,1
3907.0,1904,2391,2020,1
3908.0,1909,2394,2023,1
3909.0,1910,2395,2021,1
3910.0,1917,2408,2027,1
3911.0,1917,2404,2027,1
3912.0,1915,2399,2029,1
3913.0,1911,2391,2024,1
3914.0,1910,2399,2026,1
3915.0,1914,2395,2026,1
3916.0,1914,2396,2027,1
3917.0,1913,2392,2025,1
3918.0,1909,2399,2026,1
3919.0,1912,2400,2028,1
3920.0,1911,2396,2034,1
3921.0,1907,2393,2034,1
3922.0,1917,2395,2031,1
3923.0,1914,2396,2030,1
3924.0,1915,2396,2032,1
3925.0,1911,2399,2035,1
3926.0,1909,2396,2036,1
3927.0,1911,2401,2038,1
3928.0,1908,2400,2034,1
3929.0,1916,2397,2032,1
3930.0,1909,2396,2030,1
3931.0,1911,2396,2040,1
3932.0,1904,2394,2033,1
3933.0,1905,2394,2032,1
3934.0,1906,2398,2037,1
3935.0,1911,2395,2039,1
3936.0,1913,2398,2043,1
3937.0,1912,2396,2037,1
3938.0,1914,2396,2037,1
3939.0,1907,2397,2038,1
3940.0,1912,2399,2036,1
3941.0,1909,2394,2030,1
3942.0,1908,2399,2039,1
3943.0,1905,2396,2038,1
3944.0,1912,2398,2037,1
3945.0,1908,2394,2035,1
3946.0,1904,2397,2032,1
3947.0,1909,2394,2036,1
3948.0,1907,2395,2033,1
3949.0,1904,2394,2039,1
3950.0,1907,2397,2037,1
3951.0,1909,2397,2035,1
3952.0,1908,2396,2031,1
3953.0,1912,2395,2029,1
3954.0,1911,2391,2030,1
3955.0,1905,2398,2034,1
3956.0,1907,2395,2029,1
3957.0,1911,2394,2031,1
3958.0,1903,2395,2032,1
3959.0,1911,2395,2032,1
3960.0,1906,2394,2030,1
3961.0,1907,2395,2032,1
3962.0,1910,2394,2029,1
3963.0,1914,2398,2033,1
3964.0,1907,2400,2039,1
3965.0,1911,2395,2034,1
3966.0,1910,2400,2036,1
3967.0,1906,2398,2031,1
3968.0,1912,2397,2036,1
3969.0,1912,2395,2034,1
3970.0,1908,2396,2034,1
3971.0,1919,2396,2038,1
3972.0,1911,2395,2033,1
3973.0,1906,2398,2036,1
3974.0,1915,2398,2035,1
3975.0,1912,2389,2033,1
3976.0,1910,2393,2035,1
3977.0,1909,2392,2034,1
3978.0,1909,2394,2036,1
3979.0,1914,2395,2041,1
3980.0,1916,2400,2037,1
3981.0,1913,2395,2043,1
3982.0,1911,2399,2035,1
3983.0,1914,2399,2040,1
3984.0,1913,2391,2044,1
3985.0,1909,2399,2042,1
3986.0,1912,2397,2034,1
3987.0,1911,2395,2038,1
3988.0,1912,2398,2033,1
3989.0,1913,2397,2035,1
3990.0,1911,2396,2034,1
3991.0,1908,2393,2031,1
3992.0,1911,2393,2036,1
3993.0,1905,2397,2031,1
3994.0,1908,2399,2033,1
3995.0,1913,2397,2038,1
3996.0,1911,2392,2036,1
3997.0,1905,2399,2036,1
3998.0,1914,2400,2035,1
3999.0,1910,2394,2037,1
4000.0,1911,2395,2037,1
4001.0,1907,2397,2040,1
4002.0,1907,2399,2038,1
4003.0,1911,2397,2036,1
4004.0,1911,2397,2033,1
4005.0,1907,2397,2032,1
4006.0,1908,2391,2037,1
4007.0,1902,2397,2037,1
4008.0,1909,2392,2035,1
4009.0,1906,2400,2038,1
4010.0,1907,2397,2035,1
4011.0,1908,2392,2033,1
4012.0,1907,2395,2033,1
4013.0,1904,2400,2037,1
4014.0,1908,2398,2037,1
4015.0,1910,2403,2034,1
4016.0,1906,2400,2037,1
4017.0,1909,2397,2037,1
4018.0,1908,2395,2039,1
4019.0,1910,2395,2039,1
4020.0,1905,2396,2036,1
4021.0,1909,2390,2036,1
4022.0,1911,2393,2038,1
4023.0,1906,2394,2035,1
4024.0,1910,2393,2039,1
4025.0,1904,2394,2032,1
4026.0,1914,2398,2036,1
4027.0,1902,2395,2038,1
4028.0,1907,2392,2035,1
4029.0,1913,2395,2039,1
4030.0,1905,2394,2037,1
4031.0,1912,2395,2033,1
4032.0,1907,2394,2038,1
4033.0,1912,2400,2037,1
4034.0,1908,2394,2036,1
4035.0,1911,2397,2035,1
4036.0,1910,2399,2033,1
4037.0,1909,2397,2039,1
4038.0,1913,2394,2039,1
4039.0,1912,2393,2041,1
4040.0,1906,2399,2035,1
4041.0,1910,2392,2039,1
4042.0,1909,2394,2039,1
4043.0,1913,2394,2038,1
4044.0,1911,2399,2037,1
4045.0,1912,2395,2037,1
4046.0,1907,2399,2036,1
4047.0,1912,2395,2037,1
4048.0,1905,2397,2040,1
4049.0,1908,2398,2037,1
4050.0,1911,2399,2039,1
4051.0,1911,2396,2038,1
4052.0,1905,2394,2035,1
4053.0,1911,2395,2038,1
4054.0,1911,2399,2033,1
4055.0,1905,2398,2040,1
4056.0,1909,2395,2037,1
4057.0,1908,2399,2036,1
4058.0,1912,2395,2036,1
4059.0,1913,2395,2038,1
4060.0,1910,2400,2040,1
4061.0,1908,2393,2040,1
4062.0,1907,2393,2040,1
4063.0,1902,2398,2037,1
4064.0,1910,2403,2037,1
4065.0,1908,2397,2035,1
4066.0,1902,2397,2043,1
4067.0,1915,2394,2039,1
4068.0,1907,2400,2037,1
4069.0,1911,2397,2037,1
4070.0,1912,2393,2038,1
4071.0,1908,2395,2038,1
4072.0,1907,2393,2036,1
4073.0,1915,2397,2042,1
4074.0,1913,2396,2045,1
4075.0,1911,2396,2039,1
4076.0,1910,2395,2038,1
4077.0,1909,2398,2038,1
4078.0,1910,2393,2038,1
4079.0,1913,2406,2041,1
4080.0,1900,2389,2032,1
4081.0,1904,2392,2035,1
4082.0,1908,2395,2038,1
4083.0,1913,2391,2041,1
4084.0,1916,2403,2042,1
4085.0,1914,2394,2039,1
4086.0,1909,2395,2034,1
4087.0,1913,2399,2038,1
4088.0,1910,2393,2037,1
4089.0,1910,2398,2045,1
4090.0,1915,2395,2036,1
4091.0,1907,2392,2036,1
4092.0,1912,2392,2043,1
4093.0,1909,2394,2037,1
4094.0,1903,2392,2037,1
4095.0,1908,2392,2041,1
4096.0,1917,2404,2041,1
4097.0,1910,2399,2038,1
4098.0,1911,2400,2042,1
4099.0,1914,2399,2046,1
4100.0,1912,2397,2039,1
4101.0,1916,2399,2043,1
4102.0,1916,2396,2043,1
4103.0,1906,2398,2044,1
4104.0,1915,2397,2041,1
4105.0,1908,2395,2044,1
4106.0,1912,2391,2039,1
4107.0,1909,2397,2038,1
4108.0,1905,2400,2037,1
4109.0,1910,2395,2038,1
4110.0,1912,2396,2031,1
4111.0,1907,2397,2040,1
4112.0,1909,2396,2034,1
4113.0,1918,2392,2035,1
4114.0,1914,2391,2039,1
4115.0,1913,2397,2041,1
4116.0,1902,2399,2043,1
4117.0,1903,2391,2040,1
4118.0,1911,2396,2038,1
4119.0,1911,2391,2040,1
4120.0,1911,2391,2040,1
4121.0,1909,2393,2039,1
4122.0,1902,2396,2036,1
4123.0,1910,2395,2040,1
4124.0,1912,2392,2039,1
4125.0,1907,2395,2039,1
4126.0,1917,2395,2036,1
4127.0,1912,2395,2042,1
4128.0,1915,2395,2041,1
4129.0,1907,2395,2041,1
4130.0,1912,2397,2036,1
4131.0,1911,2399,2036,1
4132.0,1910,2399,2036,1
4133.0,1910,2395,2038,1
4134.0,1910,2396,2034,1
4135.0,1905,2388,2034,1
4136.0,1913,2391,2036,1
4137.0,1917,2397,2035,1
4138.0,1909,2392,2037,1
4139.0,1915,2396,2034,1
4140.0,1909,2390,2033,1
4141.0,1907,2394,2038,1
4142.0,1903,2393,2037,1
4143.0,1909,2395,2033,1
4144.0,1913,2390,2036,1
4145.0,1911,2395,2040,1
4146.0,1910,2394,2038,1
4147.0,1909,2395,2038,1
4148.0,1910,2393,2041,1
4149.0,1909,2395,2036,1
4150.0,1905,2397,2037,1
4151.0,1906,2393,2038,1
4152.0,1909,2400,2033,1
4153.0,1913,2402,2038,1
4154.0,1909,2397,2040,1
4155.0,1906,2396,2034,1
4156.0,1908,2398,2036,1
4157.0,1904,2393,2040,1
4158.0,1907,2399,2036,1
4159.0,1909,2392,2034,1
4160.0,1903,2394,2035,1
4161.0,1904,2398,2033,1
4162.0,1905,2394,2039,1
4163.0,1906,2390,2038,1
4164.0,1912,2394,2039,1
4165.0,1906,2397,2040,1
4166.0,1912,2399,2035,1
4167.0,1912,2398,2035,1
4168.0,1904,2398,2042,1
4169.0,1913,2397,2042,1
4170.0,1908,2395,2039,1
4171.0,1907,2397,2039,1
4172.0,1907,2398,2036,1
4173.0,1903,2398,2032,1
4174.0,1910,2396,2035,1
4175.0,1908,2396,2036,1
4176.0,1907,2396,2040,1
4177.0,1905,2394,2038,1
4178.0,1909,2398,2035,1
4179.0,1911,2395,2036,1
4180.0,1910,2399,2037,1
4181.0,1905,2393,2037,1
4182.0,1905,2395,2037,1
4183.0,1908,2391,2042,1
4184.0,1912,2399,2037,1
4185.0,1914,2395,2036,1
4186.0,1909,2395,2038,1
4187.0,1910,2399,2042,1
4188.0,1911,2399,2036,1
4189.0,1910,2392,2039,1
4190.0,1905,2395,2040,1
4191.0,1908,2393,2038,1
4192.0,1911,2397,2043,1
4193.0,1906,2394,2044,1
4194.0,1904,2396,2045,1
4195.0,1904,2393,2039,1
4196.0,1907,2395,2044,1
4197.0,1909,2397,2037,1
4198.0,1909,2397,2033,1
4199.0,1903,2397,2036,1
4200.0,1906,2394,2036,1
4201.0,1908,2391,2038,1
4202.0,1906,2397,2035,1
4203.0,1908,2396,2033,1
4204.0,1908,2391,2034,1
4205.0,1908,2386,2032,1
4206.0,1914,2403,2025,1
4207.0,1914,2397,2024,1
4208.0,1915,2392,2024,1
4209.0,1906,2391,2027,1
4210.0,1911,2392,2022,1
4211.0,1905,2392,2028,1
4212.0,1904,2395,2030,1
4213.0,1910,2399,2030,1
4214.0,1907,2393,2029,1
4215.0,1912,2389,2024,1
4216.0,1914,2399,2031,1
4217.0,1914,2401,2031,1
4218.0,1910,2399,2033,1
4219.0,1913,2392,2027,1
4220.0,1916,2398,2031,1
4221.0,1911,2392,2030,1
4222.0,1909,2394,2030,1
4223.0,1916,2397,2025,1
4224.0,1906,2403,2031,1
4225.0,1902,2397,2031,1
4226.0,1908,2400,2027,1
4227.0,1919,2399,2025,1
4228.0,1910,2394,2028,1
4229.0,1907,2398,2026,1
4230.0,1908,2392,2024,1
4231.0,1905,2392,2022,1
4232.0,1910,2393,2024,1
4233.0,1901,2399,2023,1
4234.0,1913,2393,2021,1
4235.0,1912,2397,2018,1
4236.0,1909,2397,2023,1
4237.0,1906,2395,2027,1
4238.0,1911,2392,2029,1
4239.0,1913,2398,2023,1
4240.0,1913,2401,2021,1
4241.0,1904,2399,2026,1
4242.0,1907,2400,2023,1
4243.0,1913,2399,2025,1
4244.0,1911,2396,2021,1
4245.0,1907,2396,2028,1
4246.0,1914,2394,2023,1
4247.0,1910,2395,2023,1
4248.0,1911,2394,2029,1
4249.0,1910,2396,2021,1
4250.0,1912,2396,2022,1
4251.0,1910,2396,2022,1
4252.0,1911,2395,2024,1
4253.0,1907,2396,2030,1
4254.0,1907,2390,2029,1
4255.0,1907,2392,2031,1
4256.0,1910,2393,2031,1
4257.0,1909,2399,2032,1
4258.0,1908,2396,2035,1
4259.0,1907,2397,2031,1
4260.0,1908,2395,2031,1
4261.0,1906,2394,2029,1
4262.0,1909,2403,2040,1
4263.0,1910,2394,2032,1
4264.0,1907,2394,2032,1
4265.0,1910,2395,2037,1
4266.0,1908,2395,2036,1
4267.0,1910,2395,2035,1
4268.0,1910,2391,2038,1
4269.0,1907,2396,2037,1
4270.0,1907,2396,2035,1
4271.0,1904,2395,2034,1
4272.0,1903,2393,2034,1
4273.0,1898,2392,2039,1
4274.0,1907,2394,2038,1
4275.0,1909,2396,2035,1
4276.0,1903,2395,2041,1
4277.0,1904,2393,2038,1
4278.0,1903,2394,2040,1
4279.0,1914,2398,2038,1
4280.0,1906,2394,2039,1
4281.0,1907,2394,2038,1
4282.0,1903,2389,2039,1
4283.0,1911,2396,2039,1
4284.0,1903,2395,2038,1
4285.0,1910,2394,2036,1
4286.0,1907,2395,2030,1
4287.0,1898,2393,2038,1
4288.0,1907,2396,2038,1
4289.0,1909,2393,2028,1
4290.0,1903,2395,2033,1
4291.0,1903,2391,2037,1
4292.0,1906,2393,2037,1
4293.0,1908,2394,2038,1
4294.0,1907,2395,2038,1
4295.0,1909,2397,2036,1
4296.0,1907,2397,2032,1
4297.0,1908,2399,2037,1
4298.0,1905,2395,2039,1
4299.0,1909,2396,2035,1
4300.0,1911,2395,2037,1
4301.0,1906,2392,2040,1
4302.0,1913,2395,2040,1
4303.0,1914,2398,2040,1
4304.0,1908,2389,2037,1
4305.0,1910,2396,2036,1
4306.0,1911,2397,2041,1
4307.0,1904,2390,2033,1
4308.0,1903,2394,2039,1
4309.0,1903,2399,2037,1
4310.0,1908,2392,2040,1
4311.0,1904,2396,2036,1
4312.0,1907,2394,2035,1
4313.0,1909,2391,2040,1
4314.0,1903,2400,2039,1
4315.0,1908,2396,2033,1
4316.0,1902,2394,2036,1
4317.0,1901,2393,2039,1
4318.0,1904,2396,2038,1
4319.0,1906,2390,2038,1
4320.0,1910,2398,2045,1
4321.0,1902,2397,2041,1
4322.0,1903,2401,2035,1
4323.0,1909,2399,2036,1
4324.0,1913,2400,2032,1
4325.0,1910,2395,2038,1
4326.0,1911,2397,2031,1
4327.0,1906,2394,2036,1
4328.0,1908,2399,2037,1
4329.0,1905,2394,2040,1
4330.0,1911,2394,2040,1
4331.0,1909,2392,2044,1
4332.0,1911,2393,2039,1
4333.0,1908,2397,2042,1
4334.0,1911,2395,2038,1
4335.0,1906,2400,2036,1
4336.0,1905,2399,2033,1
4337.0,1907,2398,2034,1
4338.0,1907,2397,2036,1
4339.0,1907,2397,2032,1
4340.0,1905,2392,2036,1
4341.0,1910,2396,2030,1
4342.0,1905,2395,2035,1
4343.0,1907,2399,2035,1
4344.0,1913,2391,2030,1
4345.0,1908,2398,2037,1
4346.0,1907,2392,2030,1
4347.0,1911,2393,2032,1
4348.0,1911,2392,2033,1
4349.0,1915,2393,2035,1
4350.0,1911,2394,2042,1
4351.0,1905,2397,2034,1
4352.0,1913,2396,2038,1
4353.0,1911,2403,2044,1
4354.0,1916,2396,2042,1
4355.0,1910,2397,2038,1
4356.0,1912,2394,2040,1
4357.0,1914,2405,2040,1
4358.0,1918,2393,2035,1
4359.0,1914,2393,2034,1
4360.0,1913,2395,2037,1
4361.0,1913,2401,2036,1
4362.0,1912,2391,2040,1
4363.0,1915,2394,2033,1
4364.0,1912,2394,2040,1
4365.0,1905,2397,2038,1
4366.0,1908,2401,2034,1
4367.0,1911,2395,2042,1
4368.0,1908,2398,2037,1
4369.0,1907,2395,2041,1
4370.0,1913,2395,2040,1
4371.0,1905,2399,2042,1
4372.0,1909,2397,2039,1
4373.0,1907,2400,2039,1
4374.0,1908,2395,2038,1
4375.0,1908,2395,2046,1
4376.0,1906,2396,2043,1
4377.0,1906,2401,2043,1
4378.0,1906,2396,2046,1
4379.0,1907,2394,2044,1
4380.0,1908,2395,2042,1
4381.0,1908,2393,2040,1
4382.0,1903,2392,2043,1
4383.0,1907,2397,2037,1
4384.0,1909,2396,2037,1
4385.0,1906,2391,2038,1
4386.0,1907,2388,2040,1
4387.0,1903,2394,2038,1
4388.0,1908,2391,2041,1
4389.0,1906,2395,2041,1
4390.0,1905,2393,2036,1
4391.0,1909,2398,2040,1
4392.0,1906,2397,2042,1
4393.0,1907,2399,2036,1
4394.0,1906,2394,2037,1
4395.0,1912,2395,2041,1
4396.0,1911,2396,2039,1
4397.0,1905,2395,2039,1
4398.0,1904,2397,2039,1
4399.0,1903,2393,2039,1
4400.0,1911,2398,2037,1
4401.0,1911,2401,2039,1
4402.0,1909,2399,2035,1
4403.0,1907,2396,2037,1
4404.0,1913,2395,2034,1
4405.0,1902,2398,2034,1
4406.0,1909,2394,2036,1
4407.0,1908,2397,2035,1
4408.0,1903,2395,2038,1
4409.0,1905,2397,2035,1
4410.0,1912,2393,2035,1
4411.0,1912,2391,2031,1
4412.0,1914,2396,2033,1
4413.0,1906,2393,2033,1
4414.0,1907,2395,2033,1
4415.0,1910,2398,2032,1
4416.0,1909,2391,2031,1
4417.0,1906,2398,2030,1
4418.0,1911,2395,2039,1
4419.0,1908,2396,2034,1
4420.0,1911,2399,2028,1
4421.0,1908,2400,2031,1
4422.0,1909,2397,2036,1
4423.0,1910,2395,2028,1
4424.0,1913,2390,2023,1
4425.0,1907,2392,2024,1
4426.0,1910,2395,2022,1
4427.0,1911,2391,2023,1
4428.0,1908,2387,2027,1
4429.0,1914,2390,2023,1
4430.0,1905,2396,2024,1
4431.0,1903,2396,2026,1
4432.0,1909,2402,2024,1
4433.0,1910,2399,2025,1
4434.0,1908,2402,2022,1
4435.0,1906,2395,2026,1
4436.0,1910,2396,2027,1
4437.0,1902,2390,2022,1
4438.0,1905,2395,2025,1
4439.0,1910,2395,2026,1
4440.0,1907,2395,2029,1
4441.0,1913,2394,2027,1
4442.0,1911,2397,2031,1
4443.0,1906,2396,2029,1
4444.0,1905,2393,2027,1
4445.0,1904,2391,2029,1
4446.0,1906,2401,2026,1
4447.0,1913,2397,2027,1
4448.0,1910,2399,2033,1
4449.0,1909,2395,2031,1
4450.0,1914,2398,2029,1
4451.0,1908,2395,2042,1
4452.0,1912,2393,2030,1
4453.0,1907,2393,2036,1
4454.0,1910,2395,2037,1
4455.0,1911,2390,2039,1
4456.0,1905,2392,2032,1
4457.0,1906,2397,2037,1
4458.0,1907,2396,2033,1
4459.0,1905,2396,2042,1
4460.0,1907,2396,2042,1
4461.0,1906,2397,2037,1
4462.0,1907,2396,2038,1
4463.0,1913,2396,2038,1
4464.0,1909,2396,2039,1
4465.0,1907,2394,2038,1
4466.0,1906,2397,2038,1
4467.0,1907,2391,2035,1
4468.0,1906,2399,2034,1
4469.0,1905,2393,2037,1
4470.0,1899,2393,2034,1
4471.0,1904,2398,2034,1
4472.0,1903,2394,2037,1
4473.0,1903,2393,2036,1
4474.0,1909,2394,2036,1
4475.0,1908,2392,2039,1
4476.0,1912,2391,2039,1
4477.0,1907,2394,2033,1
4478.0,1914,2394,2037,1
4479.0,1899,2391,2038,1
4480.0,1905,2389,2044,1
4481.0,1910,2395,2038,1
4482.0,1907,2389,2040,1
4483.0,1905,2399,2045,1
4484.0,1907,2396,2043,1
4485.0,1904,2396,2039,1
4486.0,1910,2394,2042,1
4487.0,1912,2399,2040,1
4488.0,1908,2396,2040,1
4489.0,1908,2398,2039,1
4490.0,1904,2397,2048,1
4491.0,1914,2397,2042,1
4492.0,1909,2391,2039,1
4493.0,1907,2395,2041,1
4494.0,1905,2395,2039,1
4495.0,1904,2394,2041,1
4496.0,1909,2397,2042,1
4497.0,1905,2397,2041,1
4498.0,1907,2394,2036,1
4499.0,1906,2390,2043,1
4500.0,1904,2395,2043,1
4501.0,1905,2398,2039,1
4502.0,1909,2395,2046,1
4503.0,1901,2395,2039,1
4504.0,1904,2396,2039,1
4505.0,1907,2397,2046,1
4506.0,1912,2395,2040,1
4507.0,1905,2397,2043,1
4508.0,1907,2393,2040,1
4509.0,1909,2395,2042,1
4510.0,1907,2394,2043,1
4511.0,1906,2395,2042,1
4512.0,1908,2396,2040,1
4513.0,1901,2401,2040,1
4514.0,1907,2396,2043,1
4515.0,1907,2389,2041,1
4516.0,1904,2392,2049,1
4517.0,1898,2393,2041,1
4518.0,1904,2395,2042,1
4519.0,1906,2395,2044,1
4520.0,1906,2396,2044,1
4521.0,1906,2395,2041,1
4522.0,1904,2393,2041,1
4523.0,1902,2393,2045,1
4524.0,1908,2397,2045,1
4525.0,1895,2393,2037,1
4526.0,1904,2394,2042,1
4527.0,1908,2398,2040,1
4528.0,1906,2394,2036,1
4529.0,1905,2395,2044,1
4530.0,1900,2395,2043,1
4531.0,1903,2391,2039,1
4532.0,1906,2392,2041,1
4533.0,1898,2394,2044,1
4534.0,1901,2394,2050,1
4535.0,1906,2392,2038,1
4536.0,1904,2395,2046,1
4537.0,1907,2403,2047,1
4538.0,1911,2396,2043,1
4539.0,1908,2399,2044,1
4540.0,1905,2392,2041,1
4541.0,1909,2393,2039,1
4542.0,1907,2400,2043,1
4543.0,1905,2392,2045,1
4544.0,1908,2398,2040,1
4545.0,1902,2394,2037,1
4546.0,1907,2394,2043,1
4547.0,1901,2395,2041,1
4548.0,1910,2396,2043,1
4549.0,1910,2396,2046,1
4550.0,1907,2397,2041,1
4551.0,1903,2399,2039,1
4552.0,1905,2392,2045,1
4553.0,1903,2393,2045,1
4554.0,1910,2398,2045,1
4555.0,1904,2395,2046,1
4556.0,1907,2394,2043,1
4557.0,1905,2393,2045,1
4558.0,1911,2395,2046,1
4559.0,1897,2392,2047,1
4560.0,1907,2395,2044,1
4561.0,1909,2394,2043,1
4562.0,1907,2395,2039,1
4563.0,1909,2395,2042,1
4564.0,1908,2392,2042,1
4565.0,1901,2392,2042,1
4566.0,1910,2396,2041,1
4567.0,1908,2394,2046,1
4568.0,1909,2397,2039,1
4569.0,1901,2395,2042,1
4570.0,1910,2399,2035,1
4571.0,1908,2393,2042,1
4572.0,1905,2389,2042,1
4573.0,1904,2397,2045,1
4574.0,1904,2394,2045,1
4575.0,1913,2392,2045,1
4576.0,1908,2396,2046,1
4577.0,1909,2396,2039,1
4578.0,1903,2397,2043,1
4579.0,1904,2392,2043,1
4580.0,1911,2392,2045,1
4581.0,1905,2394,2038,1
4582.0,1907,2394,2043,1
4583.0,1907,2393,2042,1
4584.0,1905,2392,2042,1
4585.0,1907,2396,2039,1
4586.0,1909,2396,2044,1
4587.0,1909,2392,2047,1
4588.0,1901,2397,2043,1
4589.0,1908,2399,2043,1
4590.0,1897,2394,2035,1
4591.0,1897,2394,2036,1
4592.0,1907,2395,2041,1
4593.0,1904,2395,2044,1
4594.0,1908,2392,2042,1
4595.0,1911,2398,2041,1
4596.0,1905,2392,2043,1
4597.0,1905,2397,2041,1
4598.0,1906,2392,2045,1
4599.0,1906,2396,2048,1
4600.0,1910,2392,2046,1
4601.0,1915,2393,2045,1
4602.0,1911,2398,2039,1
4603.0,1905,2391,2041,1
4604.0,1906,2393,2043,1
4605.0,1911,2395,2044,1
4606.0,1915,2393,2040,1
4607.0,1906,2396,2040,1
4608.0,1906,2399,2044,1
4609.0,1901,2396,2046,1
4610.0,1906,2390,2046,1
4611.0,1912,2397,2047,1
4612.0,1904,2397,2043,1
4613.0,1908,2393,2046,1
4614.0,1911,2396,2043,1
4615.0,1909,2397,2043,1
4616.0,1908,2401,2043,1
4617.0,1907,2396,2046,1
4618.0,1910,2393,2048,1
4619.0,1905,2395,2042,1
4620.0,1914,2395,2042,1
4621.0,1909,2389,2045,1
4622.0,1915,2392,2047,1
4623.0,1907,2400,2042,1
4624.0,1902,2394,2046,1
4625.0,1905,2397,2045,1
4626.0,1905,2399,2041,1
4627.0,1910,2401,2041,1
4628.0,1909,2397,2041,1
4629.0,1909,2397,2043,1
4630.0,1909,2398,2043,1
4631.0,1908,2395,2038,1
4632.0,1912,2400,2043,1
4633.0,1910,2399,2043,1
4634.0,1910,2393,2044,1
4635.0,1908,2393,2045,1
4636.0,1909,2400,2045,1
4637.0,1908,2393,2041,1
4638.0,1916,2399,2043,1
4639.0,1904,2395,2042,1
4640.0,1904,2393,2036,1
4641.0,1907,2397,2042,1
4642.0,1906,2392,2043,1
4643.0,1903,2398,2047,1
4644.0,1906,2392,2042,1
4645.0,1905,2392,2036,1
4646.0,1905,2395,2041,1
4647.0,1908,2396,2037,1
4648.0,1911,2394,2038,1
4649.0,1908,2395,2043,1
4650.0,1911,2397,2035,1
4651.0,1906,2393,2039,1
4652.0,1907,2395,2034,1
4653.0,1912,2394,2035,1
4654.0,1908,2397,2038,1
4655.0,1913,2397,2042,1
4656.0,1905,2392,2039,1
4657.0,1904,2393,2040,1
4658.0,1901,2399,2038,1
4659.0,1911,2398,2039,1
4660.0,1909,2397,2038,1
4661.0,1905,2392,2039,1
4662.0,1911,2395,2039,1
4663.0,1913,2402,2046,1
4664.0,1906,2396,2038,1
4665.0,1909,2397,2040,1
4666.0,1912,2391,2035,1
4667.0,1911,2395,2039,1
4668.0,1909,2394,2039,1
4669.0,1900,2393,2037,1
4670.0,1909,2391,2040,1
4671.0,1907,2397,2040,1
4672.0,1909,2399,2039,1
4673.0,1913,2397,2039,1
4674.0,1906,2392,2038,1
4675.0,1910,2397,2035,1
4676.0,1902,2399,2037,1
4677.0,1906,2393,2038,1
4678.0,1905,2393,2037,1
4679.0,1910,2394,2032,1
4680.0,1904,2393,2037,1
4681.0,1907,2392,2031,1
4682.0,1903,2394,2035,1
4683.0,1901,2393,2028,1
4684.0,1909,2391,2028,1
4685.0,1905,2397,2030,1
4686.0,1905,2400,2033,1
4687.0,1903,2393,2034,1
4688.0,1907,2394,2037,1
4689.0,1904,2393,2035,1
4690.0,1909,2391,2028,1
4691.0,1908,2396,2038,1
4692.0,1910,2397,2037,1
4693.0,1910,2396,2038,1
4694.0,1907,2394,2037,1
4695.0,1904,2397,2034,1
4696.0,1905,2398,2034,1
4697.0,1903,2391,2039,1
4698.0,1912,2398,2036,1
4699.0,1903,2394,2035,1
4700.0,1907,2392,2038,1
4701.0,1911,2394,2033,1
4702.0,1912,2395,2039,1
4703.0,1907,2391,2031,1
4704.0,1908,2391,2036,1
4705.0,1910,2393,2034,1
4706.0,1907,2397,2033,1
4707.0,1905,2395,2034,1
4708.0,1910,2396,2033,1
4709.0,1904,2400,2035,1
4710.0,1908,2395,2036,1
4711.0,1912,2394,2031,1
4712.0,1913,2395,2037,1
4713.0,1910,2400,2038,1
4714.0,1899,2396,2035,1
4715.0,1904,2395,2039,1
4716.0,1906,2396,2036,1
4717.0,1904,2397,2037,1
4718.0,1905,2394,2037,1
4719.0,1906,2396,2033,1
4720.0,1906,2392,2033,1
4721.0,1913,2397,2028,1
4722.0,1917,2395,2027,1
4723.0,1911,2388,2032,1
4724.0,1915,2394,2025,1
4725.0,1912,2401,2033,1
4726.0,1909,2398,2029,1
4727.0,1912,2397,2027,1
4728.0,1908,2400,2036,1
4729.0,1910,2400,2026,1
4730.0,1914,2395,2031,1
4731.0,1912,2398,2032,1
4732.0,1907,2397,2037,1
4733.0,1912,2395,2031,1
4734.0,1912,2392,2038,1
4735.0,1909,2391,2032,1
4736.0,1910,2397,2037,1
4737.0,1908,2400,2038,1
4738.0,1906,2397,2035,1
4739.0,1911,2394,2040,1
4740.0,1905,2397,2037,1
4741.0,1911,2399,2038,1
4742.0,1908,2402,2039,1
4743.0,1907,2402,2039,1
4744.0,1911,2394,2035,1
4745.0,1907,2392,2040,1
4746.0,1911,2391,2041,1
4747.0,1906,2398,2038,1
4748.0,1901,2397,2042,1
4749.0,1907,2397,2037,1
4750.0,1903,2399,2033,1
4751.0,1910,2392,2033,1
4752.0,1909,2396,2038,1
4753.0,1904,2398,2035,1
4754.0,1907,2397,2038,1
4755.0,1908,2396,2036,1
4756.0,1907,2394,2033,1
4757.0,1910,2396,2041,1
4758.0,1903,2398,2031,1
4759.0,1912,2396,2037,1
4760.0,1910,2397,2026,1
4761.0,1909,2395,2027,1
4762.0,1910,2394,2034,1
4763.0,1912,2398,2039,1
4764.0,1914,2399,2034,1
4765.0,1911,2403,2041,1
4766.0,1914,2400,2036,1
4767.0,1907,2399,2043,1
4768.0,1909,2398,2039,1
4769.0,1911,2394,2039,1
4770.0,1906,2392,2033,1
4771.0,1917,2400,2035,1
4772.0,1903,2395,2034,1
4773.0,1912,2393,2031,1
4774.0,1912,2396,2032,1
4775.0,1910,2395,2032,1
4776.0,1914,2396,2031,1
4777.0,1915,2395,2029,1
4778.0,1914,2397,2035,1
4779.0,1914,2398,2034,1
4780.0,1905,2400,2036,1
4781.0,1911,2400,2037,1
4782.0,1910,2396,2041,1
4783.0,1912,2393,2033,1
4784.0,1910,2393,2036,1
4785.0,1907,2398,2031,1
4786.0,1910,2391,2039,1
4787.0,1910,2395,2039,1
4788.0,1911,2395,2035,1
4789.0,1911,2396,2040,1
4790.0,1906,2395,2037,1
4791.0,1907,2398,2040,1
4792.0,1912,2398,2045,1
4793.0,1903,2395,2044,1
4794.0,1912,2394,2041,1
4795.0,1907,2395,2044,1
4796.0,1908,2399,2043,1
4797.0,1911,2398,2044,1
4798.0,1909,2397,2045,1
4799.0,1908,2397,2043,1
4800.0,1908,2399,2042,1
4801.0,1906,2398,2042,1
4802.0,1907,2403,2046,1
4803.0,1909,2396,2045,1
4804.0,1909,2395,2041,1
4805.0,1906,2390,2046,1
4806.0,1911,2393,2046,1
4807.0,1913,2393,2043,1
4808.0,1902,2395,2045,1
4809.0,1905,2393,2043,1
4810.0,1903,2399,2045,1
4811.0,1908,2395,2043,1
4812.0,1902,2399,2040,1
4813.0,1901,2392,2047,1
4814.0,1910,2396,2043,1
4815.0,1908,2392,2043,1
4816.0,1907,2390,2044,1
4817.0,1905,2392,2044,1
4818.0,1911,2397,2045,1
4819.0,1908,2391,2040,1
4820.0,1910,2397,2043,1
4821.0,1901,2397,2040,1
4822.0,1914,2395,2040,1
4823.0,1909,2390,2041,1
4824.0,1908,2398,2042,1
4825.0,1906,2390,2049,1
4826.0,1915,2399,2042,1
4827.0,1909,2391,2042,1
4828.0,1913,2400,2049,1
4829.0,1912,2399,2048,1
4830.0,1911,2394,2044,1
4831.0,1907,2395,2044,1
4832.0,1911,2397,2043,1
4833.0,1912,2395,2041,1
4834.0,1904,2398,2045,1
4835.0,1911,2394,2047,1
4836.0,1904,2395,2046,1
4837.0,1907,2395,2043,1
4838.0,1903,2399,2043,1
4839.0,1906,2391,2042,1
4840.0,1908,2395,2042,1
4841.0,1914,2390,2040,1
4842.0,1908,2395,2050,1
4843.0,1908,2395,2045,1
4844.0,1906,2397,2043,1
4845.0,1907,2391,2049,1
4846.0,1908,2399,2043,1
4847.0,1908,2391,2044,1
4848.0,1901,2396,2049,1
4849.0,1900,2394,2041,1
4850.0,1908,2394,2041,1
4851.0,1907,2389,2045,1
4852.0,1905,2396,2042,1
4853.0,1905,2395,2049,1
4854.0,1908,2391,2044,1
4855.0,1911,2397,2044,1
4856.0,1909,2397,2042,1
4857.0,1905,2396,2046,1
4858.0,1910,2398,2042,1
4859.0,1909,2394,2044,1
4860.0,1904,2398,2049,1
4861.0,1907,2388,2046,1
4862.0,1911,2396,2048,1
4863.0,1911,2395,2045,1
4864.0,1906,2395,2044,1
4865.0,1905,2402,2045,1
4866.0,1906,2395,2044,1
4867.0,1912,2395,2039,1
4868.0,1903,2398,2044,1
4869.0,1908,2397,2046,1
4870.0,1911,2391,2045,1
4871.0,1908,2398,2038,1
4872.0,1907,2397,2044,1
4873.0,1909,2398,2044,1
4874.0,1903,2391,2039,1
4875.0,1913,2398,2039,1
4876.0,1911,2395,2049,1
4877.0,1907,2390,2046,1
4878.0,1908,2401,2041,1
4879.0,1910,2397,2048,1
4880.0,1912,2395,2046,1
4881.0,1906,2401,2045,1
4882.0,1908,2393,2044,1
4883.0,1908,2397,2042,1
4884.0,1906,2399,2041,1
4885.0,1908,2395,2044,1
4886.0,1905,2396,2051,1
4887.0,1901,2398,2048,1
4888.0,1902,2396,2047,1
4889.0,1905,2395,2041,1
4890.0,1909,2396,2045,1
4891.0,1908,2391,2042,1
4892.0,1904,2401,2042,1
4893.0,1911,2395,2041,1
4894.0,1906,2394,2042,1
4895.0,1907,2393,2038,1
4896.0,1911,2396,2048,1
4897.0,1910,2397,2041,1
4898.0,1909,2396,2044,1
4899.0,1909,2394,2042,1
4900.0,1907,2395,2046,1
4901.0,1903,2392,2043,1
4902.0,1908,2396,2047,1
4903.0,1905,2395,2042,1
4904.0,1903,2398,2043,1
4905.0,1908,2396,2040,1
4906.0,1904,2397,2040,1
4907.0,1907,2397,2042,1
4908.0,1902,2396,2048,1
4909.0,1907,2391,2050,1
4910.0,1908,2393,2043,1
4911.0,1908,2396,2045,1
4912.0,1900,2395,2044,1
4913.0,1907,2393,2045,1
4914.0,1911,2395,2040,1
4915.0,1907,2393,2045,1
4916.0,1901,2393,2046,1
4917.0,1912,2389,2041,1
4918.0,1903,2394,2040,1
4919.0,1911,2398,2041,1
4920.0,1903,2396,2045,1
4921.0,1908,2392,2044,1
4922.0,1904,2395,2046,1
4923.0,1905,2396,2047,1
4924.0,1909,2394,2042,1
4925.0,1907,2394,2042,1
4926.0,1908,2397,2047,1
4927.0,1909,2399,2043,1
4928.0,1912,2394,2051,1
4929.0,1906,2395,2040,1
4930.0,1912,2390,2046,1
4931.0,1911,2391,2045,1
4932.0,1907,2396,2047,1
4933.0,1909,2393,2050,1
4934.0,1909,2396,2044,1
4935.0,1907,2397,2048,1
4936.0,1907,2390,2044,1
4937.0,1907,2396,2045,1
4938.0,1909,2394,2047,1
4939.0,1907,2396,2042,1
4940.0,1908,2393,2046,1
4941.0,1911,2391,2042,1
4942.0,1913,2403,2046,1
4943.0,1908,2398,2041,1
4944.0,1909,2393,2039,1
4945.0,1906,2391,2047,1
4946.0,1906,2396,2044,1
4947.0,1911,2396,2048,1
4948.0,1904,2395,2043,1
4949.0,1903,2396,2047,1
4950.0,1905,2391,2039,1
4951.0,1902,2394,2041,1
4952.0,1909,2400,2038,1
4953.0,1911,2398,2038,1
4954.0,1905,2397,2035,1
4955.0,1904,2392,2035,1
4956.0,1908,2397,2035,1
4957.0,1908,2395,2031,1
4958.0,1911,2394,2030,1
4959.0,1911,2393,2030,1
4960.0,1909,2392,2026,1
4961.0,1911,2392,2030,1
4962.0,1906,2393,2032,1
4963.0,1897,2394,2031,1
4964.0,1908,2391,2029,1
4965.0,1907,2395,2027,1
4966.0,1900,2397,2034,1
4967.0,1905,2395,2034,1
4968.0,1915,2395,2033,1
4969.0,1913,2393,2034,1
4970.0,1906,2397,2031,1
4971.0,1907,2390,2034,1
4972.0,1902,2391,2033,1
4973.0,1914,2392,2032,1
4974.0,1907,2394,2027,1
4975.0,1900,2399,2030,1
4976.0,1909,2394,2031,1
4977.0,1899,2395,2027,1
4978.0,1904,2399,2030,1
4979.0,1907,2395,2031,1
4980.0,1906,2399,2031,1
4981.0,1908,2398,2032,1
4982.0,1913,2395,2027,1
4983.0,1909,2396,2024,1
4984.0,1908,2394,2020,1
4985.0,1908,2394,2021,1
4986.0,1907,2388,2021,1
4987.0,1908,2395,2026,1
4988.0,1907,2392,2029,1
4989.0,1909,2403,2030,1
4990.0,1906,2396,2027,1
4991.0,1905,2397,2025,1
4992.0,1906,2400,2031,1
4993.0,1911,2398,2033,1
4994.0,1905,2402,2033,1
4995.0,1909,2398,2034,1
4996.0,1907,2397,2034,1
4997.0,1910,2394,2030,1
4998.0,1904,2398,2039,1
4999.0,1912,2393,2038,1
5000.0,1912,2393,2034,1
5001.0,1908,2392,2035,1
5002.0,1906,2393,2037,1
5003.0,1905,2393,2034,1
5004.0,1908,2395,2031,1
5005.0,1905,2398,2035,1
5006.0,1908,2397,2033,1
5007.0,1906,2394,2037,1
5008.0,1904,2396,2032,1
5009.0,1902,2396,2036,1
5010.0,1908,2398,2040,1
5011.0,1906,2393,2031,1
5012.0,1909,2397,2033,1
5013.0,1909,2393,2032,1
5014.0,1908,2396,2037,1
5015.0,1901,2388,2034,1
5016.0,1899,2401,2027,1
5017.0,1904,2395,2037,1
5018.0,1904,2399,2034,1
5019.0,1899,2396,2034,1
5020.0,1910,2391,2034,1
5021.0,1899,2395,2028,1
5022.0,1902,2391,2028,1
5023.0,1912,2391,2019,1
5024.0,1909,2395,2024,1
5025.0,1908,2389,2023,1
5026.0,1904,2389,2019,1
5027.0,1916,2388,2023,1
5028.0,1912,2394,2021,1
5029.0,1905,2396,2023,1
5030.0,1905,2399,2025,1
5031.0,1908,2399,2033,1
5032.0,1909,2398,2030,1
5033.0,1909,2395,2031,1
5034.0,1905,2394,2025,1
5035.0,1909,2393,2028,1
5036.0,1904,2393,2030,1
5037.0,1911,2395,2023,1
5038.0,1908,2399,2027,1
5039.0,1909,2392,2020,1
5040.0,1905,2395,2023,1
5041.0,1911,2396,2024,1
5042.0,1909,2394,2027,1
5043.0,1902,2399,2021,1
5044.0,1913,2399,2026,1
5045.0,1907,2399,2027,1
