timestamp,accX,accY,accZ,class
56280.0,2169,2482,1893,3
56281.0,2173,2479,1892,3
56282.0,2175,2482,1891,3
56283.0,2167,2486,1894,3
56284.0,2173,2484,1894,3
56285.0,2172,2481,1891,3
56286.0,2174,2482,1890,3
56287.0,2175,2483,1897,3
56288.0,2178,2487,1894,3
56289.0,2178,2481,1890,3
56290.0,2169,2486,1891,3
56291.0,2172,2483,1895,3
56292.0,2174,2480,1893,3
56293.0,2178,2482,1891,3
56294.0,2177,2483,1891,3
56295.0,2176,2479,1892,3
56296.0,2171,2479,1885,3
56297.0,2175,2485,1884,3
56298.0,2177,2488,1896,3
56299.0,2178,2474,1893,3
56300.0,2176,2482,1894,3
56301.0,2171,2477,1890,3
56302.0,2171,2483,1896,3
56303.0,2179,2482,1892,3
56304.0,2177,2485,1892,3
56305.0,2171,2477,1894,3
56306.0,2173,2481,1896,3
56307.0,2181,2484,1893,3
56308.0,2173,2484,1897,3
56309.0,2175,2481,1898,3
56310.0,2171,2482,1892,3
56311.0,2177,2483,1890,3
56312.0,2174,2487,1893,3
56313.0,2175,2483,1890,3
56314.0,2172,2481,1893,3
56315.0,2170,2481,1898,3
56316.0,2177,2487,1892,3
56317.0,2175,2481,1892,3
56318.0,2175,2488,1897,3
56319.0,2172,2481,1891,3
56320.0,2175,2483,1894,3
56321.0,2174,2477,1894,3
56322.0,2174,2483,1899,3
56323.0,2174,2483,1889,3
56324.0,2174,2483,1893,3
56325.0,2174,2484,1894,3
56326.0,2176,2486,1894,3
56327.0,2176,2485,1893,3
56328.0,2174,2483,1890,3
56329.0,2177,2479,1891,3
56330.0,2173,2485,1888,3
56331.0,2171,2483,1896,3
56332.0,2177,2486,1899,3
56333.0,2175,2483,1893,3
56334.0,2177,2478,1896,3
56335.0,2176,2484,1896,3
56336.0,2171,2479,1891,3
56337.0,2177,2484,1894,3
56338.0,2174,2484,1892,3
56339.0,2176,2483,1893,3
56340.0,2176,2479,1898,3
56341.0,2176,2484,1896,3
56342.0,2177,2483,1889,3
56343.0,2173,2482,1895,3
56344.0,2182,2487,1889,3
56345.0,2177,2484,1891,3
56346.0,2172,2485,1893,3
56347.0,2173,2479,1895,3
56348.0,2175,2486,1890,3
56349.0,2172,2486,1895,3
56350.0,2171,2487,1894,3
56351.0,2176,2475,1895,3
56352.0,2174,2484,1891,3
56353.0,2177,2483,1891,3
56354.0,2174,2490,1891,3
56355.0,2173,2486,1891,3
56356.0,2178,2489,1892,3
56357.0,2173,2482,1895,3
56358.0,2172,2480,1896,3
56359.0,2176,2485,1889,3
56360.0,2175,2481,1894,3
56361.0,2173,2484,1893,3
56362.0,2174,2482,1893,3
56363.0,2170,2487,1897,3
56364.0,2176,2485,1895,3
56365.0,2168,2485,1895,3
56366.0,2171,2481,1891,3
56367.0,2173,2477,1893,3
56368.0,2177,2483,1895,3
56369.0,2182,2486,1894,3
56370.0,2171,2482,1891,3
56371.0,2171,2486,1891,3
56372.0,2172,2482,1894,3
56373.0,2173,2483,1893,3
56374.0,2181,2482,1893,3
56375.0,2173,2484,1894,3
56376.0,2176,2482,1891,3
56377.0,2173,2481,1894,3
56378.0,2175,2489,1893,3
56379.0,2182,2480,1889,3
56380.0,2174,2485,1889,3
56381.0,2180,2481,1888,3
56382.0,2176,2479,1890,3
56383.0,2173,2483,1893,3
56384.0,2179,2479,1890,3
56385.0,2179,2487,1893,3
56386.0,2176,2484,1894,3
56387.0,2170,2481,1898,3
56388.0,2167,2486,1892,3
56389.0,2173,2483,1890,3
56390.0,2167,2481,1893,3
56391.0,2176,2481,1894,3
56392.0,2171,2481,1893,3
56393.0,2177,2482,1893,3
56394.0,2172,2480,1895,3
56395.0,2176,2483,1889,3
56396.0,2177,2482,1892,3
56397.0,2176,2487,1894,3
56398.0,2174,2483,1892,3
56399.0,2172,2479,1895,3
56400.0,2175,2486,1892,3
56401.0,2172,2480,1897,3
56402.0,2173,2484,1898,3
56403.0,2173,2483,1893,3
56404.0,2175,2480,1893,3
56405.0,2176,2485,1895,3
56406.0,2177,2481,1895,3
56407.0,2174,2475,1892,3
56408.0,2169,2480,1891,3
56409.0,2173,2484,1893,3
56410.0,2172,2483,1890,3
56411.0,2172,2483,1893,3
56412.0,2175,2483,1892,3
56413.0,2173,2483,1894,3
56414.0,2179,2484,1893,3
56415.0,2173,2486,1896,3
56416.0,2177,2481,1892,3
56417.0,2175,2479,1893,3
56418.0,2173,2483,1893,3
56419.0,2172,2481,1893,3
56420.0,2175,2485,1897,3
56421.0,2173,2485,1896,3
56422.0,2177,2479,1895,3
56423.0,2172,2491,1893,3
56424.0,2177,2487,1894,3
56425.0,2173,2483,1893,3
56426.0,2170,2480,1891,3
56427.0,2178,2487,1892,3
56428.0,2174,2482,1891,3
56429.0,2179,2481,1891,3
56430.0,2171,2485,1890,3
56431.0,2172,2483,1893,3
56432.0,2178,2491,1894,3
56433.0,2170,2481,1890,3
56434.0,2167,2481,1891,3
56435.0,2171,2483,1896,3
56436.0,2173,2483,1894,3
56437.0,2174,2481,1892,3
56438.0,2178,2484,1892,3
56439.0,2175,2480,1893,3
56440.0,2171,2482,1895,3
56441.0,2171,2483,1898,3
56442.0,2177,2481,1895,3
56443.0,2172,2481,1895,3
56444.0,2170,2484,1897,3
56445.0,2176,2482,1890,3
56446.0,2173,2484,1893,3
56447.0,2172,2479,1891,3
56448.0,2174,2481,1890,3
56449.0,2179,2483,1894,3
56450.0,2175,2481,1889,3
56451.0,2176,2486,1897,3
56452.0,2175,2482,1889,3
56453.0,2176,2479,1892,3
56454.0,2171,2482,1886,3
56455.0,2175,2484,1895,3
56456.0,2178,2487,1891,3
56457.0,2177,2481,1892,3
56458.0,2181,2483,1893,3
56459.0,2181,2484,1894,3
56460.0,2171,2483,1891,3
56461.0,2174,2481,1900,3
56462.0,2178,2485,1893,3
56463.0,2176,2482,1891,3
56464.0,2168,2482,1893,3
56465.0,2178,2485,1892,3
56466.0,2175,2478,1895,3
56467.0,2177,2483,1898,3
56468.0,2174,2483,1893,3
56469.0,2170,2484,1893,3
56470.0,2176,2483,1896,3
56471.0,2176,2483,1891,3
56472.0,2175,2486,1893,3
56473.0,2170,2479,1891,3
56474.0,2179,2483,1896,3
56475.0,2168,2486,1891,3
56476.0,2177,2486,1895,3
56477.0,2179,2481,1895,3
56478.0,2174,2485,1893,3
56479.0,2177,2481,1891,3
56480.0,2172,2481,1894,3
56481.0,2176,2477,1893,3
56482.0,2175,2483,1892,3
56483.0,2173,2484,1895,3
56484.0,2172,2482,1889,3
56485.0,2179,2480,1893,3
56486.0,2178,2485,1895,3
56487.0,2171,2484,1895,3
56488.0,2172,2480,1895,3
56489.0,2172,2482,1892,3
56490.0,2175,2482,1893,3
56491.0,2170,2482,1893,3
56492.0,2171,2487,1897,3
56493.0,2173,2485,1896,3
56494.0,2176,2483,1893,3
56495.0,2176,2480,1894,3
56496.0,2175,2479,1892,3
56497.0,2175,2486,1898,3
56498.0,2180,2482,1898,3
56499.0,2176,2483,1895,3
56500.0,2175,2479,1896,3
56501.0,2176,2483,1890,3
56502.0,2175,2486,1889,3
56503.0,2178,2482,1896,3
56504.0,2174,2483,1891,3
56505.0,2179,2488,1896,3
56506.0,2177,2482,1897,3
56507.0,2170,2483,1890,3
56508.0,2172,2486,1889,3
56509.0,2169,2479,1895,3
56510.0,2170,2485,1893,3
56511.0,2177,2487,1893,3
56512.0,2181,2484,1890,3
56513.0,2172,2485,1895,3
56514.0,2179,2485,1892,3
56515.0,2175,2481,1893,3
56516.0,2177,2481,1897,3
56517.0,2174,2479,1894,3
56518.0,2176,2480,1899,3
56519.0,2173,2481,1891,3
56520.0,2176,2486,1893,3
56521.0,2181,2486,1893,3
56522.0,2177,2485,1892,3
56523.0,2171,2482,1893,3
56524.0,2185,2481,1892,3
56525.0,2174,2481,1890,3
56526.0,2176,2484,1896,3
56527.0,2173,2484,1897,3
56528.0,2172,2483,1892,3
56529.0,2178,2483,1900,3
56530.0,2173,2487,1898,3
56531.0,2176,2485,1891,3
56532.0,2175,2483,1893,3
56533.0,2180,2479,1889,3
56534.0,2177,2480,1891,3
56535.0,2174,2483,1888,3
56536.0,2178,2481,1895,3
56537.0,2175,2482,1892,3
56538.0,2178,2485,1891,3
56539.0,2174,2483,1895,3
56540.0,2176,2481,1898,3
56541.0,2176,2482,1893,3
56542.0,2177,2485,1893,3
56543.0,2171,2480,1892,3
56544.0,2174,2485,1896,3
56545.0,2177,2481,1893,3
56546.0,2174,2484,1888,3
56547.0,2180,2479,1897,3
56548.0,2173,2479,1891,3
56549.0,2172,2484,1893,3
56550.0,2172,2483,1891,3
56551.0,2169,2481,1895,3
56552.0,2180,2479,1889,3
56553.0,2174,2484,1890,3
56554.0,2180,2485,1891,3
56555.0,2173,2487,1892,3
56556.0,2170,2483,1895,3
56557.0,2172,2481,1896,3
56558.0,2172,2479,1895,3
56559.0,2171,2479,1891,3
56560.0,2176,2482,1895,3
56561.0,2177,2479,1895,3
56562.0,2174,2486,1896,3
56563.0,2176,2482,1893,3
56564.0,2175,2491,1890,3
56565.0,2175,2483,1896,3
56566.0,2175,2486,1895,3
56567.0,2173,2487,1894,3
56568.0,2175,2480,1894,3
56569.0,2178,2488,1899,3
56570.0,2178,2483,1895,3
56571.0,2173,2483,1892,3
56572.0,2177,2484,1898,3
56573.0,2181,2482,1895,3
56574.0,2173,2483,1893,3
56575.0,2170,2482,1893,3
56576.0,2174,2486,1889,3
56577.0,2182,2483,1896,3
56578.0,2180,2482,1895,3
56579.0,2173,2485,1891,3
56580.0,2178,2488,1893,3
56581.0,2173,2483,1893,3
56582.0,2174,2479,1895,3
56583.0,2175,2483,1893,3
56584.0,2175,2486,1891,3
56585.0,2169,2487,1889,3
56586.0,2174,2485,1894,3
56587.0,2176,2485,1892,3
56588.0,2173,2485,1898,3
56589.0,2170,2480,1890,3
56590.0,2175,2482,1897,3
56591.0,2173,2483,1896,3
56592.0,2173,2483,1893,3
56593.0,2174,2485,1893,3
56594.0,2175,2488,1895,3
56595.0,2178,2480,1888,3
56596.0,2173,2479,1897,3
56597.0,2176,2489,1896,3
56598.0,2180,2483,1892,3
56599.0,2179,2487,1893,3
56600.0,2181,2493,1897,3
56601.0,2181,2493,1902,3
56602.0,2175,2501,1903,3
56603.0,2168,2503,1905,3
56604.0,2168,2509,1903,3
56605.0,2147,2511,1900,3
56606.0,2143,2519,1898,3
56607.0,2143,2505,1904,3
56608.0,2137,2488,1911,3
56609.0,2133,2491,1907,3
56610.0,2154,2488,1890,3
56611.0,2151,2488,1891,3
56612.0,2147,2483,1891,3
56613.0,2127,2497,1891,3
56614.0,2122,2502,1890,3
56615.0,2133,2509,1900,3
56616.0,2149,2498,1880,3
56617.0,2187,2482,1813,3
56618.0,2193,2482,1850,3
56619.0,2182,2463,1844,3
56620.0,2169,2452,1868,3
56621.0,2163,2458,1879,3
56622.0,2157,2458,1876,3
56623.0,2144,2469,1884,3
56624.0,2154,2485,1900,3
56625.0,2149,2490,1903,3
56626.0,2152,2495,1909,3
56627.0,2154,2503,1910,3
56628.0,2152,2511,1907,3
56629.0,2161,2511,1917,3
56630.0,2156,2506,1926,3
56631.0,2154,2501,1923,3
56632.0,2161,2501,1912,3
56633.0,2149,2502,1920,3
56634.0,2149,2504,1926,3
56635.0,2147,2504,1930,3
56636.0,2146,2503,1928,3
56637.0,2144,2508,1927,3
56638.0,2142,2503,1935,3
56639.0,2143,2510,1940,3
56640.0,2137,2511,1927,3
56641.0,2135,2511,1936,3
56642.0,2138,2511,1931,3
56643.0,2131,2507,1930,3
56644.0,2131,2517,1935,3
56645.0,2130,2511,1941,3
56646.0,2135,2508,1937,3
56647.0,2133,2509,1946,3
56648.0,2133,2515,1949,3
56649.0,2131,2518,1952,3
56650.0,2131,2515,1948,3
56651.0,2135,2525,1947,3
56652.0,2130,2530,1948,3
56653.0,2144,2532,1947,3
56654.0,2144,2539,1949,3
56655.0,2140,2539,1950,3
56656.0,2140,2534,1948,3
56657.0,2133,2536,1955,3
56658.0,2126,2532,1949,3
56659.0,2115,2522,1952,3
56660.0,2110,2513,1970,3
56661.0,2100,2511,1978,3
56662.0,2095,2508,1979,3
56663.0,2086,2508,1973,3
56664.0,2095,2514,1975,3
56665.0,2104,2512,1980,3
56666.0,2107,2516,1975,3
56667.0,2117,2525,1969,3
56668.0,2121,2526,1969,3
56669.0,2127,2534,1971,3
56670.0,2125,2531,1968,3
56671.0,2121,2532,1966,3
56672.0,2124,2527,1967,3
56673.0,2115,2533,1972,3
56674.0,2123,2535,1979,3
56675.0,2119,2541,1984,3
56676.0,2117,2534,1988,3
56677.0,2112,2538,1984,3
56678.0,2113,2532,1989,3
56679.0,2119,2532,1981,3
56680.0,2115,2528,1987,3
56681.0,2115,2530,1977,3
56682.0,2121,2524,1984,3
56683.0,2124,2523,1989,3
56684.0,2122,2532,1988,3
56685.0,2127,2536,1989,3
56686.0,2126,2539,1986,3
56687.0,2129,2529,1987,3
56688.0,2129,2531,1987,3
56689.0,2128,2529,1987,3
56690.0,2123,2528,1989,3
56691.0,2121,2526,1994,3
56692.0,2120,2529,1995,3
56693.0,2118,2539,1997,3
56694.0,2115,2542,2000,3
56695.0,2111,2543,2005,3
56696.0,2112,2543,2004,3
56697.0,2108,2547,2004,3
56698.0,2103,2547,1996,3
56699.0,2108,2550,2003,3
56700.0,2112,2545,2000,3
56701.0,2113,2532,2007,3
56702.0,2111,2533,2006,3
56703.0,2112,2527,2007,3
56704.0,2110,2526,2011,3
56705.0,2109,2530,2011,3
56706.0,2114,2537,2013,3
56707.0,2116,2541,2026,3
56708.0,2113,2535,2027,3
56709.0,2106,2529,2025,3
56710.0,2102,2531,2021,3
56711.0,2102,2532,2021,3
56712.0,2096,2533,2026,3
56713.0,2092,2534,2037,3
56714.0,2083,2535,2031,3
56715.0,2089,2537,2031,3
56716.0,2082,2538,2025,3
56717.0,2083,2539,2032,3
56718.0,2086,2536,2027,3
56719.0,2091,2534,2026,3
56720.0,2101,2535,2019,3
56721.0,2098,2537,2022,3
56722.0,2094,2540,2025,3
56723.0,2085,2537,2028,3
56724.0,2079,2539,2026,3
56725.0,2075,2538,2028,3
56726.0,2070,2531,2020,3
56727.0,2064,2531,2019,3
56728.0,2068,2529,2018,3
56729.0,2063,2536,2020,3
56730.0,2069,2539,2021,3
56731.0,2065,2537,2020,3
56732.0,2069,2538,2013,3
56733.0,2067,2535,2016,3
56734.0,2071,2531,2017,3
56735.0,2079,2525,2011,3
56736.0,2070,2525,2009,3
56737.0,2077,2531,2012,3
56738.0,2079,2535,2016,3
56739.0,2076,2542,2020,3
56740.0,2076,2545,2013,3
56741.0,2077,2535,2008,3
56742.0,2072,2525,1996,3
56743.0,2077,2523,1996,3
56744.0,2073,2530,1999,3
56745.0,2072,2541,2012,3
56746.0,2097,2650,2020,3
56747.0,2064,2587,2021,3
56748.0,2083,2544,2026,3
56749.0,2075,2532,2017,3
56750.0,2067,2535,2020,3
56751.0,2069,2555,2024,3
56752.0,2068,2553,2026,3
56753.0,2066,2548,2023,3
56754.0,2056,2542,2029,3
56755.0,2077,2532,2018,3
56756.0,2078,2538,2027,3
56757.0,2076,2538,2028,3
56758.0,2070,2540,2026,3
56759.0,2076,2561,2025,3
56760.0,2079,2549,2023,3
56761.0,2082,2531,2017,3
56762.0,2074,2539,2015,3
56763.0,2071,2538,2016,3
56764.0,2094,2538,2010,3
56765.0,2101,2534,2006,3
56766.0,2101,2542,2009,3
56767.0,2100,2538,2014,3
56768.0,2101,2538,2013,3
56769.0,2116,2535,2012,3
56770.0,2124,2539,1999,3
56771.0,2125,2527,1999,3
56772.0,2119,2538,2001,3
56773.0,2117,2535,1994,3
56774.0,2122,2531,1992,3
56775.0,2134,2530,1987,3
56776.0,2126,2529,1985,3
56777.0,2129,2529,1983,3
56778.0,2124,2533,1985,3
56779.0,2124,2531,1975,3
56780.0,2122,2527,1981,3
56781.0,2122,2530,1981,3
56782.0,2121,2521,1976,3
56783.0,2112,2528,1974,3
56784.0,2117,2523,1978,3
56785.0,2116,2526,1974,3
56786.0,2110,2531,1972,3
56787.0,2114,2524,1970,3
56788.0,2103,2521,1969,3
56789.0,2101,2525,1967,3
56790.0,2101,2524,1961,3
56791.0,2099,2529,1956,3
56792.0,2091,2528,1954,3
56793.0,2097,2524,1951,3
56794.0,2099,2531,1954,3
56795.0,2093,2529,1945,3
56796.0,2094,2527,1944,3
56797.0,2098,2521,1943,3
56798.0,2094,2525,1951,3
56799.0,2096,2517,1947,3
56800.0,2097,2526,1949,3
56801.0,2090,2525,1949,3
56802.0,2092,2536,1961,3
56803.0,2100,2518,1949,3
56804.0,2107,2530,1970,3
56805.0,2104,2513,1959,3
56806.0,2118,2539,1976,3
56807.0,2105,2576,1977,3
56808.0,2131,2515,2012,3
56809.0,2104,2549,1984,3
56810.0,2077,2585,1959,3
56811.0,2097,2543,1989,3
56812.0,2077,2559,1996,3
56813.0,2056,2528,1999,3
56814.0,2014,2539,1978,3
56815.0,2066,2577,2003,3
56816.0,2066,2562,1983,3
56817.0,2065,2504,1983,3
56818.0,2057,2510,2018,3
56819.0,2051,2572,1992,3
56820.0,2056,2533,1999,3
56821.0,2064,2539,1997,3
56822.0,2060,2533,2004,3
56823.0,2081,2534,2001,3
56824.0,2077,2539,2004,3
56825.0,2082,2540,2004,3
56826.0,2081,2536,2010,3
56827.0,2075,2539,2011,3
56828.0,2077,2535,2015,3
56829.0,2074,2538,2020,3
56830.0,2080,2536,2017,3
56831.0,2075,2538,2014,3
56832.0,2087,2541,2002,3
56833.0,2095,2559,1996,3
56834.0,2101,2546,1998,3
56835.0,2090,2525,1998,3
56836.0,2084,2543,2005,3
56837.0,2071,2541,2003,3
56838.0,2079,2514,2003,3
56839.0,2070,2531,1976,3
56840.0,2051,2508,1947,3
56841.0,2092,2533,1972,3
56842.0,2087,2532,1981,3
56843.0,2107,2549,1988,3
56844.0,2094,2559,1950,3
56845.0,2092,2539,1934,3
56846.0,2086,2509,1916,3
56847.0,2081,2527,1931,3
56848.0,2077,2510,1927,3
56849.0,2077,2518,1917,3
56850.0,2073,2524,1929,3
56851.0,2059,2516,1906,3
56852.0,2065,2497,1919,3
56853.0,2074,2530,1917,3
56854.0,2059,2505,1913,3
56855.0,2069,2513,1913,3
56856.0,2065,2512,1908,3
56857.0,2073,2509,1905,3
56858.0,2079,2505,1894,3
56859.0,2076,2501,1894,3
56860.0,2078,2489,1883,3
56861.0,2082,2493,1873,3
56862.0,2079,2485,1870,3
56863.0,2076,2458,1881,3
56864.0,2084,2491,1874,3
56865.0,2080,2487,1866,3
56866.0,2080,2473,1859,3
56867.0,2066,2478,1850,3
56868.0,2067,2448,1848,3
56869.0,2066,2474,1842,3
56870.0,2076,2474,1845,3
56871.0,2085,2448,1832,3
56872.0,2091,2463,1838,3
56873.0,2084,2446,1833,3
56874.0,2086,2460,1826,3
56875.0,2083,2455,1822,3
56876.0,2074,2448,1817,3
56877.0,2084,2429,1809,3
56878.0,2090,2445,1815,3
56879.0,2079,2435,1804,3
56880.0,2075,2432,1804,3
56881.0,2077,2434,1799,3
56882.0,2076,2426,1792,3
56883.0,2068,2423,1794,3
56884.0,2071,2419,1788,3
56885.0,2074,2421,1783,3
56886.0,2079,2419,1789,3
56887.0,2082,2417,1782,3
56888.0,2077,2420,1784,3
56889.0,2082,2410,1784,3
56890.0,2075,2414,1774,3
56891.0,2073,2409,1783,3
56892.0,2069,2410,1775,3
56893.0,2079,2411,1779,3
56894.0,2077,2406,1775,3
56895.0,2075,2414,1779,3
56896.0,2073,2403,1783,3
56897.0,2078,2419,1783,3
56898.0,2083,2417,1785,3
56899.0,2070,2421,1786,3
56900.0,2071,2417,1782,3
56901.0,2078,2419,1788,3
56902.0,2075,2422,1791,3
56903.0,2071,2422,1790,3
56904.0,2072,2427,1801,3
56905.0,2069,2439,1796,3
56906.0,2075,2433,1806,3
56907.0,2078,2437,1805,3
56908.0,2079,2447,1809,3
56909.0,2079,2457,1812,3
56910.0,2078,2441,1830,3
56911.0,2060,2468,1834,3
56912.0,2081,2467,1840,3
56913.0,2085,2473,1842,3
56914.0,2083,2479,1846,3
56915.0,2082,2483,1860,3
56916.0,2077,2499,1866,3
56917.0,2080,2483,1870,3
56918.0,2086,2486,1866,3
56919.0,2071,2493,1882,3
56920.0,2067,2492,1888,3
56921.0,2072,2501,1880,3
56922.0,2066,2490,1877,3
56923.0,2053,2482,1893,3
56924.0,2055,2492,1906,3
56925.0,2067,2496,1917,3
56926.0,2063,2513,1934,3
56927.0,2063,2532,1984,3
56928.0,2057,2575,2028,3
56929.0,2083,2526,1973,3
56930.0,2089,2537,1951,3
56931.0,2095,2564,1964,3
56932.0,2104,2501,1988,3
56933.0,2086,2529,2012,3
56934.0,2082,2588,2032,3
56935.0,2079,2592,2032,3
56936.0,2089,2553,1992,3
56937.0,2090,2520,1968,3
56938.0,2088,2492,1976,3
56939.0,2087,2495,1992,3
56940.0,2104,2502,2003,3
56941.0,2132,2516,2006,3
56942.0,2140,2523,2003,3
56943.0,2142,2521,2003,3
56944.0,2149,2523,2005,3
56945.0,2156,2531,1991,3
56946.0,2158,2524,1972,3
56947.0,2156,2505,1972,3
56948.0,2163,2503,1973,3
56949.0,2177,2508,1962,3
56950.0,2189,2511,1961,3
56951.0,2191,2514,1961,3
56952.0,2194,2518,1958,3
56953.0,2183,2527,1958,3
56954.0,2151,2547,1982,3
56955.0,2128,2560,2003,3
56956.0,2118,2564,2023,3
56957.0,2102,2562,2035,3
56958.0,2093,2549,2038,3
56959.0,2088,2527,2006,3
56960.0,2081,2524,1982,3
56961.0,2074,2545,2040,3
56962.0,2038,2551,2056,3
56963.0,2010,2548,2038,3
56964.0,2020,2544,2007,3
56965.0,2018,2523,1982,3
56966.0,2038,2523,1983,3
56967.0,2062,2525,1954,3
56968.0,2038,2514,1970,3
56969.0,2037,2527,1967,3
56970.0,2095,2527,1967,3
56971.0,2110,2511,1975,3
56972.0,2089,2504,1983,3
56973.0,2001,2537,2035,3
56974.0,2026,2555,2126,3
56975.0,2180,2629,2017,3
56976.0,2179,2601,1984,3
56977.0,2099,2518,1963,3
56978.0,2119,2504,1968,3
56979.0,2097,2510,1989,3
56980.0,2082,2552,2009,3
56981.0,2088,2554,2009,3
56982.0,2106,2544,2006,3
56983.0,2099,2536,1988,3
56984.0,2112,2537,1988,3
56985.0,2107,2527,1977,3
56986.0,2095,2527,1981,3
56987.0,2084,2533,1995,3
56988.0,2072,2549,2009,3
56989.0,2080,2550,2006,3
56990.0,2072,2544,1995,3
56991.0,2071,2544,1991,3
56992.0,2075,2538,1989,3
56993.0,2071,2536,1987,3
56994.0,2073,2525,1979,3
56995.0,2081,2524,1974,3
56996.0,2098,2525,1974,3
56997.0,2106,2526,1978,3
56998.0,2112,2529,1982,3
56999.0,2107,2530,1981,3
57000.0,2111,2525,1974,3
57001.0,2105,2523,1974,3
57002.0,2103,2527,1965,3
57003.0,2094,2524,1972,3
57004.0,2092,2527,1978,3
57005.0,2085,2528,1979,3
57006.0,2087,2527,1979,3
57007.0,2089,2528,1971,3
57008.0,2087,2534,1972,3
57009.0,2090,2538,1975,3
57010.0,2093,2545,1976,3
57011.0,2096,2549,1974,3
57012.0,2095,2548,1975,3
57013.0,2095,2547,1971,3
57014.0,2085,2542,1967,3
57015.0,2095,2538,1972,3
57016.0,2088,2535,1972,3
57017.0,2087,2531,1974,3
57018.0,2089,2529,1979,3
57019.0,2090,2521,1979,3
57020.0,2092,2522,1974,3
57021.0,2087,2527,1972,3
57022.0,2097,2525,1971,3
57023.0,2090,2523,1971,3
57024.0,2095,2532,1972,3
57025.0,2098,2532,1973,3
57026.0,2090,2539,1976,3
57027.0,2092,2541,1978,3
57028.0,2094,2539,1973,3
57029.0,2086,2538,1973,3
57030.0,2093,2537,1966,3
57031.0,2091,2531,1968,3
57032.0,2096,2529,1968,3
57033.0,2094,2531,1968,3
57034.0,2094,2525,1973,3
57035.0,2101,2528,1969,3
57036.0,2097,2528,1966,3
57037.0,2092,2523,1973,3
57038.0,2088,2527,1971,3
57039.0,2092,2528,1969,3
57040.0,2092,2530,1964,3
57041.0,2096,2535,1967,3
57042.0,2089,2529,1972,3
57043.0,2093,2526,1972,3
57044.0,2091,2528,1973,3
57045.0,2098,2527,1965,3
57046.0,2095,2530,1968,3
57047.0,2098,2531,1968,3
57048.0,2098,2529,1967,3
57049.0,2095,2528,1966,3
57050.0,2105,2529,1967,3
57051.0,2100,2531,1966,3
57052.0,2097,2524,1966,3
57053.0,2095,2530,1968,3
57054.0,2098,2529,1969,3
57055.0,2097,2531,1974,3
57056.0,2093,2539,1968,3
57057.0,2090,2535,1970,3
57058.0,2094,2537,1967,3
57059.0,2093,2535,1970,3
57060.0,2091,2532,1973,3
57061.0,2095,2528,1964,3
57062.0,2095,2527,1960,3
57063.0,2099,2519,1956,3
57064.0,2331,2630,1891,3
57065.0,2217,2628,1921,3
57066.0,2229,2577,1976,3
57067.0,2232,2481,1967,3
57068.0,2227,2403,1914,3
57069.0,2191,2384,1903,3
57070.0,2197,2439,1914,3
57071.0,2163,2451,1962,3
57072.0,2164,2452,1980,3
57073.0,2199,2489,1983,3
57074.0,2197,2507,2005,3
57075.0,2211,2500,1966,3
57076.0,2204,2490,1971,3
57077.0,2198,2496,2001,3
57078.0,2212,2484,1991,3
57079.0,2102,2401,2116,3
57080.0,2097,2389,2075,3
57081.0,2111,2537,1978,3
57082.0,2171,2670,2016,3
57083.0,2195,2737,2080,3
57084.0,2189,2608,2074,3
57085.0,2169,2519,2022,3
57086.0,2161,2494,2001,3
57087.0,2169,2508,2006,3
57088.0,2182,2517,2022,3
57089.0,2190,2518,2046,3
57090.0,2195,2513,2054,3
57091.0,2178,2515,2066,3
57092.0,2153,2512,2070,3
57093.0,2129,2523,2066,3
57094.0,2125,2527,2070,3
57095.0,2125,2537,2073,3
57096.0,2130,2539,2057,3
57097.0,2149,2560,2040,3
57098.0,2170,2541,2034,3
57099.0,2174,2548,2021,3
57100.0,2184,2553,2019,3
57101.0,2184,2537,2017,3
57102.0,2188,2533,2007,3
57103.0,2181,2564,1987,3
57104.0,2171,2545,1992,3
57105.0,2170,2551,1993,3
57106.0,2155,2546,2001,3
57107.0,2165,2541,2018,3
57108.0,2171,2545,2024,3
57109.0,2159,2487,2053,3
57110.0,2166,2508,2039,3
57111.0,2152,2529,2036,3
57112.0,2155,2558,2045,3
57113.0,2173,2599,2037,3
57114.0,2179,2534,2060,3
57115.0,2165,2528,2055,3
57116.0,2159,2520,2055,3
57117.0,2162,2529,2051,3
57118.0,2161,2529,2073,3
57119.0,2154,2505,2074,3
57120.0,2120,2465,2053,3
57121.0,2120,2467,2053,3
57122.0,2129,2486,2056,3
57123.0,2145,2502,2063,3
57124.0,2158,2489,2080,3
57125.0,2159,2489,2075,3
57126.0,2146,2502,2060,3
57127.0,2149,2511,2046,3
57128.0,2157,2522,2044,3
57129.0,2163,2529,2050,3
57130.0,2163,2530,2054,3
57131.0,2165,2548,2054,3
57132.0,2164,2569,2041,3
57133.0,2154,2554,2047,3
57134.0,2130,2531,2046,3
57135.0,2130,2534,2041,3
57136.0,2122,2534,2045,3
57137.0,2126,2538,2042,3
57138.0,2135,2544,2043,3
57139.0,2135,2568,2027,3
57140.0,2138,2573,2016,3
57141.0,2140,2587,2022,3
57142.0,2133,2583,2033,3
57143.0,2125,2594,2019,3
57144.0,2115,2578,2009,3
57145.0,2118,2563,2007,3
57146.0,2127,2556,2028,3
57147.0,2122,2555,2032,3
57148.0,2118,2551,2037,3
57149.0,2111,2541,2022,3
57150.0,2113,2523,2006,3
57151.0,2102,2500,2002,3
57152.0,2101,2485,1996,3
57153.0,2100,2479,1998,3
57154.0,2094,2474,2014,3
57155.0,2095,2496,2031,3
57156.0,2102,2527,2041,3
57157.0,2110,2537,2041,3
57158.0,2111,2536,2034,3
57159.0,2110,2542,2020,3
57160.0,2117,2553,2019,3
57161.0,2112,2549,2022,3
57162.0,2114,2553,2035,3
57163.0,2111,2565,2028,3
57164.0,2105,2570,2035,3
57165.0,2097,2574,2035,3
57166.0,2096,2554,2029,3
57167.0,2093,2534,2021,3
57168.0,2106,2525,2019,3
57169.0,2108,2517,2009,3
57170.0,2111,2518,2012,3
57171.0,2111,2515,2023,3
57172.0,2110,2526,2020,3
57173.0,2106,2518,2019,3
57174.0,2111,2522,2015,3
57175.0,2121,2514,2015,3
57176.0,2126,2513,2015,3
57177.0,2126,2515,2007,3
57178.0,2119,2515,1998,3
57179.0,2120,2524,1999,3
57180.0,2117,2525,2004,3
57181.0,2109,2529,2002,3
57182.0,2101,2531,1999,3
57183.0,2097,2541,1988,3
57184.0,2094,2545,1987,3
57185.0,2080,2545,1977,3
57186.0,2076,2551,1978,3
57187.0,2070,2540,1982,3
57188.0,2066,2530,1979,3
57189.0,2076,2519,1959,3
57190.0,2103,2504,1955,3
57191.0,2117,2519,1949,3
57192.0,2127,2528,1951,3
57193.0,2147,2540,1954,3
57194.0,2154,2546,1969,3
57195.0,2169,2549,1976,3
57196.0,2180,2544,1959,3
57197.0,2165,2535,1961,3
57198.0,2132,2541,1946,3
57199.0,2116,2543,1946,3
57200.0,2102,2561,1951,3
57201.0,2095,2575,1974,3
57202.0,2087,2575,2002,3
57203.0,2116,2565,2011,3
57204.0,2131,2539,2009,3
57205.0,2137,2525,1994,3
57206.0,2126,2502,1983,3
57207.0,2117,2498,1980,3
57208.0,2104,2499,1990,3
57209.0,2099,2511,2008,3
57210.0,2095,2514,1993,3
57211.0,2088,2525,2010,3
57212.0,2068,2544,2031,3
57213.0,2057,2564,2059,3
57214.0,2044,2575,2077,3
57215.0,2050,2560,2070,3
57216.0,2059,2535,2041,3
57217.0,2067,2506,2015,3
57218.0,2066,2501,2027,3
57219.0,2076,2519,2040,3
57220.0,2095,2541,2067,3
57221.0,2135,2531,2041,3
57222.0,2159,2528,2004,3
57223.0,2169,2525,1983,3
57224.0,2184,2529,1978,3
57225.0,2205,2539,1970,3
57226.0,2201,2529,1981,3
57227.0,2187,2510,1992,3
57228.0,2162,2487,1985,3
57229.0,2159,2477,1984,3
57230.0,2150,2497,2006,3
57231.0,2117,2563,2038,3
57232.0,2069,2615,2068,3
57233.0,2033,2637,2083,3
57234.0,2027,2618,2068,3
57235.0,2039,2586,2045,3
57236.0,2060,2542,2039,3
57237.0,2113,2487,2039,3
57238.0,2128,2469,2030,3
57239.0,2134,2471,2013,3
57240.0,2141,2479,2001,3
57241.0,2152,2497,1997,3
57242.0,2153,2530,2004,3
57243.0,2109,2542,2000,3
57244.0,2102,2542,1989,3
57245.0,2086,2540,1967,3
57246.0,2078,2541,1957,3
57247.0,2068,2538,1956,3
57248.0,2065,2522,1950,3
57249.0,2070,2513,1951,3
57250.0,2070,2510,1939,3
57251.0,2075,2502,1928,3
57252.0,2090,2498,1921,3
57253.0,2103,2513,1913,3
57254.0,2111,2527,1902,3
57255.0,2129,2544,1900,3
57256.0,2132,2543,1898,3
57257.0,2134,2554,1887,3
57258.0,2148,2557,1883,3
57259.0,2156,2574,1873,3
57260.0,2167,2602,1845,3
57261.0,2179,2610,1834,3
57262.0,2170,2598,1843,3
57263.0,2156,2589,1851,3
57264.0,2133,2579,1859,3
57265.0,2122,2582,1867,3
57266.0,2114,2584,1870,3
57267.0,2108,2577,1874,3
57268.0,2106,2583,1866,3
57269.0,2109,2587,1866,3
57270.0,2107,2595,1862,3
57271.0,2115,2585,1864,3
57272.0,2117,2587,1869,3
57273.0,2134,2575,1876,3
57274.0,2146,2563,1882,3
57275.0,2256,2548,1956,3
57276.0,2189,2561,1904,3
57277.0,2189,2571,1903,3
57278.0,2169,2585,1894,3
57279.0,2150,2591,1880,3
57280.0,2145,2563,1889,3
57281.0,2142,2526,1900,3
57282.0,2147,2480,1912,3
57283.0,2151,2451,1927,3
57284.0,2151,2441,1935,3
57285.0,2162,2436,1938,3
57286.0,2155,2410,1944,3
57287.0,2151,2375,1961,3
57288.0,2152,2331,1981,3
57289.0,2150,2304,1996,3
57290.0,2110,2305,1998,3
57291.0,2114,2306,2000,3
57292.0,2131,2317,2002,3
57293.0,2121,2330,2004,3
57294.0,2129,2379,1989,3
57295.0,2130,2420,1959,3
57296.0,2128,2472,1938,3
57297.0,2134,2519,1926,3
57298.0,2137,2697,2191,3
57299.0,1849,2937,2826,3
57300.0,2024,2679,2277,3
57301.0,2078,2505,2069,3
57302.0,2102,2452,1951,3
57303.0,2106,2445,1946,3
57304.0,2104,2442,1957,3
57305.0,2094,2444,1955,3
57306.0,1997,2509,2110,3
57307.0,1972,2565,2152,3
57308.0,2038,2614,2036,3
57309.0,2042,2643,2030,3
57310.0,2065,2641,1991,3
57311.0,2103,2620,1848,3
57312.0,2100,2651,1833,3
57313.0,2084,2685,1829,3
57314.0,2079,2686,1827,3
57315.0,2014,2718,2024,3
57316.0,1985,2751,2176,3
57317.0,2012,2655,2107,3
57318.0,2036,2524,2038,3
57319.0,2061,2440,1979,3
57320.0,2061,2387,1964,3
57321.0,2078,2352,1978,3
57322.0,2084,2340,1987,3
57323.0,2087,2362,1990,3
57324.0,2104,2401,1966,3
57325.0,2111,2463,1934,3
57326.0,2134,2576,1992,3
57327.0,2156,2791,2254,3
57328.0,2172,2719,2157,3
57329.0,2134,2540,2007,3
57330.0,2122,2463,1971,3
57331.0,2104,2453,1945,3
57332.0,2105,2520,1965,3
57333.0,2113,2623,2090,3
57334.0,2111,2602,2080,3
57335.0,2122,2584,2063,3
57336.0,2136,2554,2073,3
57337.0,2128,2515,2002,3
57338.0,2124,2484,1985,3
57339.0,2139,2505,1989,3
57340.0,2184,2565,2051,3
57341.0,2253,2682,2103,3
57342.0,2235,2717,2019,3
57343.0,2193,2598,1987,3
57344.0,2155,2503,1994,3
57345.0,2124,2449,2010,3
57346.0,2113,2418,2035,3
57347.0,2105,2394,2055,3
57348.0,2098,2433,2098,3
57349.0,2071,2500,2132,3
57350.0,2053,2534,2091,3
57351.0,2058,2527,2026,3
57352.0,2066,2514,2003,3
57353.0,2058,2515,2030,3
57354.0,2033,2570,2082,3
57355.0,2024,2615,2124,3
57356.0,2039,2623,2093,3
57357.0,2063,2590,2064,3
57358.0,2067,2587,2049,3
57359.0,2048,2637,2043,3
57360.0,2045,2642,2025,3
57361.0,2033,2588,2016,3
57362.0,2029,2562,2008,3
57363.0,2031,2544,2008,3
57364.0,2022,2543,2012,3
57365.0,2021,2560,2026,3
57366.0,2043,2560,2044,3
57367.0,2107,2592,2041,3
57368.0,2126,2590,2021,3
57369.0,2134,2535,2046,3
57370.0,2138,2489,2071,3
57371.0,2123,2449,2063,3
57372.0,2099,2403,2053,3
57373.0,2081,2381,2052,3
57374.0,2079,2391,2053,3
57375.0,2059,2457,2073,3
57376.0,2046,2562,2105,3
57377.0,2044,2638,2105,3
57378.0,2055,2621,2085,3
57379.0,2087,2556,2035,3
57380.0,2106,2505,2023,3
57381.0,2125,2485,2055,3
57382.0,2143,2499,2119,3
57383.0,2178,2592,2127,3
57384.0,2162,2658,2061,3
57385.0,2182,2654,2014,3
57386.0,2175,2660,1986,3
57387.0,2174,2605,1977,3
57388.0,2178,2541,1996,3
57389.0,2180,2500,2036,3
57390.0,2177,2473,2062,3
57391.0,2176,2428,2074,3
57392.0,2180,2449,2060,3
57393.0,2189,2509,2039,3
57394.0,2191,2571,2000,3
57395.0,2217,2603,1985,3
57396.0,2204,2533,2017,3
57397.0,2182,2491,2049,3
57398.0,2123,2493,2043,3
57399.0,2093,2492,2044,3
57400.0,2076,2491,2043,3
57401.0,2067,2510,2042,3
57402.0,2050,2551,2043,3
57403.0,2041,2554,2044,3
57404.0,2025,2568,2038,3
57405.0,2016,2551,2041,3
57406.0,2008,2546,2053,3
57407.0,2000,2551,2081,3
57408.0,2009,2541,2082,3
57409.0,2010,2567,2047,3
57410.0,2049,2617,2002,3
57411.0,2071,2693,1964,3
57412.0,2087,2628,1967,3
57413.0,2085,2599,1947,3
57414.0,2081,2580,1936,3
57415.0,2053,2561,1972,3
57416.0,2094,2577,2061,3
57417.0,2121,2619,2077,3
57418.0,2122,2573,2043,3
57419.0,2118,2490,2029,3
57420.0,2118,2422,2017,3
57421.0,2120,2384,2013,3
57422.0,2125,2383,2006,3
57423.0,2126,2399,2006,3
57424.0,2153,2442,2040,3
57425.0,2178,2521,2061,3
57426.0,2143,2580,2031,3
57427.0,2108,2535,2023,3
57428.0,2097,2513,2023,3
57429.0,2123,2493,2085,3
57430.0,2150,2540,2095,3
57431.0,2157,2602,2088,3
57432.0,2134,2649,2032,3
57433.0,2156,2658,1978,3
57434.0,2183,2753,1967,3
57435.0,2213,2798,1951,3
57436.0,2189,2667,1933,3
57437.0,2163,2514,1945,3
57438.0,2153,2429,1965,3
57439.0,2165,2410,1982,3
57440.0,2183,2430,1963,3
57441.0,2221,2470,1986,3
57442.0,2195,2505,1942,3
57443.0,2199,2523,1943,3
57444.0,2180,2512,1939,3
57445.0,2178,2487,1992,3
57446.0,2162,2474,2041,3
57447.0,2083,2465,2090,3
57448.0,2050,2463,2111,3
57449.0,2057,2447,2059,3
57450.0,2085,2427,1998,3
57451.0,2100,2439,1977,3
57452.0,2078,2491,2012,3
57453.0,2056,2570,2090,3
57454.0,2044,2642,2090,3
57455.0,2063,2681,2039,3
57456.0,2076,2688,1974,3
57457.0,2079,2658,1936,3
57458.0,2073,2605,1959,3
57459.0,2101,2632,1894,3
57460.0,2081,2703,1817,3
57461.0,2081,2703,1818,3
57462.0,2089,2693,1818,3
57463.0,2089,2625,1866,3
57464.0,1978,2700,2314,3
57465.0,1992,2608,2314,3
57466.0,2067,2437,2129,3
57467.0,2088,2357,2014,3
57468.0,2093,2303,2011,3
57469.0,2090,2281,2025,3
57470.0,2082,2298,2015,3
57471.0,2091,2329,1996,3
57472.0,2112,2372,1989,3
57473.0,2119,2415,1965,3
57474.0,2127,2454,1955,3
57475.0,2130,2501,1929,3
57476.0,2133,2535,1911,3
57477.0,2067,2699,2067,3
57478.0,1877,3035,2643,3
57479.0,1989,2825,2275,3
57480.0,2070,2605,2012,3
57481.0,2095,2619,1906,3
57482.0,2120,2643,1851,3
57483.0,2110,2697,1831,3
57484.0,2129,2575,1899,3
57485.0,2125,2510,1930,3
57486.0,2130,2460,1962,3
57487.0,2157,2446,1985,3
57488.0,2245,2451,2042,3
57489.0,2193,2475,1981,3
57490.0,2149,2495,1914,3
57491.0,2124,2510,1892,3
57492.0,2099,2515,1943,3
57493.0,2055,2553,2026,3
57494.0,1993,2617,2147,3
57495.0,1989,2567,2135,3
57496.0,2017,2470,2068,3
57497.0,2036,2435,2019,3
57498.0,2043,2441,2009,3
57499.0,2023,2485,2026,3
57500.0,2007,2533,2052,3
57501.0,2003,2559,2088,3
57502.0,2015,2564,2093,3
57503.0,2012,2573,2095,3
57504.0,2098,2553,2092,3
57505.0,2123,2539,2078,3
57506.0,2135,2562,2044,3
57507.0,2147,2618,2010,3
57508.0,2163,2704,1980,3
57509.0,2132,2683,1854,3
57510.0,2111,2579,1872,3
57511.0,2111,2485,1910,3
57512.0,2096,2510,1894,3
57513.0,2092,2564,1878,3
57514.0,2090,2588,1876,3
57515.0,2077,2593,1895,3
57516.0,2015,2712,2181,3
57517.0,2102,2666,2264,3
57518.0,2080,2552,2179,3
57519.0,2068,2432,2035,3
57520.0,2073,2380,1994,3
57521.0,2073,2354,1994,3
57522.0,2084,2341,1987,3
57523.0,2087,2359,1979,3
57524.0,2092,2392,1961,3
57525.0,2099,2452,1945,3
57526.0,2092,2554,1984,3
57527.0,2089,2718,2188,3
57528.0,2148,2761,2175,3
57529.0,2111,2615,2065,3
57530.0,2086,2564,1970,3
57531.0,2069,2616,1953,3
57532.0,2080,2711,2013,3
57533.0,2112,2769,2004,3
57534.0,2112,2679,1913,3
57535.0,2116,2540,1921,3
57536.0,2122,2473,1941,3
57537.0,2116,2446,1945,3
57538.0,2129,2451,1937,3
57539.0,2143,2461,1931,3
57540.0,2154,2464,1929,3
57541.0,2300,2537,2040,3
57542.0,2261,2626,1944,3
57543.0,2231,2650,1926,3
57544.0,2146,2541,1998,3
57545.0,2091,2498,2069,3
57546.0,2059,2491,2099,3
57547.0,2051,2458,2085,3
57548.0,2044,2432,2068,3
57549.0,2049,2431,2035,3
57550.0,2041,2443,2043,3
57551.0,2029,2485,2055,3
57552.0,2017,2522,2076,3
57553.0,2011,2559,2089,3
57554.0,2006,2586,2101,3
57555.0,2012,2621,2107,3
57556.0,2011,2631,2098,3
57557.0,2046,2620,2118,3
57558.0,2090,2667,2092,3
57559.0,2091,2657,2066,3
57560.0,2107,2621,1999,3
57561.0,2105,2591,1937,3
57562.0,2081,2523,1914,3
57563.0,2088,2488,1917,3
57564.0,2088,2512,1915,3
57565.0,2073,2556,1951,3
57566.0,2105,2634,2115,3
57567.0,2163,2663,2232,3
57568.0,2132,2555,2143,3
57569.0,2101,2442,2052,3
57570.0,2093,2387,2011,3
57571.0,2091,2355,1994,3
57572.0,2090,2347,1994,3
57573.0,2108,2367,1995,3
57574.0,2138,2434,2048,3
57575.0,2161,2572,2125,3
57576.0,2133,2615,2080,3
57577.0,2103,2571,2038,3
57578.0,2106,2549,2031,3
57579.0,2096,2565,2051,3
57580.0,2096,2592,2094,3
57581.0,2079,2596,2093,3
57582.0,2068,2575,2072,3
57583.0,2079,2611,2054,3
57584.0,2090,2651,2053,3
57585.0,2120,2647,2011,3
57586.0,2129,2563,1970,3
57587.0,2139,2524,1973,3
57588.0,2156,2501,2004,3
57589.0,2188,2513,2038,3
57590.0,2209,2527,2032,3
57591.0,2205,2557,1990,3
57592.0,2206,2581,1958,3
57593.0,2206,2558,1961,3
57594.0,2195,2502,1990,3
57595.0,2193,2469,2011,3
57596.0,2159,2451,2013,3
57597.0,2114,2453,2008,3
57598.0,2100,2465,2011,3
57599.0,2095,2507,2033,3
57600.0,2068,2552,2082,3
57601.0,2039,2589,2117,3
57602.0,2025,2586,2072,3
57603.0,2049,2540,2025,3
57604.0,2051,2521,2022,3
57605.0,2035,2551,2055,3
57606.0,2025,2592,2109,3
57607.0,2052,2601,2109,3
57608.0,2148,2588,2057,3
57609.0,2149,2566,2010,3
57610.0,2164,2583,1998,3
57611.0,2182,2622,2011,3
57612.0,2174,2645,1958,3
57613.0,2143,2601,1912,3
57614.0,2120,2519,1912,3
57615.0,2104,2488,1916,3
57616.0,2087,2522,1904,3
57617.0,2086,2545,1895,3
57618.0,2056,2577,1976,3
57619.0,2013,2624,2100,3
57620.0,1998,2592,2149,3
57621.0,2004,2529,2135,3
57622.0,2037,2461,2061,3
57623.0,2063,2422,1999,3
57624.0,2081,2411,1969,3
57625.0,2090,2414,1959,3
57626.0,2096,2435,1955,3
57627.0,2090,2472,1996,3
57628.0,2064,2563,2087,3
57629.0,2042,2635,2158,3
57630.0,2120,2513,2015,3
57631.0,2122,2514,2016,3
57632.0,2127,2532,2027,3
57633.0,2131,2556,2060,3
57634.0,2109,2586,2073,3
57635.0,2077,2588,2076,3
57636.0,2059,2592,2071,3
57637.0,2053,2644,2062,3
57638.0,2081,2685,2043,3
57639.0,2113,2663,2009,3
57640.0,2126,2598,1946,3
57641.0,2131,2535,1918,3
57642.0,2122,2493,1928,3
57643.0,2142,2471,1943,3
57644.0,2161,2471,1946,3
57645.0,2188,2496,1967,3
57646.0,2274,2555,2013,3
57647.0,2230,2606,1945,3
57648.0,2201,2579,1919,3
57649.0,2156,2491,1963,3
57650.0,2116,2472,2023,3
57651.0,2075,2474,2061,3
57652.0,2059,2477,2083,3
57653.0,2056,2473,2069,3
57654.0,2063,2469,2039,3
57655.0,2063,2482,2010,3
57656.0,2060,2503,2008,3
57657.0,2050,2537,2025,3
57658.0,2031,2554,2064,3
57659.0,2026,2579,2090,3
57660.0,2025,2579,2083,3
57661.0,2030,2569,2085,3
57662.0,2031,2577,2090,3
57663.0,2071,2581,2092,3
57664.0,2103,2575,2069,3
57665.0,2129,2587,2050,3
57666.0,2155,2611,2042,3
57667.0,2160,2650,2050,3
57668.0,2148,2673,2068,3
57669.0,2125,2663,2004,3
57670.0,2091,2583,1969,3
57671.0,2078,2487,1962,3
57672.0,2072,2417,1971,3
57673.0,2073,2381,1988,3
57674.0,2074,2408,1976,3
57675.0,2062,2489,1953,3
57676.0,2041,2542,1997,3
57677.0,2006,2625,2098,3
57678.0,2004,2681,2114,3
57679.0,2113,2593,2052,3
57680.0,2117,2517,1983,3
57681.0,2113,2492,1959,3
57682.0,2131,2480,1982,3
57683.0,2166,2486,2037,3
57684.0,2203,2511,2077,3
57685.0,2197,2505,2060,3
57686.0,2146,2467,2035,3
57687.0,2107,2461,2020,3
57688.0,2087,2486,2024,3
57689.0,2090,2504,2040,3
57690.0,2108,2550,2085,3
57691.0,2089,2612,2090,3
57692.0,2094,2618,2073,3
57693.0,2065,2597,2061,3
57694.0,2074,2604,2063,3
57695.0,2050,2623,2069,3
57696.0,2050,2732,2021,3
57697.0,2049,2777,2016,3
57698.0,2046,2669,2007,3
57699.0,2019,2613,1965,3
57700.0,2015,2578,1941,3
57701.0,2018,2557,1969,3
57702.0,2017,2512,1945,3
57703.0,2018,2478,1929,3
57704.0,2025,2463,1953,3
57705.0,2345,2297,2070,3
57706.0,2496,2345,2098,3
57707.0,2382,2497,2187,3
57708.0,2143,2646,2049,3
57709.0,2086,2670,1937,3
57710.0,2085,2534,2032,3
57711.0,2055,2478,2105,3
57712.0,2080,2516,2156,3
57713.0,2018,2512,2063,3
57714.0,2005,2517,2022,3
57715.0,1984,2491,2021,3
57716.0,1977,2504,2037,3
57717.0,1978,2528,2056,3
57718.0,1981,2552,2061,3
57719.0,1997,2578,2077,3
57720.0,2001,2583,2054,3
57721.0,2005,2591,2045,3
57722.0,2010,2620,2046,3
57723.0,1999,2617,2051,3
57724.0,1985,2566,2057,3
57725.0,2002,2499,2051,3
57726.0,1981,2452,2027,3
57727.0,1997,2481,1993,3
57728.0,1979,2530,1970,3
57729.0,1967,2557,1989,3
57730.0,1941,2561,2035,3
57731.0,1934,2557,2071,3
57732.0,1942,2571,2092,3
57733.0,1956,2558,2060,3
57734.0,1981,2505,2022,3
57735.0,2014,2473,2023,3
57736.0,2007,2481,2039,3
57737.0,2022,2488,2051,3
57738.0,2028,2520,2066,3
57739.0,2029,2550,2064,3
57740.0,2037,2568,2069,3
57741.0,2044,2563,2084,3
57742.0,2048,2557,2086,3
57743.0,2046,2555,2084,3
57744.0,2040,2549,2086,3
57745.0,2040,2545,2087,3
57746.0,2038,2530,2091,3
57747.0,2033,2535,2086,3
57748.0,2041,2558,2070,3
57749.0,2031,2584,2064,3
57750.0,2045,2598,2066,3
57751.0,2059,2601,2068,3
57752.0,2074,2609,2072,3
57753.0,2087,2600,2082,3
57754.0,2093,2579,2066,3
57755.0,2094,2531,2055,3
57756.0,2090,2484,2060,3
57757.0,2088,2453,2052,3
57758.0,2090,2444,2035,3
57759.0,2078,2484,2023,3
57760.0,2060,2536,2020,3
57761.0,2057,2543,2019,3
57762.0,2049,2560,2015,3
57763.0,2036,2574,2027,3
57764.0,2025,2568,2045,3
57765.0,2025,2562,2060,3
57766.0,2024,2538,2056,3
57767.0,2027,2531,2046,3
57768.0,2033,2520,2035,3
57769.0,2037,2515,2033,3
57770.0,2073,2499,2029,3
57771.0,2080,2517,2030,3
57772.0,2069,2557,2056,3
57773.0,2063,2587,2082,3
57774.0,2070,2592,2088,3
57775.0,2070,2575,2076,3
57776.0,2062,2547,2052,3
57777.0,2043,2530,2039,3
57778.0,2032,2532,2038,3
57779.0,2032,2540,2045,3
57780.0,2034,2551,2055,3
57781.0,2042,2558,2051,3
57782.0,2056,2566,2049,3
57783.0,2072,2548,2054,3
57784.0,2072,2537,2049,3
57785.0,2061,2529,2053,3
57786.0,2045,2538,2027,3
57787.0,2031,2516,2038,3
57788.0,2030,2525,2048,3
57789.0,2031,2527,2043,3
57790.0,2068,2489,2031,3
57791.0,2053,2507,2076,3
57792.0,2057,2530,2097,3
57793.0,2062,2527,2075,3
57794.0,2063,2563,2054,3
57795.0,2042,2583,2055,3
57796.0,1998,2584,2074,3
57797.0,1991,2536,2099,3
57798.0,2005,2530,2078,3
57799.0,2005,2543,2064,3
57800.0,2031,2547,2061,3
57801.0,2033,2549,2064,3
57802.0,2033,2545,2064,3
57803.0,2045,2549,2061,3
57804.0,2048,2536,2059,3
57805.0,2056,2525,2064,3
57806.0,2056,2537,2077,3
57807.0,2071,2537,2078,3
57808.0,2075,2521,2069,3
57809.0,2071,2513,2064,3
57810.0,2071,2508,2068,3
57811.0,2069,2515,2071,3
57812.0,2061,2550,2076,3
57813.0,2055,2554,2087,3
57814.0,2042,2573,2093,3
57815.0,2033,2567,2095,3
57816.0,2029,2555,2093,3
57817.0,2032,2533,2095,3
57818.0,2040,2535,2081,3
57819.0,2044,2544,2068,3
57820.0,2039,2556,2087,3
57821.0,2032,2552,2097,3
57822.0,2032,2538,2095,3
57823.0,2046,2534,2087,3
57824.0,2068,2554,2089,3
57825.0,2068,2551,2094,3
57826.0,2053,2559,2087,3
57827.0,2063,2560,2084,3
57828.0,2067,2560,2087,3
57829.0,2078,2548,2076,3
57830.0,2087,2501,2091,3
57831.0,2103,2479,2073,3
57832.0,2091,2490,2072,3
57833.0,2079,2546,2046,3
57834.0,2084,2563,2073,3
57835.0,2069,2566,2064,3
57836.0,2087,2531,2097,3
57837.0,2083,2553,2065,3
57838.0,2085,2556,2081,3
57839.0,2076,2559,2076,3
57840.0,2084,2545,2067,3
57841.0,2079,2531,2087,3
57842.0,2078,2541,2079,3
57843.0,2080,2544,2086,3
57844.0,2071,2546,2082,3
57845.0,2067,2554,2086,3
57846.0,2075,2537,2088,3
57847.0,2081,2528,2085,3
57848.0,2071,2539,2070,3
57849.0,2063,2547,2060,3
57850.0,2058,2554,2067,3
57851.0,2043,2565,2063,3
57852.0,2046,2530,2087,3
57853.0,2070,2539,2068,3
57854.0,2090,2543,2083,3
57855.0,2092,2552,2081,3
57856.0,2104,2549,2076,3
57857.0,2094,2534,2072,3
57858.0,2092,2552,2065,3
57859.0,2083,2547,2077,3
57860.0,2072,2548,2082,3
57861.0,2060,2615,2105,3
57862.0,2054,2567,2116,3
57863.0,2058,2549,2164,3
57864.0,2061,2527,2123,3
57865.0,2039,2494,2147,3
57866.0,2037,2482,2156,3
57867.0,2052,2504,2144,3
57868.0,2087,2593,2041,3
57869.0,2075,2477,2163,3
57870.0,2068,2530,2113,3
57871.0,2078,2551,2086,3
57872.0,2057,2534,2167,3
57873.0,2075,2608,2126,3
57874.0,2100,2574,2151,3
57875.0,2098,2517,2130,3
57876.0,2105,2498,2126,3
57877.0,2094,2586,2092,3
57878.0,2090,2563,2139,3
57879.0,2083,2535,2145,3
57880.0,2088,2528,2137,3
57881.0,2090,2503,2138,3
57882.0,2097,2516,2133,3
57883.0,2103,2524,2138,3
57884.0,2095,2541,2135,3
57885.0,2101,2539,2140,3
57886.0,2102,2549,2142,3
57887.0,2112,2556,2138,3
57888.0,2126,2550,2147,3
57889.0,2124,2531,2132,3
57890.0,2124,2505,2144,3
57891.0,2156,2506,2144,3
57892.0,2296,2465,2124,3
57893.0,2148,2683,2124,3
57894.0,2104,2537,2162,3
57895.0,2118,2523,2119,3
57896.0,2138,2507,2126,3
57897.0,2177,2478,2129,3
57898.0,2145,2500,2136,3
57899.0,2103,2585,2127,3
57900.0,2079,2555,2131,3
57901.0,2061,2516,2130,3
57902.0,2133,2410,2124,3
57903.0,2174,2566,2058,3
57904.0,2102,2649,2067,3
57905.0,2048,2695,2092,3
57906.0,2020,2666,2107,3
57907.0,2084,2570,2129,3
57908.0,2067,2569,2084,3
57909.0,2065,2552,2094,3
57910.0,2053,2497,2089,3
57911.0,2090,2434,2078,3
57912.0,2059,2468,2133,3
57913.0,1992,2634,2269,3
57914.0,1970,2473,2023,3
57915.0,1990,2438,2051,3
57916.0,2025,2400,2147,3
57917.0,2077,2524,2148,3
57918.0,2122,2622,2199,3
57919.0,2089,2624,2154,3
57920.0,2076,2529,2059,3
57921.0,2068,2475,2052,3
57922.0,2145,2459,2079,3
57923.0,2134,2585,2074,3
57924.0,2087,2595,2118,3
57925.0,2057,2544,2111,3
57926.0,1999,2566,2088,3
57927.0,2021,2560,2074,3
57928.0,2055,2552,2077,3
57929.0,2072,2533,2090,3
57930.0,2068,2584,2057,3
57931.0,2060,2541,2082,3
57932.0,2057,2535,2084,3
57933.0,2038,2574,2072,3
57934.0,2039,2568,2077,3
57935.0,2048,2539,2084,3
57936.0,2051,2549,2079,3
57937.0,2035,2560,2076,3
57938.0,2031,2567,2084,3
57939.0,2065,2511,2087,3
57940.0,2050,2495,2031,3
57941.0,2036,2551,2007,3
57942.0,2061,2545,2032,3
57943.0,2046,2586,2071,3
57944.0,2037,2621,2093,3
57945.0,2069,2614,2070,3
57946.0,2105,2533,2063,3
57947.0,2127,2496,2048,3
57948.0,2135,2432,2062,3
57949.0,2103,2461,2082,3
57950.0,2051,2492,2159,3
57951.0,2057,2546,2127,3
57952.0,2082,2513,2101,3
57953.0,2062,2523,2076,3
57954.0,2020,2523,2074,3
57955.0,2015,2522,2070,3
57956.0,2044,2578,2091,3
57957.0,2093,2593,2076,3
57958.0,2161,2541,2086,3
57959.0,2164,2546,2105,3
57960.0,2146,2494,2147,3
57961.0,2057,2492,2064,3
57962.0,2035,2466,2106,3
57963.0,2013,2593,2123,3
57964.0,2025,2662,2052,3
57965.0,2024,2607,2022,3
57966.0,2029,2455,1991,3
57967.0,2030,2395,1987,3
57968.0,2092,2560,2011,3
57969.0,2035,2651,2009,3
57970.0,2004,2518,2023,3
57971.0,2003,2518,2027,3
57972.0,2005,2534,2021,3
57973.0,1998,2433,2007,3
57974.0,2000,2511,1973,3
57975.0,1982,2549,1972,3
57976.0,1979,2451,1982,3
57977.0,2036,2423,2190,3
57978.0,2133,2549,2321,3
57979.0,2043,2613,2110,3
57980.0,2060,2535,2092,3
57981.0,2057,2518,2075,3
57982.0,2025,2535,2043,3
57983.0,1995,2553,2019,3
57984.0,1959,2587,2013,3
57985.0,1951,2568,2046,3
57986.0,1970,2614,2054,3
57987.0,2045,2702,2076,3
57988.0,2097,2459,2058,3
57989.0,2032,2533,2049,3
57990.0,2012,2385,2154,3
57991.0,1983,2487,2078,3
57992.0,1971,2573,1997,3
57993.0,2050,2580,2054,3
57994.0,2056,2514,2081,3
57995.0,2023,2491,2097,3
57996.0,1977,2479,2076,3
57997.0,1971,2604,2077,3
57998.0,1970,2600,2122,3
57999.0,2009,2523,2134,3
58000.0,1986,2577,2026,3
58001.0,1977,2498,2014,3
58002.0,1971,2461,2054,3
58003.0,1999,2549,1990,3
58004.0,2043,2525,2076,3
58005.0,1973,2586,2086,3
58006.0,1936,2485,2113,3
58007.0,1963,2476,2165,3
58008.0,2004,2558,2087,3
58009.0,2051,2575,2092,3
58010.0,1965,2551,2048,3
58011.0,1981,2568,2030,3
58012.0,2011,2520,2097,3
58013.0,1989,2650,2053,3
58014.0,2010,2503,2065,3
58015.0,2016,2494,2056,3
58016.0,2019,2603,1991,3
58017.0,2029,2560,2020,3
58018.0,2014,2532,2048,3
58019.0,2012,2531,2072,3
58020.0,2030,2520,2086,3
58021.0,2020,2635,2009,3
58022.0,2037,2495,2025,3
58023.0,2038,2499,2032,3
58024.0,2015,2552,2045,3
58025.0,2021,2575,2042,3
58026.0,2015,2563,2045,3
58027.0,2018,2507,2073,3
58028.0,2051,2499,2079,3
58029.0,2058,2538,2062,3
58030.0,2045,2558,2026,3
58031.0,2056,2538,2042,3
58032.0,2060,2559,2039,3
58033.0,2045,2576,2016,3
58034.0,2015,2589,2011,3
58035.0,1959,2578,2024,3
58036.0,1956,2533,2079,3
58037.0,2011,2467,2180,3
58038.0,2037,2596,2019,3
58039.0,2028,2527,2017,3
58040.0,2038,2507,2050,3
58041.0,2049,2507,2056,3
58042.0,2070,2475,2044,3
58043.0,1992,2475,2028,3
58044.0,1975,2510,2012,3
58045.0,1977,2563,1991,3
58046.0,1938,2593,1983,3
58047.0,1958,2559,2024,3
58048.0,2002,2537,2032,3
58049.0,1965,2526,2007,3
58050.0,1990,2527,2013,3
58051.0,1981,2518,2058,3
58052.0,1980,2545,2120,3
58053.0,2118,2540,2234,3
58054.0,2046,2621,2079,3
58055.0,2013,2500,2151,3
58056.0,1902,2476,2123,3
58057.0,1905,2449,2152,3
58058.0,1990,2447,2201,3
58059.0,1967,2507,2165,3
58060.0,1965,2502,2171,3
58061.0,1981,2545,2136,3
58062.0,1972,2570,2097,3
58063.0,2005,2536,2093,3
58064.0,1984,2551,2088,3
58065.0,2007,2558,2056,3
58066.0,2069,2519,2069,3
58067.0,2068,2551,2053,3
58068.0,2075,2546,2062,3
58069.0,2099,2548,2067,3
58070.0,2076,2550,2074,3
58071.0,2061,2539,2066,3
58072.0,2063,2542,2071,3
58073.0,2078,2543,2079,3
58074.0,2072,2549,2057,3
58075.0,2109,2546,2058,3
58076.0,2082,2527,2085,3
58077.0,2054,2529,2088,3
58078.0,2057,2531,2082,3
58079.0,2070,2530,2079,3
58080.0,2073,2533,2078,3
58081.0,2054,2537,2074,3
58082.0,2043,2537,2096,3
58083.0,2049,2546,2101,3
58084.0,2042,2555,2085,3
58085.0,2044,2543,2065,3
58086.0,2045,2535,2074,3
58087.0,2037,2530,2074,3
58088.0,2037,2536,2077,3
58089.0,2032,2536,2062,3
58090.0,2041,2529,2050,3
58091.0,2021,2531,2040,3
58092.0,2014,2531,2028,3
58093.0,2017,2521,2019,3
58094.0,2002,2518,2031,3
58095.0,1990,2516,2022,3
58096.0,2003,2511,2029,3
58097.0,1986,2527,2018,3
58098.0,1977,2538,2010,3
58099.0,2002,2538,1995,3
58100.0,2046,2551,1990,3
58101.0,2044,2569,1984,3
58102.0,2036,2570,1993,3
58103.0,2037,2572,2005,3
58104.0,2059,2581,1992,3
58105.0,2034,2568,1981,3
58106.0,2030,2553,1973,3
58107.0,2037,2549,1996,3
58108.0,2046,2557,2016,3
58109.0,2031,2591,2033,3
58110.0,2011,2593,2067,3
58111.0,2032,2582,2038,3
58112.0,2053,2564,2005,3
58113.0,2039,2539,2021,3
58114.0,2036,2525,2032,3
58115.0,2026,2510,2009,3
58116.0,2005,2497,2027,3
58117.0,2002,2529,2039,3
58118.0,2004,2531,2026,3
58119.0,2003,2559,2001,3
58120.0,2018,2573,2011,3
58121.0,2061,2583,2011,3
58122.0,2065,2545,1996,3
58123.0,2068,2567,2043,3
58124.0,2099,2561,2064,3
58125.0,2101,2544,2068,3
58126.0,2073,2512,2079,3
58127.0,2049,2492,2086,3
58128.0,2043,2494,2080,3
58129.0,2043,2493,2064,3
58130.0,2053,2517,2038,3
58131.0,2049,2529,2046,3
58132.0,2034,2520,2075,3
58133.0,2023,2549,2101,3
58134.0,2022,2555,2087,3
58135.0,2009,2576,2089,3
58136.0,2019,2546,2093,3
58137.0,2050,2521,2085,3
58138.0,2046,2502,2089,3
58139.0,2061,2519,2091,3
58140.0,2132,2509,2013,3
58141.0,2131,2509,2011,3
58142.0,2136,2517,2019,3
58143.0,2117,2526,2027,3
58144.0,2078,2543,2034,3
58145.0,2067,2553,2045,3
58146.0,2057,2537,2053,3
58147.0,2052,2540,2066,3
58148.0,2078,2559,2042,3
58149.0,2082,2543,2045,3
58150.0,2101,2551,2055,3
58151.0,2114,2561,2033,3
58152.0,2109,2559,2018,3
58153.0,2093,2563,2018,3
58154.0,2080,2558,2051,3
58155.0,2076,2571,2059,3
58156.0,2073,2594,2045,3
58157.0,2083,2578,2032,3
58158.0,2076,2538,2050,3
58159.0,2067,2522,2081,3
58160.0,2084,2565,2092,3
58161.0,2106,2612,2074,3
58162.0,2079,2617,2067,3
58163.0,2074,2611,2099,3
58164.0,2059,2593,2098,3
58165.0,2045,2501,1990,3
58166.0,1988,2467,2015,3
58167.0,2008,2516,2054,3
58168.0,2011,2487,2030,3
58169.0,1993,2452,2041,3
58170.0,1979,2497,2044,3
58171.0,1974,2546,2038,3
58172.0,1975,2534,2057,3
58173.0,2013,2508,2068,3
58174.0,2034,2481,2078,3
58175.0,2054,2480,2090,3
58176.0,2024,2536,2083,3
58177.0,1991,2569,2060,3
58178.0,1992,2557,2069,3
58179.0,2017,2577,2093,3
58180.0,2029,2293,2063,3
58181.0,2012,2484,2095,3
58182.0,2015,2641,2064,3
58183.0,2012,2604,2182,3
58184.0,2000,2502,2158,3
58185.0,1989,2553,2110,3
58186.0,1965,2578,2107,3
58187.0,1979,2537,2112,3
58188.0,2014,2541,2095,3
58189.0,2033,2554,2113,3
58190.0,2039,2567,2134,3
58191.0,2044,2567,2113,3
58192.0,2035,2560,2074,3
58193.0,2037,2535,2069,3
58194.0,2043,2536,2065,3
58195.0,2051,2541,2092,3
58196.0,2046,2533,2132,3
58197.0,2047,2546,2081,3
58198.0,2053,2568,2076,3
58199.0,2038,2538,2092,3
58200.0,2021,2527,2085,3
58201.0,2006,2546,2089,3
58202.0,2026,2539,2102,3
58203.0,2040,2514,2133,3
58204.0,2037,2553,2163,3
58205.0,2028,2575,2166,3
58206.0,2023,2559,2151,3
58207.0,2023,2524,2129,3
58208.0,2030,2511,2105,3
58209.0,2035,2504,2126,3
58210.0,2026,2452,2152,3
58211.0,2027,2506,2098,3
58212.0,2060,2516,2110,3
58213.0,2053,2466,2138,3
58214.0,2056,2502,2142,3
58215.0,2042,2547,2168,3
58216.0,2001,2544,2179,3
58217.0,1996,2510,2180,3
58218.0,1995,2505,2171,3
58219.0,2003,2492,2161,3
58220.0,2017,2470,2151,3
58221.0,2020,2491,2131,3
58222.0,2042,2413,2181,3
58223.0,2036,2500,2111,3
58224.0,2043,2601,2072,3
58225.0,2061,2597,2069,3
58226.0,2079,2540,2086,3
58227.0,2096,2547,2091,3
58228.0,2107,2558,2079,3
58229.0,2112,2571,2049,3
58230.0,2128,2601,2029,3
58231.0,2123,2571,2040,3
58232.0,2127,2496,2044,3
58233.0,2110,2503,2055,3
58234.0,2095,2534,2071,3
58235.0,2113,2590,2071,3
58236.0,2103,2584,2079,3
58237.0,2059,2554,2058,3
58238.0,2039,2547,2047,3
58239.0,2040,2573,2044,3
58240.0,2028,2552,2057,3
58241.0,2046,2550,2059,3
58242.0,2054,2573,2053,3
58243.0,2047,2591,2040,3
58244.0,2062,2577,2056,3
58245.0,2054,2566,2052,3
58246.0,2058,2537,2056,3
58247.0,2068,2567,2042,3
58248.0,2070,2572,2040,3
58249.0,2084,2535,2069,3
58250.0,2101,2503,2082,3
58251.0,2101,2525,2045,3
58252.0,2107,2525,2038,3
58253.0,2127,2524,2045,3
58254.0,2137,2502,2083,3
58255.0,2157,2501,2094,3
58256.0,2155,2538,2084,3
58257.0,2139,2557,2062,3
58258.0,2160,2491,2067,3
58259.0,2151,2529,2074,3
58260.0,2143,2563,2077,3
58261.0,2153,2563,2073,3
58262.0,2142,2530,2078,3
58263.0,2145,2499,2106,3
58264.0,2159,2475,2110,3
58265.0,2157,2507,2102,3
58266.0,2144,2566,2092,3
58267.0,2130,2589,2027,3
58268.0,2139,2637,2037,3
58269.0,2147,2551,2085,3
58270.0,2150,2488,2110,3
58271.0,2119,2487,2124,3
58272.0,2096,2512,2102,3
58273.0,2084,2513,2095,3
58274.0,2045,2562,2055,3
58275.0,2051,2533,2073,3
58276.0,2046,2527,2106,3
58277.0,2037,2571,2067,3
58278.0,2019,2586,2136,3
58279.0,2018,2560,2163,3
58280.0,2000,2628,2131,3
58281.0,1997,2655,2100,3
58282.0,1995,2633,2100,3
58283.0,2005,2605,2141,3
58284.0,2031,2545,2175,3
58285.0,2044,2530,2153,3
58286.0,2041,2489,2113,3
58287.0,2051,2466,2084,3
58288.0,2055,2459,2058,3
58289.0,2049,2481,2043,3
58290.0,2038,2481,2058,3
58291.0,2008,2499,2066,3
58292.0,1973,2533,2087,3
58293.0,1952,2561,2111,3
58294.0,1955,2594,2132,3
58295.0,1977,2578,2130,3
58296.0,1987,2561,2143,3
58297.0,2007,2550,2167,3
58298.0,2022,2546,2151,3
58299.0,2034,2516,2107,3
58300.0,2052,2492,2055,3
58301.0,2061,2446,2026,3
58302.0,2021,2441,2094,3
58303.0,1983,2491,2186,3
58304.0,1979,2565,2266,3
58305.0,2081,2572,2247,3
58306.0,2060,2573,2151,3
58307.0,2037,2531,2124,3
58308.0,2071,2541,2167,3
58309.0,2039,2554,2214,3
58310.0,2019,2519,2170,3
58311.0,2018,2519,2167,3
58312.0,2008,2517,2165,3
58313.0,1998,2503,2188,3
58314.0,2026,2483,2202,3
58315.0,2042,2463,2168,3
58316.0,2060,2507,2128,3
58317.0,2060,2491,2157,3
58318.0,2040,2503,2184,3
58319.0,2028,2518,2207,3
58320.0,2023,2539,2200,3
58321.0,2014,2530,2186,3
58322.0,2036,2513,2198,3
58323.0,2043,2505,2163,3
58324.0,2037,2553,2172,3
58325.0,2031,2557,2174,3
58326.0,2026,2536,2182,3
58327.0,2038,2523,2199,3
58328.0,2049,2535,2191,3
58329.0,2029,2580,2177,3
58330.0,2015,2591,2162,3
58331.0,2025,2609,2167,3
58332.0,2040,2647,2165,3
58333.0,2066,2615,2163,3
58334.0,2078,2589,2139,3
58335.0,2108,2542,2117,3
58336.0,2128,2529,2091,3
58337.0,2115,2518,2046,3
58338.0,2102,2483,2040,3
58339.0,2108,2451,2044,3
58340.0,2113,2458,2040,3
58341.0,2119,2508,2021,3
58342.0,2076,2573,2031,3
58343.0,2048,2576,2096,3
58344.0,2053,2559,2132,3
58345.0,2060,2538,2127,3
58346.0,2062,2547,2097,3
58347.0,2075,2520,2106,3
58348.0,2073,2489,2121,3
58349.0,2083,2469,2139,3
58350.0,2105,2450,2165,3
58351.0,2085,2551,2128,3
58352.0,2091,2601,2087,3
58353.0,2112,2555,2130,3
58354.0,2118,2549,2171,3
58355.0,2105,2549,2160,3
58356.0,2102,2526,2165,3
58357.0,2113,2490,2158,3
58358.0,2127,2470,2168,3
58359.0,2143,2446,2177,3
58360.0,2107,2459,2156,3
58361.0,2103,2467,2147,3
58362.0,2114,2497,2138,3
58363.0,2127,2531,2137,3
58364.0,2130,2617,2116,3
58365.0,2075,2695,2095,3
58366.0,2026,2663,2084,3
58367.0,1989,2691,2076,3
58368.0,2009,2685,2033,3
58369.0,1976,2631,2009,3
58370.0,2001,2547,2004,3
58371.0,2017,2449,2007,3
58372.0,2023,2401,1964,3
58373.0,2014,2418,1961,3
58374.0,2010,2442,1938,3
58375.0,1908,2494,2041,3
58376.0,1967,2519,1963,3
58377.0,1948,2605,1966,3
58378.0,1970,2683,1951,3
58379.0,2009,2673,1990,3
58380.0,2160,2600,2153,3
58381.0,2124,2548,2084,3
58382.0,2032,2500,2002,3
58383.0,2023,2435,1976,3
58384.0,2037,2421,1982,3
58385.0,2053,2482,1990,3
58386.0,2069,2534,1997,3
58387.0,2078,2579,1978,3
58388.0,2098,2585,1998,3
58389.0,2159,2574,2134,3
58390.0,2167,2581,2228,3
58391.0,2123,2580,2125,3
58392.0,2038,2582,2049,3
58393.0,1987,2633,2010,3
58394.0,1978,2717,1954,3
58395.0,1978,2770,1920,3
58396.0,1973,2673,2012,3
58397.0,2070,2540,2023,3
58398.0,2091,2489,2009,3
58399.0,2100,2448,1998,3
58400.0,2109,2435,1978,3
58401.0,2098,2419,1968,3
58402.0,2117,2421,1968,3
58403.0,2115,2457,1997,3
58404.0,2139,2543,2022,3
58405.0,2122,2659,2057,3
58406.0,2037,2641,2061,3
58407.0,2020,2564,2082,3
58408.0,1999,2526,2089,3
58409.0,1978,2498,2075,3
58410.0,1977,2487,2032,3
58411.0,1993,2479,2000,3
58412.0,1985,2481,2006,3
58413.0,1976,2487,2006,3
58414.0,1975,2519,2003,3
58415.0,1962,2576,2004,3
58416.0,1981,2605,2008,3
58417.0,2053,2591,2010,3
58418.0,2062,2588,1975,3
58419.0,2057,2632,1935,3
58420.0,2053,2651,1923,3
58421.0,2044,2590,1929,3
58422.0,2028,2556,1896,3
58423.0,2010,2551,1907,3
58424.0,1984,2555,1929,3
58425.0,1962,2546,1974,3
58426.0,1978,2525,1969,3
58427.0,1992,2517,1951,3
58428.0,2001,2525,1945,3
58429.0,2005,2540,1955,3
58430.0,2038,2521,1986,3
58431.0,2078,2485,2051,3
58432.0,2084,2454,2039,3
58433.0,2085,2426,2026,3
58434.0,2074,2402,2013,3
58435.0,2075,2396,2003,3
58436.0,2093,2412,2037,3
58437.0,2106,2457,2030,3
58438.0,2108,2523,2015,3
58439.0,2123,2598,1987,3
58440.0,2133,2666,1982,3
58441.0,2126,2633,2009,3
58442.0,2094,2553,2002,3
58443.0,2087,2541,1983,3
58444.0,2089,2569,1952,3
58445.0,2057,2626,1960,3
58446.0,2006,2689,2002,3
58447.0,1987,2716,2017,3
58448.0,1993,2691,2003,3
58449.0,2023,2627,2046,3
58450.0,2082,2586,2075,3
58451.0,2084,2531,2074,3
58452.0,2067,2474,2051,3
58453.0,2059,2434,2008,3
58454.0,2063,2385,1991,3
58455.0,2055,2354,1999,3
58456.0,2044,2350,2004,3
58457.0,2030,2373,2013,3
58458.0,2006,2423,2016,3
58459.0,1985,2484,2008,3
58460.0,1974,2552,1995,3
58461.0,1972,2631,1975,3
58462.0,1987,2709,1979,3
58463.0,2047,2725,1986,3
58464.0,2075,2650,1969,3
58465.0,2062,2605,1937,3
58466.0,2063,2591,1923,3
58467.0,2077,2582,1960,3
58468.0,2083,2550,2008,3
58469.0,2063,2528,2025,3
58470.0,2036,2520,2013,3
58471.0,2043,2509,2002,3
58472.0,2054,2498,1985,3
58473.0,2067,2506,1994,3
58474.0,2091,2532,2034,3
58475.0,2103,2543,2048,3
58476.0,2111,2547,2041,3
58477.0,2102,2550,2008,3
58478.0,2103,2557,2008,3
58479.0,2113,2555,2024,3
58480.0,2046,2515,2038,3
58481.0,2044,2516,2040,3
58482.0,2038,2520,2041,3
58483.0,2017,2514,2041,3
58484.0,2008,2511,2027,3
58485.0,2003,2529,2025,3
58486.0,1986,2554,2033,3
58487.0,2010,2571,2039,3
58488.0,2026,2551,2035,3
58489.0,2024,2530,2034,3
76000.0,2021,2445,2112,3
76001.0,2017,2491,2128,3
76002.0,2005,2505,2149,3
76003.0,2000,2483,2144,3
76004.0,1984,2437,2133,3
76005.0,1989,2423,2127,3
76006.0,1977,2446,2136,3
76007.0,1985,2491,2140,3
76008.0,1990,2575,2159,3
76009.0,2011,2631,2124,3
76010.0,2078,2617,1895,3
76011.0,2122,2560,1843,3
76012.0,2091,2527,1977,3
76013.0,2061,2470,2096,3
76014.0,2055,2412,2113,3
76015.0,2058,2421,2110,3
76016.0,2094,2479,2024,3
76017.0,2117,2517,1954,3
76018.0,2139,2522,1920,3
76019.0,2145,2520,1944,3
76020.0,2146,2539,1968,3
76021.0,2136,2551,1993,3
76022.0,2023,2564,1985,3
76023.0,1993,2576,1964,3
76024.0,1981,2671,1971,3
76025.0,1993,2808,2007,3
76026.0,1994,2803,2000,3
76027.0,2078,2603,2055,3
76028.0,2076,2509,2120,3
76029.0,2081,2568,2168,3
76030.0,2093,2662,2197,3
76031.0,2108,2647,2194,3
76032.0,2107,2531,2153,3
76033.0,2139,2482,2087,3
76034.0,2257,2532,1856,3
76035.0,2139,2601,1930,3
76036.0,2058,2507,2010,3
76037.0,2079,2445,2030,3
76038.0,2081,2418,2057,3
76039.0,2074,2377,2078,3
76040.0,2048,2325,2088,3
76041.0,2021,2369,2092,3
76042.0,2025,2388,2102,3
76043.0,1985,2519,2001,3
76044.0,1953,2562,1935,3
76045.0,1939,2529,1913,3
76046.0,2036,2505,1919,3
76047.0,2022,2548,1962,3
76048.0,2049,2535,1973,3
76049.0,2064,2588,1953,3
76050.0,2075,2623,1947,3
76051.0,2085,2659,1940,3
76052.0,2104,2737,1960,3
76053.0,2148,2838,1915,3
76054.0,2098,2734,1994,3
76055.0,2058,2628,2069,3
76056.0,2052,2579,2109,3
76057.0,2034,2524,2123,3
76058.0,2009,2494,2148,3
76059.0,1995,2487,2140,3
76060.0,1984,2518,2157,3
76061.0,1995,2513,2136,3
76062.0,2017,2543,1953,3
76063.0,2132,2563,1882,3
76064.0,2131,2518,1969,3
76065.0,2146,2450,2059,3
76066.0,2125,2403,2112,3
76067.0,2126,2365,2106,3
76068.0,2077,2373,2061,3
76069.0,2064,2411,2041,3
76070.0,2053,2422,2020,3
76071.0,2062,2481,2006,3
76072.0,2089,2547,1960,3
76073.0,2102,2574,1902,3
76074.0,2115,2553,1880,3
76075.0,2098,2543,1940,3
76076.0,2106,2571,1988,3
76077.0,2125,2606,1962,3
76078.0,2117,2620,1922,3
76079.0,2114,2608,1883,3
76080.0,2015,2721,1914,3
76081.0,2038,2811,1937,3
76082.0,2020,2779,1965,3
76083.0,2042,2628,2027,3
76084.0,2057,2478,2088,3
76085.0,2077,2467,2117,3
76086.0,2086,2524,2131,3
76087.0,2102,2558,2155,3
76088.0,2100,2495,2152,3
76089.0,2100,2465,2139,3
76090.0,2104,2459,2128,3
76091.0,2228,2512,1877,3
76092.0,2102,2669,1831,3
76093.0,1996,2578,1955,3
76094.0,2039,2501,2068,3
76095.0,2029,2434,2092,3
76096.0,2033,2409,2076,3
76097.0,2021,2394,2033,3
76098.0,2003,2391,1998,3
76099.0,2001,2417,1992,3
76100.0,2008,2441,2015,3
76101.0,2017,2438,2009,3
76102.0,2052,2460,1979,3
76103.0,2064,2497,1941,3
76104.0,2091,2555,1897,3
76105.0,2099,2639,1915,3
76106.0,2104,2699,1949,3
76107.0,2118,2702,1945,3
76108.0,2125,2681,1951,3
76109.0,2113,2720,1979,3
76110.0,2078,2751,1926,3
76111.0,2032,2659,1975,3
76112.0,2023,2602,2087,3
76113.0,2029,2525,2147,3
76114.0,2012,2536,2151,3
76115.0,2000,2564,2149,3
76116.0,1982,2566,2135,3
76117.0,1961,2542,2110,3
76118.0,1938,2495,2063,3
76119.0,1933,2479,2038,3
76120.0,1979,2475,2052,3
76121.0,2052,2474,2029,3
76122.0,2063,2468,2055,3
76123.0,2069,2446,2095,3
76124.0,2082,2425,2102,3
76125.0,2091,2416,2092,3
76126.0,2119,2433,2032,3
76127.0,2149,2461,1982,3
76128.0,2141,2502,1958,3
76129.0,2061,2516,1971,3
76130.0,2029,2533,1978,3
76131.0,2013,2537,1973,3
76132.0,2021,2534,1964,3
76133.0,2073,2548,1949,3
76134.0,2105,2581,1942,3
76135.0,2091,2592,1939,3
76136.0,2045,2618,1939,3
76137.0,2002,2659,1922,3
76138.0,1998,2760,1933,3
76139.0,2011,2850,1951,3
76140.0,2019,2747,2006,3
76141.0,2050,2607,2108,3
76142.0,2067,2523,2151,3
76143.0,2082,2531,2166,3
76144.0,2092,2545,2169,3
76145.0,2096,2527,2161,3
76146.0,2093,2481,2150,3
76147.0,2082,2475,2138,3
76148.0,2075,2484,2134,3
76149.0,2071,2499,2139,3
76150.0,2032,2641,1718,3
76151.0,2037,2520,1837,3
76152.0,2042,2423,2015,3
76153.0,2049,2365,2093,3
76154.0,2054,2316,2096,3
76155.0,2053,2306,2102,3
76156.0,2043,2336,2103,3
76157.0,2031,2416,2113,3
76158.0,1985,2546,1955,3
76159.0,1954,2623,1867,3
76160.0,2095,2626,1994,3
76161.0,2098,2626,1994,3
76162.0,2096,2628,1971,3
76163.0,2093,2614,1945,3
76164.0,2091,2587,1966,3
76165.0,2090,2663,2012,3
76166.0,2046,2705,2018,3
76167.0,2015,2703,2004,3
76168.0,2002,2676,2098,3
76169.0,2012,2618,2163,3
76170.0,2001,2548,2141,3
76171.0,1993,2507,2133,3
76172.0,1983,2500,2139,3
76173.0,1977,2488,2138,3
76174.0,1982,2486,2138,3
76175.0,1955,2488,2097,3
76176.0,1979,2552,2004,3
76177.0,2073,2567,1952,3
76178.0,2068,2519,2038,3
76179.0,2056,2471,2107,3
76180.0,2064,2440,2111,3
76181.0,2070,2404,2102,3
76182.0,2085,2375,2090,3
76183.0,2099,2381,2069,3
76184.0,2120,2444,2046,3
76185.0,2155,2524,1971,3
76186.0,2161,2547,1956,3
76187.0,2123,2540,1993,3
76188.0,2058,2601,1982,3
76189.0,2052,2645,1959,3
76190.0,2031,2664,1934,3
76191.0,2011,2662,1936,3
76192.0,1999,2672,1947,3
76193.0,1989,2734,1983,3
76194.0,1987,2776,1951,3
76195.0,1994,2715,1982,3
76196.0,2023,2608,2069,3
76197.0,2051,2521,2124,3
76198.0,2071,2475,2128,3
76199.0,2085,2468,2139,3
76200.0,2086,2473,2142,3
76201.0,2096,2478,2142,3
76202.0,2100,2485,2143,3
76203.0,2097,2499,2139,3
76204.0,2105,2540,2079,3
76205.0,2104,2624,1742,3
76206.0,2031,2516,1939,3
76207.0,2044,2460,2053,3
76208.0,2050,2428,2087,3
76209.0,2049,2398,2092,3
76210.0,2029,2395,2071,3
76211.0,2003,2451,1978,3
76212.0,1981,2528,1955,3
76213.0,1990,2545,1968,3
76214.0,2054,2508,1985,3
76215.0,2058,2488,1987,3
76216.0,2047,2477,1991,3
76217.0,2039,2502,1995,3
76218.0,2042,2533,1990,3
76219.0,2056,2554,1973,3
76220.0,2093,2587,1974,3
76221.0,2114,2643,1973,3
76222.0,2134,2741,1959,3
76223.0,2115,2731,1910,3
76224.0,2032,2670,1985,3
76225.0,2023,2623,2062,3
76226.0,2003,2596,2062,3
76227.0,1999,2549,2063,3
76228.0,1980,2507,2079,3
76229.0,1978,2444,2079,3
76230.0,1971,2445,2087,3
76231.0,1971,2465,2101,3
76232.0,1965,2493,2100,3
76233.0,1962,2519,2094,3
76234.0,1948,2585,2014,3
76235.0,2028,2556,2018,3
76236.0,2038,2528,2062,3
76237.0,2045,2518,2085,3
76238.0,2052,2515,2091,3
76239.0,2069,2515,2083,3
76240.0,2085,2532,2053,3
76241.0,2112,2539,2017,3
76242.0,2124,2547,2011,3
76243.0,2132,2556,2016,3
76244.0,2100,2546,2029,3
76245.0,2054,2539,2033,3
76246.0,2032,2565,2034,3
76247.0,2017,2575,2038,3
76248.0,2006,2562,2030,3
76249.0,2003,2558,2022,3
76250.0,1998,2573,2024,3
76251.0,1994,2588,2020,3
76252.0,2000,2565,2025,3
76253.0,2047,2506,2068,3
76254.0,2048,2465,2119,3
76255.0,2057,2497,2133,3
76256.0,2074,2570,2159,3
76257.0,2082,2618,2166,3
76258.0,2112,2643,2088,3
76259.0,2128,2638,2005,3
76260.0,2119,2645,1928,3
76261.0,2083,2597,1993,3
76262.0,2042,2530,2038,3
76263.0,2026,2507,2037,3
76264.0,2013,2477,2038,3
76265.0,2017,2448,2059,3
76266.0,2016,2430,2067,3
76267.0,2018,2429,2073,3
76268.0,2018,2475,2061,3
76269.0,2019,2526,2058,3
76270.0,2037,2551,2057,3
76271.0,2050,2583,2058,3
76272.0,2063,2598,2051,3
76273.0,2074,2575,2033,3
76274.0,2071,2561,2034,3
76275.0,2077,2557,2039,3
76276.0,2080,2547,2029,3
76277.0,2089,2537,2024,3
76278.0,2085,2547,2025,3
76279.0,2082,2548,2029,3
76280.0,2071,2561,2020,3
76281.0,2049,2554,2025,3
76282.0,2035,2539,2023,3
76283.0,2029,2510,2037,3
76284.0,2025,2495,2040,3
76285.0,2023,2487,2058,3
76286.0,2018,2494,2058,3
76287.0,2004,2507,2052,3
76288.0,2000,2523,2051,3
76289.0,1990,2525,2049,3
76290.0,1997,2541,2057,3
76291.0,1994,2547,2058,3
76292.0,2014,2542,2066,3
76293.0,2021,2546,2069,3
76294.0,2004,2568,2060,3
76295.0,2003,2569,2043,3
76296.0,2000,2572,2038,3
76297.0,2000,2569,2032,3
76298.0,1997,2570,2037,3
76299.0,2003,2557,2036,3
76300.0,2013,2549,2041,3
76301.0,2014,2535,2045,3
76302.0,2021,2517,2048,3
76303.0,2025,2524,2047,3
76304.0,2029,2530,2046,3
76305.0,2031,2530,2041,3
76306.0,2029,2544,2031,3
76307.0,2015,2543,2026,3
76308.0,2007,2541,2021,3
76309.0,2008,2537,2022,3
76310.0,2000,2531,2029,3
76311.0,2004,2523,2019,3
76312.0,2009,2526,2023,3
76313.0,2023,2526,2016,3
76314.0,2019,2520,2011,3
76315.0,2018,2517,2006,3
76316.0,2019,2512,2006,3
76317.0,2006,2510,2001,3
76318.0,2000,2524,2013,3
76319.0,2006,2562,2034,3
76320.0,2005,2594,2028,3
76321.0,1998,2621,2043,3
76322.0,2037,2639,2046,3
76323.0,2072,2597,2047,3
76324.0,2080,2539,2060,3
76325.0,2093,2511,2073,3
76326.0,2105,2506,2087,3
76327.0,2105,2510,2108,3
76328.0,2111,2518,2111,3
76329.0,2123,2564,2096,3
76330.0,2077,2538,2032,3
76331.0,2079,2538,2031,3
76332.0,2058,2528,2045,3
76333.0,2063,2515,2063,3
76334.0,2047,2510,2062,3
76335.0,2036,2488,2055,3
76336.0,2039,2474,2043,3
76337.0,2038,2501,2041,3
76338.0,2035,2543,2032,3
76339.0,2029,2564,2027,3
76340.0,2051,2550,2022,3
76341.0,2055,2536,2018,3
76342.0,2061,2532,2013,3
76343.0,2062,2534,2017,3
76344.0,2065,2519,2009,3
76345.0,2074,2520,2012,3
76346.0,2077,2528,2013,3
76347.0,2095,2537,2016,3
76348.0,2100,2545,2009,3
76349.0,2110,2572,2000,3
76350.0,2122,2583,1979,3
76351.0,2118,2590,1969,3
76352.0,2079,2603,1983,3
76353.0,2072,2601,1991,3
76354.0,2071,2566,2004,3
76355.0,2095,2567,2020,3
76356.0,2104,2609,2037,3
76357.0,2076,2651,2069,3
76358.0,2041,2633,2082,3
76359.0,2027,2564,2090,3
76360.0,2022,2490,2105,3
76361.0,2026,2464,2134,3
76362.0,2019,2482,2139,3
76363.0,2010,2512,2145,3
76364.0,2003,2531,2145,3
76365.0,2006,2572,2152,3
76366.0,2007,2609,2166,3
76367.0,2006,2610,2100,3
76368.0,2071,2595,1930,3
76369.0,2071,2561,1931,3
76370.0,2089,2508,2013,3
76371.0,2082,2457,2070,3
76372.0,2078,2413,2090,3
76373.0,2083,2401,2102,3
76374.0,2088,2431,2101,3
76375.0,2104,2485,2028,3
76376.0,2107,2526,1975,3
76377.0,2046,2532,1968,3
76378.0,2037,2521,2002,3
76379.0,2037,2509,2017,3
76380.0,2053,2504,2004,3
76381.0,2065,2500,1997,3
76382.0,2051,2498,2001,3
76383.0,2045,2493,1999,3
76384.0,2041,2487,2002,3
76385.0,2037,2487,1992,3
76386.0,2030,2490,1982,3
76387.0,2037,2488,1976,3
76388.0,2030,2478,1981,3
76389.0,2028,2474,1993,3
76390.0,2019,2470,1984,3
76391.0,2016,2489,1970,3
76392.0,2005,2486,1959,3
76393.0,2018,2558,1997,3
76394.0,2013,2641,1966,3
76395.0,2029,2733,1914,3
76396.0,2113,2773,2027,3
76397.0,2129,2711,2094,3
76398.0,2219,2718,1997,3
76399.0,2255,2742,1900,3
76400.0,2190,2714,1957,3
76401.0,2178,2616,1976,3
76402.0,2160,2563,2002,3
76403.0,2080,2516,2027,3
76404.0,2051,2470,2023,3
76405.0,2039,2431,2010,3
76406.0,2021,2392,2011,3
76407.0,2026,2359,2028,3
76408.0,2029,2343,2041,3
76409.0,2020,2355,2040,3
76410.0,2011,2419,2055,3
76411.0,2006,2482,2085,3
76412.0,1992,2539,2060,3
76413.0,1960,2569,2018,3
76414.0,1970,2649,1982,3
76415.0,2085,2676,1969,3
76416.0,2101,2714,1982,3
76417.0,2096,2730,1962,3
76418.0,2057,2626,2018,3
76419.0,2004,2579,2040,3
76420.0,1975,2581,2033,3
76421.0,1952,2571,2045,3
76422.0,1975,2537,2068,3
76423.0,1962,2520,2085,3
76424.0,1955,2553,2064,3
76425.0,2002,2579,2042,3
76426.0,2044,2541,2032,3
76427.0,2062,2498,2039,3
76428.0,2071,2475,2042,3
76429.0,2079,2456,2053,3
76430.0,2088,2429,2053,3
76431.0,2096,2413,2043,3
76432.0,2103,2427,2028,3
76433.0,2102,2479,2015,3
76434.0,2052,2524,2004,3
76435.0,2035,2567,2014,3
76436.0,2024,2598,2010,3
76437.0,2017,2605,1995,3
76438.0,2011,2607,1985,3
76439.0,2013,2595,1995,3
76440.0,2011,2575,2004,3
76441.0,2005,2567,2003,3
76442.0,1987,2570,2001,3
76443.0,1981,2590,2026,3
76444.0,1986,2593,2023,3
76445.0,2008,2573,2026,3
76446.0,2051,2533,2050,3
76447.0,2064,2496,2098,3
76448.0,2085,2522,2113,3
76449.0,2090,2564,2119,3
76450.0,2102,2555,2102,3
76451.0,2085,2541,2068,3
76452.0,2044,2572,2013,3
76453.0,2032,2618,1962,3
76454.0,2036,2585,1964,3
76455.0,2041,2538,2011,3
76456.0,2034,2499,2049,3
76457.0,2042,2467,2056,3
76458.0,2051,2449,2055,3
76459.0,2049,2445,2050,3
76460.0,2071,2490,2050,3
76461.0,2082,2533,2049,3
76462.0,2097,2556,2035,3
76463.0,2094,2560,2023,3
76464.0,2107,2565,2015,3
76465.0,2110,2561,2008,3
76466.0,2113,2548,2009,3
76467.0,2099,2536,2021,3
76468.0,2099,2522,2031,3
76469.0,2104,2523,2037,3
76470.0,2110,2514,2031,3
76471.0,2123,2533,2019,3
76472.0,2118,2545,2012,3
76473.0,2113,2572,2016,3
76474.0,2097,2578,2014,3
76475.0,2085,2568,1988,3
76476.0,2053,2623,2005,3
76477.0,2042,2646,2026,3
76478.0,2021,2639,2018,3
76479.0,2013,2594,1995,3
76480.0,2006,2548,2010,3
76481.0,2013,2506,2031,3
76482.0,2008,2459,2056,3
76483.0,2017,2432,2061,3
76484.0,2019,2416,2069,3
76485.0,2021,2442,2073,3
76486.0,2009,2469,2075,3
76487.0,2000,2520,2057,3
76488.0,2006,2561,2032,3
76489.0,2027,2599,1996,3
76490.0,2021,2599,1962,3
76491.0,2021,2568,1969,3
76492.0,2027,2530,1988,3
76493.0,2003,2496,1977,3
76494.0,1986,2472,1986,3
76495.0,1994,2469,2005,3
76496.0,1999,2482,2011,3
76497.0,1992,2489,2009,3
76498.0,2052,2498,2008,3
76499.0,2051,2515,2011,3
76500.0,2071,2552,1973,3
76501.0,2066,2553,1975,3
76502.0,2063,2553,1977,3
76503.0,2025,2571,1984,3
76504.0,2003,2594,1992,3
76505.0,1999,2628,1989,3
76506.0,1982,2697,1989,3
76507.0,1964,2758,1991,3
76508.0,1958,2714,1994,3
76509.0,1985,2623,2086,3
76510.0,2031,2566,2155,3
76511.0,2050,2580,2168,3
76512.0,2075,2599,2141,3
76513.0,2085,2555,2125,3
76514.0,2086,2488,2143,3
76515.0,2092,2459,2137,3
76516.0,2094,2477,2137,3
76517.0,2127,2559,2048,3
76518.0,2103,2584,1930,3
76519.0,2067,2520,1963,3
76520.0,2042,2464,2044,3
76521.0,2055,2443,2080,3
76522.0,2054,2422,2082,3
76523.0,2040,2408,2061,3
76524.0,2030,2421,2035,3
76525.0,2042,2458,2027,3
76526.0,2055,2507,2032,3
76527.0,2079,2543,2015,3
76528.0,2085,2540,1971,3
76529.0,2077,2534,1942,3
76530.0,2052,2542,1957,3
76531.0,2031,2537,1961,3
76532.0,2020,2536,1980,3
76533.0,2014,2523,1997,3
76534.0,2018,2529,2001,3
76535.0,2035,2546,2003,3
76536.0,2079,2614,1986,3
76537.0,2083,2747,1964,3
76538.0,2040,2771,1938,3
76539.0,2003,2689,2049,3
76540.0,2018,2610,2144,3
76541.0,2007,2552,2149,3
76542.0,1987,2533,2130,3
76543.0,1980,2509,2125,3
76544.0,1968,2485,2114,3
76545.0,1966,2477,2111,3
76546.0,1961,2478,2090,3
76547.0,1958,2500,2066,3
76548.0,2030,2516,2015,3
76549.0,2064,2542,2017,3
76550.0,2051,2528,2058,3
76551.0,2067,2502,2064,3
76552.0,2091,2489,2037,3
76553.0,2094,2478,2014,3
76554.0,2105,2477,2027,3
76555.0,2097,2490,2036,3
76556.0,2109,2523,2036,3
76557.0,2118,2539,2036,3
76558.0,2127,2555,2018,3
76559.0,2133,2588,2015,3
76560.0,2141,2606,1993,3
76561.0,2101,2552,1977,3
76562.0,2033,2533,1974,3
76563.0,2006,2531,2011,3
76564.0,2035,2578,2048,3
76565.0,2024,2644,2060,3
76566.0,2017,2629,2031,3
76567.0,2030,2563,2062,3
76568.0,2083,2557,2093,3
76569.0,2115,2641,2094,3
76570.0,2145,2687,2075,3
76571.0,2145,2599,2034,3
76572.0,2189,2539,1961,3
76573.0,2160,2551,2037,3
76574.0,2129,2550,2041,3
76575.0,2081,2515,2007,3
76576.0,2057,2465,2020,3
76577.0,2066,2438,2048,3
76578.0,2070,2407,2067,3
76579.0,2069,2385,2058,3
76580.0,2045,2420,2034,3
76581.0,2051,2468,2022,3
76582.0,2053,2491,2004,3
76583.0,2060,2495,1984,3
76584.0,2055,2508,1984,3
76585.0,2045,2515,1978,3
76586.0,2040,2515,1966,3
76587.0,2042,2529,1957,3
76588.0,2045,2554,1975,3
76589.0,2045,2578,1976,3
76590.0,2050,2583,1979,3
76591.0,2055,2619,1971,3
76592.0,2046,2745,1990,3
76593.0,2024,2729,1964,3
76594.0,2015,2645,2021,3
76595.0,2028,2593,2118,3
76596.0,2029,2555,2136,3
76597.0,2004,2527,2114,3
76598.0,1997,2523,2129,3
76599.0,1987,2541,2128,3
76600.0,1984,2553,2135,3
76601.0,1953,2553,2105,3
76602.0,1917,2563,1988,3
76603.0,1988,2568,1990,3
76604.0,2048,2526,2036,3
76605.0,2052,2501,2066,3
76606.0,2066,2467,2065,3
76607.0,2072,2437,2062,3
76608.0,2077,2418,2054,3
76609.0,2094,2415,2035,3
76610.0,2102,2447,2020,3
76611.0,2115,2492,1999,3
76612.0,2111,2501,1982,3
76613.0,2067,2489,1970,3
76614.0,2068,2503,1984,3
76615.0,2085,2524,1960,3
76616.0,2120,2583,1936,3
76617.0,2133,2659,1901,3
76618.0,2106,2671,1898,3
76619.0,2034,2660,1905,3
76620.0,2011,2627,1910,3
76621.0,2002,2664,1922,3
76622.0,2033,2683,1914,3
76623.0,2076,2656,1935,3
76624.0,2097,2627,2007,3
76625.0,2103,2554,2064,3
76626.0,2105,2515,2095,3
76627.0,2098,2517,2126,3
76628.0,2114,2530,2145,3
76629.0,2119,2521,2150,3
76630.0,2115,2503,2135,3
76631.0,2136,2470,2065,3
76632.0,2158,2501,1987,3
76633.0,2087,2520,1989,3
76634.0,2049,2491,2043,3
76635.0,2044,2470,2060,3
76636.0,2036,2449,2056,3
76637.0,2032,2430,2061,3
76638.0,2015,2425,2037,3
76639.0,2007,2421,2017,3
76640.0,1987,2437,1999,3
76641.0,1985,2482,1993,3
76642.0,1991,2518,1996,3
76643.0,2030,2545,1998,3
76644.0,2036,2587,1994,3
76645.0,2054,2596,1990,3
76646.0,2059,2594,1978,3
76647.0,2066,2610,1987,3
76648.0,2070,2610,1982,3
76649.0,2061,2621,1978,3
76650.0,2070,2578,1969,3
76651.0,2074,2611,1980,3
76652.0,2021,2704,2005,3
76653.0,2026,2700,2005,3
76654.0,2016,2619,2051,3
76655.0,2016,2560,2115,3
76656.0,2010,2532,2118,3
76657.0,1997,2536,2123,3
76658.0,2001,2526,2134,3
76659.0,1996,2499,2131,3
76660.0,1997,2497,2130,3
76661.0,1988,2499,2118,3
76662.0,1955,2519,1999,3
76663.0,2041,2526,1930,3
76664.0,2044,2515,2022,3
76665.0,2041,2487,2091,3
76666.0,2049,2459,2106,3
76667.0,2061,2418,2076,3
76668.0,2071,2400,2061,3
76669.0,2092,2401,2035,3
76670.0,2109,2615,1920,3
76671.0,2110,2620,1919,3
76672.0,2113,2606,1912,3
76673.0,2116,2549,1947,3
76674.0,2113,2526,1983,3
76675.0,2129,2531,1972,3
76676.0,2130,2570,1920,3
76677.0,2031,2603,1903,3
76678.0,1996,2619,1899,3
76679.0,1988,2652,1935,3
76680.0,2001,2705,1972,3
76681.0,2073,2726,1966,3
76682.0,2078,2668,2041,3
76683.0,2081,2579,2068,3
76684.0,2094,2499,2084,3
76685.0,2089,2470,2102,3
76686.0,2094,2483,2119,3
76687.0,2093,2537,2142,3
76688.0,2101,2521,2126,3
76689.0,2121,2495,2043,3
76690.0,2136,2534,1941,3
76691.0,2037,2547,1966,3
76692.0,2009,2539,2000,3
76693.0,2021,2489,2015,3
76694.0,2032,2445,2041,3
76695.0,2049,2418,2056,3
76696.0,2054,2391,2055,3
76697.0,2042,2408,2045,3
76698.0,2055,2461,2034,3
76699.0,2082,2502,2011,3
76700.0,2105,2542,1980,3
76701.0,2123,2560,1982,3
76702.0,2091,2556,1976,3
76703.0,2086,2548,1962,3
76704.0,2087,2574,1971,3
76705.0,2092,2610,1986,3
76706.0,2118,2616,1975,3
76707.0,2134,2616,1955,3
76708.0,2135,2643,1971,3
76709.0,2111,2719,2007,3
76710.0,2067,2711,1958,3
76711.0,2011,2694,1967,3
76712.0,2015,2609,2054,3
76713.0,2013,2504,2102,3
76714.0,1701,2210,2325,3
76715.0,1742,2495,1619,3
76716.0,1835,2666,2172,3
76717.0,1861,2531,2274,3
76718.0,1938,2476,2159,3
76719.0,1987,2522,2154,3
76720.0,2111,2555,2131,3
76721.0,2153,2406,2025,3
76722.0,2166,2305,2005,3
76723.0,2133,2425,2051,3
76724.0,2109,2427,2023,3
76725.0,2040,2484,1905,3
76726.0,1978,2484,1877,3
76727.0,2001,2472,1960,3
76728.0,2001,2470,2008,3
76729.0,2013,2483,2015,3
76730.0,2016,2494,1982,3
76731.0,2077,2491,1947,3
76732.0,2112,2491,1899,3
76733.0,2134,2513,1901,3
76734.0,2127,2545,1928,3
76735.0,2084,2580,1918,3
76736.0,2021,2633,1903,3
76737.0,1989,2643,1900,3
76738.0,1979,2675,1923,3
76739.0,1999,2732,1920,3
76740.0,2055,2741,1915,3
76741.0,2052,2640,1967,3
76742.0,2068,2511,2043,3
76743.0,2081,2459,2082,3
76744.0,2087,2475,2107,3
76745.0,2108,2498,2127,3
76746.0,2110,2479,2147,3
76747.0,2112,2465,2141,3
76748.0,2139,2496,2067,3
76749.0,2122,2601,1889,3
76750.0,2014,2627,1941,3
76751.0,1986,2587,1933,3
76752.0,2005,2521,1996,3
76753.0,2027,2466,2039,3
76754.0,2032,2415,2049,3
76755.0,2026,2371,2022,3
76756.0,2074,2399,2008,3
76757.0,2082,2447,1993,3
76758.0,2097,2487,1962,3
76759.0,2107,2514,1929,3
76760.0,2081,2494,1959,3
76761.0,2054,2482,1978,3
76762.0,2048,2491,1999,3
76763.0,2057,2533,2000,3
76764.0,2086,2590,1967,3
76765.0,2119,2642,1919,3
76766.0,2128,2679,1905,3
76767.0,2143,2654,1907,3
76768.0,2109,2725,1943,3
76769.0,2076,2675,1911,3
76770.0,2031,2632,1946,3
76771.0,2018,2580,2035,3
76772.0,2020,2516,2092,3
76773.0,2011,2470,2092,3
76774.0,2003,2447,2109,3
76775.0,2001,2466,2128,3
76776.0,2000,2497,2140,3
76777.0,1989,2518,2129,3
76778.0,1940,2575,2030,3
76779.0,1885,2617,1943,3
76780.0,2006,2605,1930,3
76781.0,2069,2532,1971,3
76782.0,2068,2485,2029,3
76783.0,2065,2443,2072,3
76784.0,2072,2409,2095,3
76785.0,2080,2364,2085,3
76786.0,2101,2384,2029,3
76787.0,2116,2458,1974,3
76788.0,2107,2563,1932,3
76789.0,2050,2566,1923,3
76790.0,2056,2524,1976,3
76791.0,2067,2522,2030,3
76792.0,2065,2536,2026,3
76793.0,2069,2562,1967,3
76794.0,2078,2592,1908,3
76795.0,2109,2614,1875,3
76796.0,2075,2609,1908,3
76797.0,2043,2683,1935,3
76798.0,2068,2728,1948,3
76799.0,2063,2783,1972,3
76800.0,2070,2665,2023,3
76801.0,2081,2560,2086,3
76802.0,2082,2509,2134,3
76803.0,2098,2516,2154,3
76804.0,2101,2521,2167,3
76805.0,2106,2496,2153,3
76806.0,2101,2476,2141,3
76807.0,2106,2488,2139,3
76808.0,2101,2527,2149,3
76809.0,2044,2648,1874,3
76810.0,2017,2608,1705,3
76811.0,2064,2510,1975,3
76812.0,2073,2454,2076,3
76813.0,2075,2392,2097,3
76814.0,2064,2355,2090,3
76815.0,2037,2365,2013,3
76816.0,2023,2429,1974,3
76817.0,2029,2488,1974,3
76818.0,2042,2499,1956,3
76819.0,2082,2483,1956,3
76820.0,2073,2499,1963,3
76821.0,2058,2531,1963,3
76822.0,2042,2563,1959,3
76823.0,2038,2609,1953,3
76824.0,2060,2635,1965,3
76825.0,2132,2633,1974,3
76826.0,2141,2686,1954,3
76827.0,2116,2728,1938,3
76828.0,2048,2661,1910,3
76829.0,2014,2619,1999,3
76830.0,2030,2557,2094,3
76831.0,2032,2482,2124,3
76832.0,2015,2454,2126,3
76833.0,2007,2458,2135,3
76834.0,1993,2520,2146,3
76835.0,1980,2599,2165,3
76836.0,1976,2633,2172,3
76837.0,1810,2533,2125,3
76838.0,1969,2560,2135,3
76839.0,2006,2515,2149,3
76840.0,2144,2516,1925,3
76841.0,2146,2513,1927,3
76842.0,2147,2499,1949,3
76843.0,2108,2423,2049,3
76844.0,2094,2427,2094,3
76845.0,2090,2480,2100,3
76846.0,2135,2534,2024,3
76847.0,2147,2517,1966,3
76848.0,2080,2485,1964,3
76849.0,2035,2513,1982,3
76850.0,2045,2520,1982,3
76851.0,2051,2528,1985,3
76852.0,2034,2542,1978,3
76853.0,2027,2600,1985,3
76854.0,2029,2698,2003,3
76855.0,2037,2799,1988,3
76856.0,2048,2810,2020,3
76857.0,2065,2667,2070,3
76858.0,2085,2540,2103,3
76859.0,2088,2499,2115,3
76860.0,2106,2493,2123,3
76861.0,2109,2477,2142,3
76862.0,2111,2447,2147,3
76863.0,2116,2447,2140,3
76864.0,2114,2453,2142,3
76865.0,2110,2513,2158,3
76866.0,2106,2552,2162,3
76867.0,2102,2548,2161,3
76868.0,2085,2523,2146,3
76869.0,2059,2531,2041,3
76870.0,2018,2556,1854,3
76871.0,2035,2557,1975,3
76872.0,2067,2534,2083,3
76873.0,2073,2519,2117,3
76874.0,2087,2522,2098,3
76875.0,2093,2528,2047,3
76876.0,2091,2553,1996,3
76877.0,2073,2549,2028,3
76878.0,2064,2550,2069,3
76879.0,2066,2566,2086,3
76880.0,2059,2567,2059,3
76881.0,2088,2561,2048,3
76882.0,2104,2554,2045,3
76883.0,2124,2562,2042,3
76884.0,2132,2564,2022,3
76885.0,2136,2593,2009,3
76886.0,2109,2627,2006,3
76887.0,2078,2657,2017,3
76888.0,2069,2653,2020,3
76889.0,2065,2588,2049,3
76890.0,2056,2487,2092,3
76891.0,2060,2420,2107,3
76892.0,2049,2415,2120,3
76893.0,2042,2453,2134,3
76894.0,2037,2521,2147,3
76895.0,2004,2565,2092,3
76896.0,1952,2590,2013,3
76897.0,1935,2575,1897,3
76898.0,2092,2549,1956,3
76899.0,2073,2487,2041,3
76900.0,2085,2461,2069,3
76901.0,2100,2455,2055,3
76902.0,2124,2470,2025,3
76903.0,2130,2473,1993,3
76904.0,2125,2481,2008,3
76905.0,2114,2514,2016,3
76906.0,2043,2515,1996,3
76907.0,2027,2522,1978,3
76908.0,2011,2518,1967,3
76909.0,2007,2522,1973,3
76910.0,2001,2557,1965,3
76911.0,1998,2608,1966,3
76912.0,1991,2678,1967,3
76913.0,1985,2771,1989,3
76914.0,1998,2818,2021,3
76915.0,1991,2730,2069,3
76916.0,2013,2650,2122,3
76917.0,2046,2569,2095,3
76918.0,2077,2547,2097,3
76919.0,2103,2535,2118,3
76920.0,2109,2514,2131,3
76921.0,2119,2475,2140,3
76922.0,2126,2452,2145,3
76923.0,2139,2470,2126,3
76924.0,2258,2537,1912,3
76925.0,2172,2536,1997,3
76926.0,2041,2485,1933,3
76927.0,2033,2457,2025,3
76928.0,2063,2438,2095,3
76929.0,2051,2431,2116,3
76930.0,2018,2422,2092,3
76931.0,2013,2450,2057,3
76932.0,1975,2529,2004,3
76933.0,1942,2603,1951,3
76934.0,1935,2592,1975,3
76935.0,1966,2524,2000,3
76936.0,1947,2507,1997,3
76937.0,1977,2530,1977,3
76938.0,2051,2574,1973,3
76939.0,2088,2587,1982,3
76940.0,2087,2627,2007,3
76941.0,2108,2762,2056,3
76942.0,2135,2876,2062,3
76943.0,2134,2735,2053,3
76944.0,2065,2689,2165,3
76945.0,2033,2583,2154,3
76946.0,2004,2520,2154,3
76947.0,2003,2522,2152,3
76948.0,1988,2545,2159,3
76949.0,1985,2565,2158,3
76950.0,1975,2539,2149,3
76951.0,1979,2491,2130,3
76952.0,1990,2499,2011,3
76953.0,2068,2482,1962,3
76954.0,2079,2457,2026,3
76955.0,2061,2427,2106,3
76956.0,2067,2407,2123,3
76957.0,2077,2392,2127,3
76958.0,2099,2419,2131,3
76959.0,2148,2459,2096,3
76960.0,2231,2516,1991,3
76961.0,2174,2562,2028,3
76962.0,2167,2507,1846,3
76963.0,2016,2517,1877,3
76964.0,2038,2558,1977,3
76965.0,2011,2589,1968,3
76966.0,1970,2619,1947,3
76967.0,1980,2613,1952,3
76968.0,1974,2606,1950,3
76969.0,1974,2679,1964,3
76970.0,1947,2788,1934,3
76971.0,1941,2759,1900,3
76972.0,1980,2661,1989,3
76973.0,2038,2527,2076,3
76974.0,2053,2450,2109,3
76975.0,2069,2441,2124,3
76976.0,2082,2485,2144,3
76977.0,2098,2506,2152,3
76978.0,2106,2514,2151,3
76979.0,2119,2526,2157,3
76980.0,2153,2556,2095,3
76981.0,2224,2607,1888,3
76982.0,2050,2587,1931,3
76983.0,2027,2495,2035,3
76984.0,2060,2435,2096,3
76985.0,2054,2401,2103,3
76986.0,2041,2379,2092,3
76987.0,2026,2374,2066,3
76988.0,2014,2427,2045,3
76989.0,1985,2502,2019,3
76990.0,1952,2543,1959,3
76991.0,1953,2534,1963,3
76992.0,1960,2513,1994,3
76993.0,2025,2510,1996,3
76994.0,2060,2517,1994,3
76995.0,2080,2557,1985,3
76996.0,2096,2584,1996,3
76997.0,2130,2626,2006,3
76998.0,2129,2652,2027,3
76999.0,2120,2721,2034,3
77000.0,2102,2800,2023,3
77001.0,2074,2786,2028,3
77002.0,2013,2707,2102,3
77003.0,2017,2627,2154,3
77004.0,2007,2543,2153,3
77005.0,2003,2488,2144,3
77006.0,2004,2488,2150,3
77007.0,2003,2506,2149,3
77008.0,2004,2499,2140,3
77009.0,2009,2456,2131,3
77010.0,2127,2571,1892,3
77011.0,2126,2575,1896,3
77012.0,2123,2568,1943,3
77013.0,2111,2515,2049,3
77014.0,2090,2463,2084,3
77015.0,2097,2424,2066,3
77016.0,2108,2414,2046,3
77017.0,2086,2487,1983,3
77018.0,2032,2500,1955,3
77019.0,2025,2494,1953,3
77020.0,2027,2477,1952,3
77021.0,2061,2462,1946,3
77022.0,2102,2455,1954,3
77023.0,2127,2470,1935,3
77024.0,2157,2529,1939,3
77025.0,2134,2598,1957,3
77026.0,2056,2663,1930,3
77027.0,2016,2740,1932,3
77028.0,2026,2824,1949,3
77029.0,2028,2759,1929,3
77030.0,2067,2641,2042,3
77031.0,2077,2522,2119,3
77032.0,2090,2489,2136,3
77033.0,2104,2525,2153,3
77034.0,2106,2556,2170,3
77035.0,2105,2527,2160,3
77036.0,2115,2507,2147,3
77037.0,2114,2510,2145,3
77038.0,2158,2559,2013,3
77039.0,2126,2620,1824,3
77040.0,2023,2527,1954,3
77041.0,2050,2471,2069,3
77042.0,2058,2437,2102,3
77043.0,2053,2393,2103,3
77044.0,2040,2388,2095,3
77045.0,2017,2417,2034,3
77046.0,2006,2471,1996,3
77047.0,2003,2498,1987,3
77048.0,2007,2505,1985,3
77049.0,2039,2513,1999,3
77050.0,2063,2532,1998,3
77051.0,2063,2561,1985,3
77052.0,2078,2589,1967,3
77053.0,2088,2628,1927,3
77054.0,2116,2661,1926,3
77055.0,2131,2683,1954,3
77056.0,2111,2747,1963,3
77057.0,2049,2737,1951,3
77058.0,2020,2699,2027,3
77059.0,2015,2617,2092,3
77060.0,2016,2516,2115,3
77061.0,2010,2450,2121,3
77062.0,2004,2450,2128,3
77063.0,1995,2497,2145,3
77064.0,1987,2521,2151,3
77065.0,1979,2497,2141,3
77066.0,1983,2484,2131,3
77067.0,1976,2497,2127,3
77068.0,1970,2614,1962,3
77069.0,2097,2617,1864,3
77070.0,2080,2556,1946,3
77071.0,2056,2485,2060,3
77072.0,2039,2431,2107,3
77073.0,2040,2372,2100,3
77074.0,2049,2341,2083,3
77075.0,2078,2395,2030,3
77076.0,2090,2463,2000,3
77077.0,2095,2496,2004,3
77078.0,2107,2522,2005,3
77079.0,2121,2554,1983,3
77080.0,2183,2587,1922,3
77081.0,2194,2653,1908,3
77082.0,2147,2680,1955,3
77083.0,2036,2662,1962,3
77084.0,1985,2647,1963,3
77085.0,1981,2704,1975,3
77086.0,1949,2765,1948,3
77087.0,1920,2714,1953,3
77088.0,1964,2611,2021,3
77089.0,2016,2543,2081,3
77090.0,2058,2505,2104,3
77091.0,2079,2512,2115,3
77092.0,2101,2535,2139,3
77093.0,2116,2551,2159,3
77094.0,2123,2542,2162,3
77095.0,2126,2517,2155,3
77096.0,2134,2498,2150,3
77097.0,2276,2546,1876,3
77098.0,2194,2553,1919,3
77099.0,1984,2527,1961,3
77100.0,2015,2460,2007,3
77101.0,2052,2427,2090,3
77102.0,2060,2430,2110,3
77103.0,2044,2416,2106,3
77104.0,2010,2446,2011,3
77105.0,1981,2500,1935,3
77106.0,1989,2519,1989,3
77107.0,2008,2492,2027,3
77108.0,1997,2467,2009,3
77109.0,2013,2497,1983,3
77110.0,2053,2548,1969,3
77111.0,2062,2598,1954,3
77112.0,2093,2632,1941,3
77113.0,2095,2650,1957,3
77114.0,2114,2630,1945,3
77115.0,2113,2717,1935,3
77116.0,2075,2762,1930,3
77117.0,2027,2671,1977,3
77118.0,2019,2615,2086,3
77119.0,2021,2531,2136,3
77120.0,2014,2458,2120,3
77121.0,2004,2453,2120,3
77122.0,2007,2505,2141,3
77123.0,2003,2553,2152,3
77124.0,1999,2548,2150,3
77125.0,1948,2575,2008,3
77126.0,2029,2611,1886,3
77127.0,2077,2550,1955,3
77128.0,2061,2498,2039,3
77129.0,2063,2465,2084,3
77130.0,2070,2439,2093,3
77131.0,2073,2390,2089,3
77132.0,2080,2360,2076,3
77133.0,2091,2361,2056,3
77134.0,2123,2451,2005,3
77135.0,2132,2518,1986,3
77136.0,2132,2554,1965,3
77137.0,2124,2556,1948,3
77138.0,2091,2562,1955,3
77139.0,2091,2553,1953,3
77140.0,2090,2575,1961,3
77141.0,2083,2587,1971,3
77142.0,2045,2621,1955,3
77143.0,2019,2681,1930,3
77144.0,2020,2772,1946,3
77145.0,2033,2799,1944,3
77146.0,2066,2679,1981,3
77147.0,2083,2579,2071,3
77148.0,2088,2528,2120,3
77149.0,2104,2541,2139,3
77150.0,2112,2586,2164,3
77151.0,2115,2574,2168,3
77152.0,2112,2518,2157,3
77153.0,2109,2479,2140,3
77154.0,2131,2480,2071,3
77155.0,2151,2590,1842,3
77156.0,2061,2523,1963,3
77157.0,2056,2479,2057,3
77158.0,2060,2442,2095,3
77159.0,2055,2401,2088,3
77160.0,2042,2386,2093,3
77161.0,2030,2397,2059,3
77162.0,2019,2426,2021,3
77163.0,2009,2488,2009,3
77164.0,2001,2535,1979,3
77165.0,2056,2532,1961,3
77166.0,2097,2536,1945,3
77167.0,2098,2533,1961,3
77168.0,2067,2534,1972,3
77169.0,2040,2579,1965,3
77170.0,2028,2611,1963,3
77171.0,2033,2615,1954,3
77172.0,2071,2601,1969,3
77173.0,2101,2615,1939,3
77174.0,2081,2719,1937,3
77175.0,2058,2698,1904,3
77176.0,2027,2597,1988,3
77177.0,2028,2531,2084,3
77178.0,2033,2490,2115,3
77179.0,2023,2465,2127,3
77180.0,1995,2576,2142,3
77181.0,1994,2576,2142,3
77182.0,1987,2575,2126,3
77183.0,1925,2639,1926,3
77184.0,2053,2624,1905,3
77185.0,2074,2551,2014,3
77186.0,2063,2498,2074,3
77187.0,2074,2473,2085,3
77188.0,2088,2447,2076,3
77189.0,2103,2422,2048,3
77190.0,2111,2401,2013,3
77191.0,2134,2399,1977,3
77192.0,2146,2449,1965,3
77193.0,2128,2479,1968,3
77194.0,2069,2480,1939,3
77195.0,2078,2475,1933,3
77196.0,2093,2494,1919,3
77197.0,2097,2530,1920,3
77198.0,2074,2591,1931,3
77199.0,2033,2637,1928,3
77200.0,2000,2652,1928,3
77201.0,1992,2651,1910,3
77202.0,1988,2708,1935,3
77203.0,2003,2732,1908,3
77204.0,2090,2623,1955,3
77205.0,2093,2540,2050,3
77206.0,2098,2499,2101,3
77207.0,2105,2513,2119,3
77208.0,2107,2522,2139,3
77209.0,2107,2527,2154,3
77210.0,2107,2542,2157,3
77211.0,2128,2555,2093,3
77212.0,2090,2645,1809,3
77213.0,2034,2563,1939,3
77214.0,2031,2499,2006,3
77215.0,2043,2455,2035,3
77216.0,2041,2413,2035,3
77217.0,2036,2393,2023,3
77218.0,2040,2365,2019,3
77219.0,2042,2378,2020,3
77220.0,2039,2442,2021,3
77221.0,2070,2500,2003,3
77222.0,2078,2527,1963,3
77223.0,2080,2565,1951,3
77224.0,2075,2547,1962,3
77225.0,2066,2551,1976,3
77226.0,2072,2558,1978,3
77227.0,2066,2590,1971,3
77228.0,2091,2627,1956,3
77229.0,2115,2629,1943,3
77230.0,2132,2653,1959,3
77231.0,2063,2725,1978,3
77232.0,2029,2653,1928,3
77233.0,2011,2574,1985,3
77234.0,2021,2534,2074,3
77235.0,2013,2504,2082,3
77236.0,1998,2472,2071,3
77237.0,1991,2500,2085,3
77238.0,1977,2512,2103,3
77239.0,1974,2521,2095,3
77240.0,1947,2550,2042,3
77241.0,1919,2575,1978,3
77242.0,2038,2597,1958,3
77243.0,2067,2551,2009,3
77244.0,2060,2506,2052,3
77245.0,2065,2475,2067,3
77246.0,2087,2447,2066,3
77247.0,2105,2425,2052,3
77248.0,2131,2403,2006,3
77249.0,2155,2421,1978,3
77250.0,2137,2467,1998,3
77251.0,2120,2501,1998,3
77252.0,2076,2543,1953,3
77253.0,2095,2566,1904,3
77254.0,2097,2591,1927,3
77255.0,2074,2611,1943,3
77256.0,2064,2613,1933,3
77257.0,2048,2615,1922,3
77258.0,2033,2603,1927,3
77259.0,2018,2633,1931,3
77260.0,2025,2719,1948,3
77261.0,2052,2724,1936,3
77262.0,2074,2656,2011,3
77263.0,2094,2588,2072,3
77264.0,2095,2525,2100,3
77265.0,2098,2479,2102,3
77266.0,2102,2449,2121,3
77267.0,2104,2450,2131,3
77268.0,2095,2467,2139,3
77269.0,2089,2482,2134,3
77270.0,2043,2558,1954,3
77271.0,2029,2611,1854,3
77272.0,2027,2544,1966,3
77273.0,2056,2482,2054,3
77274.0,2065,2440,2057,3
77275.0,2079,2410,2027,3
77276.0,2069,2392,2019,3
77277.0,2049,2410,2018,3
77278.0,2041,2434,1999,3
77279.0,2039,2479,1989,3
77280.0,2032,2500,1974,3
77281.0,2023,2516,1961,3
77282.0,2025,2536,1959,3
77283.0,2022,2571,1959,3
77284.0,2025,2599,1961,3
77285.0,2040,2635,1961,3
77286.0,2057,2667,1957,3
77287.0,2081,2692,1967,3
77288.0,2091,2724,1991,3
77289.0,2088,2668,1973,3
77290.0,2039,2667,2030,3
77291.0,2026,2600,2050,3
77292.0,2021,2523,2049,3
77293.0,2012,2473,2072,3
77294.0,2006,2457,2095,3
77295.0,1998,2482,2123,3
77296.0,1992,2511,2135,3
77297.0,1985,2551,2148,3
77298.0,1964,2561,2115,3
77299.0,1895,2584,1900,3
77300.0,2007,2589,1913,3
77301.0,2043,2493,2029,3
77302.0,2050,2443,2069,3
77303.0,2050,2432,2087,3
77304.0,2067,2391,2102,3
77305.0,2074,2350,2093,3
77306.0,2086,2369,2077,3
77307.0,2125,2477,2003,3
77308.0,2203,2585,1891,3
77309.0,2183,2626,1909,3
77310.0,2135,2566,1933,3
77311.0,2034,2562,1913,3
77312.0,2037,2595,1938,3
77313.0,2034,2628,1942,3
77314.0,2034,2652,1928,3
77315.0,2028,2637,1927,3
77316.0,2013,2642,1939,3
77317.0,2009,2653,1947,3
77318.0,2022,2623,1950,3
77319.0,2108,2618,1997,3
77320.0,2115,2577,2049,3
77321.0,2105,2522,2112,3
77322.0,2107,2506,2137,3
77323.0,2109,2498,2149,3
77324.0,2105,2484,2146,3
77325.0,2106,2480,2142,3
77326.0,2100,2527,2152,3
77327.0,2100,2556,2139,3
77328.0,2090,2637,1757,3
77329.0,2030,2548,1866,3
77330.0,2047,2467,2014,3
77331.0,2063,2420,2085,3
77332.0,2057,2375,2088,3
77333.0,2036,2360,2079,3
77334.0,2033,2390,2052,3
77335.0,2001,2476,1955,3
77336.0,2012,2535,1943,3
77337.0,2049,2546,1957,3
77338.0,2091,2524,1961,3
77339.0,2104,2521,1970,3
77340.0,2062,2559,1977,3
77341.0,2031,2601,1973,3
77342.0,2029,2621,1953,3
77343.0,2029,2619,1943,3
77344.0,2073,2617,1960,3
77345.0,2082,2712,2019,3
77346.0,2097,2669,1973,3
77347.0,2063,2639,2018,3
77348.0,2047,2616,2052,3
77349.0,2025,2567,2075,3
77350.0,2016,2547,2158,3
77351.0,2015,2543,2155,3
77352.0,2007,2557,2151,3
77353.0,1974,2584,2056,3
77354.0,1943,2571,1946,3
77355.0,2036,2544,1938,3
77356.0,2071,2472,1984,3
77357.0,2067,2409,2012,3
77358.0,2080,2382,2029,3
77359.0,2082,2387,2044,3
77360.0,2089,2369,2051,3
77361.0,2095,2381,2023,3
77362.0,2107,2452,1979,3
77363.0,2109,2531,1942,3
77364.0,2087,2589,1903,3
77365.0,2050,2635,1912,3
77366.0,2040,2580,1941,3
77367.0,2021,2539,1933,3
77368.0,2019,2554,1945,3
77369.0,2030,2531,1940,3
77370.0,2016,2518,1929,3
77371.0,2007,2547,1944,3
77372.0,2042,2670,1983,3
77373.0,2093,2742,1997,3
77374.0,2113,2723,2005,3
77375.0,2107,2656,2069,3
77376.0,2111,2612,2128,3
77377.0,2113,2578,2139,3
77378.0,2110,2539,2139,3
77379.0,2111,2498,2128,3
77380.0,2107,2482,2125,3
77381.0,2122,2511,2064,3
77382.0,2121,2530,2011,3
77383.0,2060,2566,1934,3
77384.0,2052,2567,1986,3
77385.0,2043,2531,2030,3
77386.0,2044,2475,2054,3
77387.0,2039,2444,2062,3
77388.0,2025,2419,2052,3
77389.0,2021,2399,2045,3
77390.0,2016,2413,2049,3
77391.0,2010,2428,2043,3
77392.0,1999,2431,2042,3
77393.0,1997,2451,2046,3
77394.0,1994,2482,2028,3
77395.0,1989,2532,1998,3
77396.0,1997,2623,1965,3
77397.0,2048,2712,1928,3
77398.0,2080,2735,1907,3
77399.0,2072,2678,1915,3
77400.0,2096,2671,1992,3
77401.0,2107,2627,2000,3
77402.0,2084,2644,2046,3
77403.0,2036,2611,2131,3
77404.0,2015,2554,2136,3
77405.0,2011,2519,2130,3
77406.0,1999,2538,2139,3
77407.0,1992,2572,2152,3
77408.0,1984,2537,2142,3
77409.0,1975,2486,2119,3
77410.0,1955,2489,2081,3
77411.0,1974,2554,2061,3
77412.0,2055,2571,2002,3
77413.0,2103,2544,1996,3
77414.0,2068,2499,2061,3
77415.0,2068,2445,2092,3
77416.0,2078,2395,2085,3
77417.0,2083,2372,2051,3
77418.0,2101,2397,2013,3
77419.0,2103,2435,2013,3
77420.0,2111,2477,2023,3
77421.0,2129,2531,2001,3
77422.0,2129,2586,1943,3
77423.0,2133,2601,1915,3
77424.0,2087,2594,1952,3
77425.0,2054,2586,1975,3
77426.0,2033,2595,1971,3
77427.0,2019,2630,1963,3
77428.0,2007,2715,1977,3
77429.0,2003,2798,1976,3
77430.0,2009,2808,2033,3
77431.0,2023,2683,2091,3
77432.0,2035,2565,2095,3
77433.0,2060,2499,2106,3
77434.0,2085,2498,2110,3
77435.0,2096,2487,2128,3
77436.0,2103,2451,2138,3
77437.0,2112,2441,2131,3
77438.0,2117,2439,2138,3
77439.0,2128,2460,2136,3
77440.0,2138,2511,2149,3
77441.0,2288,2683,1764,3
77442.0,2118,2599,1839,3
77443.0,2059,2471,2041,3
77444.0,2082,2432,2107,3
77445.0,2069,2409,2113,3
77446.0,2059,2406,2114,3
77447.0,2043,2422,2117,3
77448.0,2006,2483,2075,3
77449.0,1968,2561,2003,3
77450.0,1970,2600,1980,3
77451.0,1964,2585,1967,3
77452.0,1966,2558,2004,3
77453.0,1965,2586,1995,3
77454.0,2040,2621,1968,3
77455.0,2064,2659,1938,3
77456.0,2082,2653,1959,3
77457.0,2076,2722,2017,3
77458.0,2064,2751,2055,3
77459.0,2044,2741,2072,3
77460.0,2042,2674,2133,3
77461.0,2023,2556,2130,3
77462.0,2004,2493,2120,3
77463.0,2001,2507,2127,3
77464.0,1994,2499,2138,3
77465.0,2005,2466,2135,3
77466.0,1999,2430,2121,3
77467.0,1999,2440,2118,3
77468.0,2055,2509,1978,3
77469.0,2099,2550,1959,3
77470.0,2090,2529,1997,3
77471.0,2077,2483,2047,3
77472.0,2080,2438,2061,3
77473.0,2080,2438,2047,3
77474.0,2090,2425,2006,3
77475.0,2106,2439,1981,3
77476.0,2109,2467,1978,3
77477.0,2118,2487,1980,3
77478.0,2107,2490,1971,3
77479.0,2117,2494,1950,3
77480.0,2118,2508,1941,3
77481.0,2122,2564,1935,3
77482.0,2114,2649,1924,3
77483.0,2092,2695,1892,3
77484.0,2031,2643,1883,3
77485.0,2014,2663,1920,3
77486.0,2003,2721,1947,3
77487.0,2008,2727,1951,3
77488.0,2025,2657,2037,3
77489.0,2061,2560,2111,3
77490.0,2073,2508,2127,3
77491.0,2087,2515,2142,3
77492.0,2095,2537,2163,3
77493.0,2097,2515,2156,3
77494.0,2109,2476,2142,3
77495.0,2111,2451,2135,3
77496.0,2109,2481,2139,3
77497.0,2147,2651,1849,3
77498.0,2135,2629,1756,3
77499.0,2047,2507,1990,3
77500.0,2069,2445,2098,3
77501.0,2062,2422,2102,3
77502.0,2049,2385,2093,3
77503.0,2017,2399,2033,3
77504.0,1998,2449,1970,3
77505.0,1983,2505,1957,3
77506.0,1997,2517,1963,3
77507.0,2001,2498,1968,3
77508.0,2055,2481,1961,3
77509.0,2077,2495,1965,3
77510.0,2079,2519,1977,3
77511.0,2088,2585,1971,3
77512.0,2101,2645,1939,3
77513.0,2136,2677,1922,3
77514.0,2162,2691,1935,3
77515.0,2155,2777,1957,3
77516.0,2147,2729,1914,3
77517.0,2045,2637,2001,3
77518.0,2044,2548,2098,3
77519.0,2036,2501,2123,3
77520.0,2000,2579,2161,3
77521.0,1999,2578,2162,3
77522.0,1999,2577,2160,3
77523.0,1991,2537,2147,3
77524.0,1928,2513,2014,3
77525.0,2008,2613,1804,3
77526.0,2093,2525,1896,3
77527.0,2090,2465,1994,3
77528.0,2074,2421,2080,3
77529.0,2082,2381,2089,3
77530.0,2075,2367,2093,3
77531.0,2095,2364,2084,3
77532.0,2117,2383,2054,3
77533.0,2163,2462,1939,3
77534.0,2204,2535,1880,3
77535.0,2191,2565,1932,3
77536.0,2113,2575,1949,3
77537.0,2051,2599,1936,3
77538.0,2034,2638,1923,3
77539.0,2019,2663,1893,3
77540.0,2019,2671,1902,3
77541.0,2004,2646,1930,3
77542.0,2000,2630,1964,3
77543.0,2001,2742,1992,3
77544.0,1988,2763,1931,3
77545.0,2004,2622,1943,3
77546.0,2073,2520,2088,3
77547.0,2085,2495,2131,3
77548.0,2102,2503,2145,3
77549.0,2113,2502,2154,3
77550.0,2119,2497,2154,3
77551.0,2120,2484,2148,3
77552.0,2121,2488,2148,3
77553.0,2114,2494,2139,3
77554.0,2075,2673,1627,3
77555.0,2011,2545,1899,3
77556.0,2045,2482,2045,3
77557.0,2058,2441,2104,3
77558.0,2056,2411,2097,3
77559.0,2051,2388,2075,3
77560.0,2011,2368,2013,3
77561.0,2003,2384,1995,3
77562.0,1999,2441,2018,3
77563.0,1995,2513,2028,3
77564.0,1993,2574,2006,3
77565.0,1992,2587,1960,3
77566.0,2062,2619,1931,3
77567.0,2076,2650,1929,3
77568.0,2085,2636,1934,3
77569.0,2108,2613,1947,3
77570.0,2107,2580,1954,3
77571.0,2111,2631,1968,3
77572.0,2121,2721,1995,3
77573.0,2075,2714,1995,3
77574.0,2044,2663,2085,3
77575.0,2039,2617,2148,3
77576.0,2026,2559,2150,3
77577.0,2019,2525,2142,3
77578.0,2016,2522,2142,3
77579.0,2009,2526,2149,3
77580.0,2003,2526,2146,3
77581.0,1989,2507,2132,3
77582.0,1952,2519,2049,3
77583.0,1985,2591,1926,3
77584.0,2072,2506,1953,3
77585.0,2068,2455,2022,3
77586.0,2065,2408,2076,3
77587.0,2072,2386,2091,3
77588.0,2085,2387,2103,3
77589.0,2089,2383,2086,3
77590.0,2122,2409,2058,3
77591.0,2162,2495,1956,3
77592.0,2173,2553,1925,3
77593.0,2173,2551,1960,3
77594.0,2138,2539,1975,3
77595.0,2064,2564,1977,3
77596.0,2045,2604,1958,3
77597.0,2028,2631,1935,3
77598.0,2026,2634,1940,3
77599.0,2011,2617,1951,3
77600.0,2002,2681,1975,3
77601.0,1997,2779,1972,3
77602.0,2003,2842,1993,3
77603.0,2011,2731,2048,3
77604.0,2030,2549,2105,3
77605.0,2057,2480,2133,3
77606.0,2080,2512,2150,3
77607.0,2087,2544,2166,3
77608.0,2105,2529,2162,3
77609.0,2117,2481,2140,3
77610.0,2112,2442,2129,3
77611.0,2122,2447,2134,3
77612.0,2121,2499,2148,3
77613.0,2192,2629,1869,3
77614.0,2062,2540,1841,3
77615.0,2043,2456,2012,3
77616.0,2076,2427,2110,3
77617.0,2066,2406,2109,3
77618.0,2048,2397,2112,3
77619.0,2048,2443,2116,3
77620.0,1995,2523,1994,3
77621.0,1964,2571,1912,3
77622.0,1985,2520,1941,3
77623.0,1991,2465,1989,3
77624.0,2058,2496,1995,3
77625.0,2075,2546,1973,3
77626.0,2088,2599,1938,3
77627.0,2108,2622,1940,3
77628.0,2141,2631,1946,3
77629.0,2149,2634,1964,3
77630.0,2138,2717,1969,3
77631.0,2067,2719,1919,3
77632.0,2005,2638,1989,3
77633.0,2029,2607,2125,3
77634.0,2028,2583,2163,3
77635.0,2026,2530,2156,3
77636.0,2003,2518,2150,3
77637.0,2004,2537,2151,3
77638.0,1995,2569,2156,3
77639.0,1992,2557,2132,3
77640.0,1982,2590,1957,3
77641.0,2091,2549,1922,3
77642.0,2081,2495,2005,3
77643.0,2078,2459,2074,3
77644.0,2093,2445,2108,3
77645.0,2099,2442,2103,3
77646.0,2128,2429,2089,3
77647.0,2142,2421,2039,3
77648.0,2179,2448,1930,3
77649.0,2150,2465,1937,3
77650.0,2045,2464,1972,3
77651.0,2041,2467,1995,3
77652.0,2018,2470,1961,3
77653.0,2001,2489,1934,3
77654.0,2006,2528,1933,3
77655.0,2008,2568,1915,3
77656.0,1993,2599,1915,3
77657.0,1983,2624,1929,3
77658.0,1974,2689,1946,3
77659.0,1981,2817,1969,3
77660.0,1969,2850,1923,3
77661.0,2003,2758,1994,3
77662.0,2067,2586,2096,3
77663.0,2077,2518,2137,3
77664.0,2097,2510,2139,3
77665.0,2105,2501,2140,3
77666.0,2119,2481,2143,3
77667.0,2118,2455,2141,3
77668.0,2123,2452,2133,3
77669.0,2131,2472,2124,3
77670.0,2212,2555,1878,3
77671.0,2040,2546,1919,3
77672.0,2027,2493,2014,3
77673.0,2046,2465,2082,3
77674.0,2039,2457,2079,3
77675.0,2020,2473,2043,3
77676.0,2001,2489,2006,3
77677.0,1991,2505,1993,3
77678.0,1976,2511,1988,3
77679.0,1993,2495,1990,3
77680.0,2032,2487,1994,3
77681.0,2075,2483,1985,3
77682.0,2095,2489,1980,3
77683.0,2083,2487,1965,3
77684.0,2098,2497,1946,3
77685.0,2099,2510,1952,3
77686.0,2098,2577,1980,3
77687.0,2118,2681,1984,3
77688.0,2135,2805,1939,3
77689.0,2119,2901,1890,3
77690.0,2039,2529,2126,3
77691.0,2037,2529,2127,3
77692.0,2034,2518,2127,3
77693.0,2029,2494,2130,3
77694.0,2024,2474,2131,3
77695.0,2018,2437,2131,3
77696.0,2013,2411,2123,3
77697.0,2014,2429,2129,3
77698.0,2005,2445,2127,3
77699.0,2018,2485,2131,3
77700.0,2027,2516,2135,3
77701.0,2110,2615,1923,3
77702.0,2126,2583,1890,3
77703.0,2129,2523,1978,3
77704.0,2128,2491,2042,3
77705.0,2113,2447,2092,3
77706.0,2102,2416,2096,3
77707.0,2107,2427,2084,3
77708.0,2140,2502,1977,3
77709.0,2092,2523,1941,3
77710.0,2059,2514,1970,3
77711.0,2084,2511,1986,3
77712.0,2087,2541,1981,3
77713.0,2069,2583,1963,3
77714.0,2040,2631,1953,3
77715.0,2021,2660,1948,3
77716.0,2016,2667,1963,3
77717.0,2010,2714,1977,3
77718.0,2014,2785,1986,3
77719.0,2030,2747,1907,3
77720.0,2099,2625,2028,3
77721.0,2089,2533,2127,3
77722.0,2092,2500,2149,3
77723.0,2103,2509,2156,3
77724.0,2111,2518,2160,3
77725.0,2117,2518,2156,3
77726.0,2117,2501,2150,3
77727.0,2113,2484,2138,3
77728.0,2113,2482,2087,3
77729.0,2062,2602,1696,3
77730.0,2043,2493,1966,3
77731.0,2056,2442,2079,3
77732.0,2068,2401,2106,3
77733.0,2048,2375,2104,3
77734.0,2042,2380,2100,3
77735.0,2010,2399,2047,3
77736.0,1987,2457,1994,3
77737.0,1987,2515,1992,3
77738.0,1974,2545,1985,3
77739.0,1978,2544,1976,3
77740.0,1990,2540,1979,3
77741.0,2050,2569,1981,3
77742.0,2062,2598,1961,3
77743.0,2092,2626,1953,3
77744.0,2114,2647,1959,3
77745.0,2141,2710,1999,3
77746.0,2163,2739,1976,3
77747.0,2075,2725,2059,3
77748.0,2028,2646,2135,3
77749.0,2018,2568,2148,3
77750.0,2005,2514,2127,3
77751.0,1991,2529,2127,3
77752.0,1998,2532,2142,3
77753.0,1990,2521,2142,3
77754.0,1979,2506,2119,3
77755.0,1972,2520,2071,3
77756.0,2049,2556,1959,3
77757.0,2071,2521,1991,3
77758.0,2070,2488,2067,3
77759.0,2071,2445,2106,3
77760.0,2077,2424,2109,3
77761.0,2083,2394,2102,3
77762.0,2097,2371,2096,3
77763.0,2117,2392,2073,3
77764.0,2163,2496,1972,3
77765.0,2187,2594,1911,3
77766.0,2110,2600,1963,3
77767.0,2038,2565,1994,3
77768.0,2020,2538,1967,3
77769.0,2022,2560,1948,3
77770.0,2013,2571,1962,3
77771.0,2018,2565,1973,3
77772.0,2013,2571,1975,3
77773.0,2003,2607,1979,3
77774.0,2006,2703,1993,3
77775.0,1989,2800,1963,3
77776.0,2005,2787,1968,3
77777.0,2034,2667,2062,3
77778.0,2064,2566,2101,3
77779.0,2081,2531,2117,3
77780.0,2094,2509,2127,3
77781.0,2100,2488,2140,3
77782.0,2104,2446,2140,3
77783.0,2105,2428,2133,3
77784.0,2114,2467,2140,3
77785.0,2107,2517,2152,3
77786.0,2099,2533,2140,3
77787.0,2013,2586,1817,3
77788.0,2013,2531,1890,3
77789.0,2030,2449,2032,3
77790.0,2046,2414,2095,3
77791.0,2039,2398,2105,3
77792.0,2034,2397,2108,3
77793.0,2014,2423,2064,3
77794.0,1995,2485,2024,3
77795.0,1998,2547,1999,3
77796.0,2057,2546,1988,3
77797.0,2091,2525,1974,3
77798.0,2122,2526,1953,3
77799.0,2150,2555,1944,3
77800.0,2131,2564,1989,3
77801.0,2097,2573,1985,3
77802.0,2096,2602,1979,3
77803.0,2109,2673,1988,3
77804.0,2123,2789,1983,3
77805.0,2122,2815,1965,3
77806.0,2055,2726,2041,3
77807.0,2050,2614,2100,3
77808.0,2039,2536,2130,3
77809.0,2030,2509,2138,3
77810.0,2017,2520,2141,3
77811.0,2010,2525,2153,3
77812.0,1996,2502,2140,3
77813.0,1986,2476,2138,3
77814.0,1984,2471,2130,3
77815.0,1926,2507,2056,3
77816.0,1966,2565,2024,3
77817.0,2086,2559,1923,3
77818.0,2095,2486,1971,3
77819.0,2095,2438,2021,3
77820.0,2084,2408,2088,3
77821.0,2093,2388,2101,3
77822.0,2097,2373,2097,3
77823.0,2116,2425,2095,3
77824.0,2158,2517,1993,3
77825.0,2197,2582,1911,3
77826.0,2168,2583,1933,3
77827.0,2049,2561,1975,3
77828.0,2029,2549,1979,3
77829.0,2027,2583,1967,3
77830.0,2032,2595,1970,3
77831.0,2032,2639,1988,3
77832.0,2012,2757,1997,3
77833.0,2000,2867,2003,3
77834.0,2013,2812,2123,3
77835.0,2024,2689,2156,3
77836.0,2008,2585,2104,3
77837.0,2027,2573,2071,3
77838.0,2070,2533,2111,3
77839.0,2080,2470,2135,3
77840.0,2090,2402,2132,3
77841.0,2105,2389,2121,3
77842.0,2115,2462,2148,3
77843.0,2122,2553,2167,3
77844.0,2127,2604,2180,3
77845.0,2117,2537,2159,3
77846.0,2102,2463,2136,3
77847.0,2075,2470,2106,3
77848.0,1944,2549,1625,3
77849.0,1997,2486,1946,3
77850.0,2041,2428,2084,3
77851.0,2053,2371,2115,3
77852.0,2047,2390,2124,3
77853.0,2043,2448,2131,3
77854.0,2042,2484,2131,3
77855.0,1995,2522,1985,3
77856.0,1997,2545,1868,3
77857.0,2097,2569,1925,3
77858.0,2073,2575,2026,3
77859.0,2066,2575,2042,3
77860.0,2109,2747,1991,3
77861.0,2109,2748,1989,3
77862.0,2098,2769,1970,3
77863.0,2050,2728,1979,3
77864.0,2027,2657,2091,3
77865.0,2045,2595,2156,3
77866.0,2018,2559,2151,3
77867.0,2014,2555,2162,3
77868.0,2005,2551,2160,3
77869.0,1992,2525,2151,3
77870.0,1994,2491,2143,3
77871.0,1988,2480,2139,3
77872.0,1989,2494,2135,3
77873.0,1998,2526,2137,3
77874.0,2015,2561,2027,3
77875.0,2137,2601,1945,3
77876.0,2098,2491,1947,3
77877.0,2100,2455,2010,3
77878.0,2082,2418,2085,3
77879.0,2089,2386,2096,3
77880.0,2090,2384,2106,3
77881.0,2092,2410,2106,3
77882.0,2103,2465,2089,3
77883.0,2129,2542,1957,3
77884.0,2135,2577,1907,3
77885.0,2077,2582,1966,3
77886.0,2080,2581,2013,3
77887.0,2053,2579,2005,3
77888.0,2028,2599,1973,3
77889.0,1990,2635,1959,3
77890.0,1996,2696,1963,3
77891.0,1998,2775,1997,3
77892.0,1982,2819,2004,3
77893.0,1985,2752,2064,3
77894.0,2014,2600,2129,3
77895.0,2037,2531,2143,3
77896.0,2056,2547,2153,3
77897.0,2072,2555,2164,3
77898.0,2080,2545,2161,3
77899.0,2088,2529,2160,3
77900.0,2097,2526,2154,3
77901.0,2101,2535,2154,3
77902.0,2109,2536,2154,3
77903.0,2104,2543,1971,3
77904.0,2052,2587,1655,3
77905.0,2046,2482,1973,3
77906.0,2056,2422,2068,3
77907.0,2067,2376,2106,3
77908.0,2061,2347,2100,3
77909.0,2052,2329,2104,3
77910.0,2049,2359,2102,3
77911.0,2005,2442,2034,3
77912.0,1996,2510,1984,3
77913.0,2003,2526,1942,3
77914.0,2098,2542,1927,3
77915.0,2133,2574,1930,3
77916.0,2091,2598,1981,3
77917.0,2063,2640,1979,3
77918.0,2068,2673,1963,3
77919.0,2114,2682,1942,3
77920.0,2145,2739,1940,3
77921.0,2097,2797,1975,3
77922.0,2037,2689,1959,3
77923.0,2020,2624,2075,3
77924.0,2034,2536,2150,3
77925.0,2027,2506,2147,3
77926.0,2013,2541,2150,3
77927.0,1996,2538,2156,3
77928.0,1995,2524,2146,3
77929.0,1983,2502,2138,3
77930.0,1973,2497,2134,3
77931.0,1833,2517,1908,3
77932.0,1989,2560,2102,3
77933.0,2078,2524,1930,3
77934.0,2121,2493,1931,3
77935.0,2077,2442,2040,3
77936.0,2057,2413,2117,3
77937.0,2059,2391,2117,3
77938.0,2073,2381,2107,3
77939.0,2096,2403,2089,3
77940.0,2151,2502,1977,3
77941.0,2187,2560,1924,3
77942.0,2201,2554,1913,3
77943.0,2147,2529,1998,3
77944.0,2100,2547,1965,3
77945.0,2055,2603,1947,3
77946.0,2045,2617,1941,3
77947.0,2031,2629,1938,3
77948.0,2010,2671,1924,3
77949.0,2007,2746,1947,3
77950.0,1991,2813,1934,3
77951.0,2011,2705,1999,3
77952.0,2031,2589,2060,3
77953.0,2042,2519,2099,3
77954.0,2070,2527,2127,3
77955.0,2092,2525,2146,3
77956.0,2101,2506,2149,3
77957.0,2096,2460,2141,3
77958.0,2106,2468,2142,3
77959.0,2108,2527,2153,3
77960.0,2102,2574,2159,3
77961.0,2046,2589,1965,3
77962.0,2010,2585,1768,3
77963.0,2054,2496,2001,3
77964.0,2059,2439,2070,3
77965.0,2062,2390,2098,3
77966.0,2049,2381,2091,3
77967.0,2040,2381,2062,3
77968.0,2020,2409,2049,3
77969.0,2022,2454,2033,3
77970.0,2034,2493,2021,3
77971.0,2035,2506,1994,3
77972.0,2102,2527,1948,3
77973.0,2071,2534,1946,3
77974.0,2049,2557,1972,3
77975.0,2048,2577,1991,3
77976.0,2061,2624,1982,3
77977.0,2064,2670,1961,3
77978.0,2079,2687,1961,3
77979.0,2065,2785,1962,3
77980.0,2024,2810,1938,3
77981.0,2008,2711,1968,3
77982.0,2029,2619,2065,3
77983.0,2031,2536,2122,3
77984.0,2031,2470,2128,3
77985.0,2023,2431,2122,3
77986.0,2005,2447,2134,3
77987.0,2004,2509,2149,3
77988.0,2002,2531,2154,3
77989.0,1992,2524,2147,3
77990.0,1993,2512,2136,3
77991.0,1987,2551,2044,3
77992.0,2044,2613,1856,3
77993.0,2108,2561,1882,3
77994.0,2087,2489,1973,3
77995.0,2076,2450,2068,3
77996.0,2074,2411,2108,3
77997.0,2077,2369,2102,3
77998.0,2091,2380,2102,3
77999.0,2101,2436,2083,3
78000.0,2149,2532,1973,3
78001.0,2150,2568,1927,3
78002.0,2160,2554,1918,3
78003.0,2123,2553,1956,3
78004.0,2089,2559,1977,3
78005.0,2070,2573,1966,3
78006.0,2055,2589,1969,3
78007.0,2035,2616,1958,3
78008.0,2005,2661,1957,3
78009.0,2018,2784,1993,3
78010.0,2029,2786,1931,3
78011.0,2066,2712,1972,3
78012.0,2083,2580,2078,3
78013.0,2082,2511,2127,3
78014.0,2095,2521,2144,3
78015.0,2097,2533,2162,3
78016.0,2107,2507,2157,3
78017.0,2099,2479,2147,3
78018.0,2102,2510,2153,3
78019.0,2097,2525,2151,3
78020.0,2091,2536,2130,3
78021.0,2024,2619,1722,3
78022.0,2029,2519,1913,3
78023.0,2053,2443,2058,3
78024.0,2073,2388,2099,3
78025.0,2070,2355,2098,3
78026.0,2070,2324,2090,3
78027.0,2058,2348,2067,3
78028.0,2067,2488,2003,3
78029.0,2090,2568,2000,3
78030.0,2027,2588,1980,3
78031.0,2030,2591,1982,3
78032.0,2035,2608,1972,3
78033.0,2031,2582,1962,3
78034.0,2045,2566,1943,3
78035.0,2061,2548,1940,3
78036.0,2073,2560,1964,3
78037.0,2069,2651,1998,3
78038.0,2055,2697,1971,3
78039.0,2035,2627,2019,3
78040.0,2052,2553,2102,3
78041.0,2050,2505,2115,3
78042.0,2035,2523,2137,3
78043.0,2034,2577,2152,3
78044.0,2025,2599,2158,3
78045.0,1982,2579,2083,3
78046.0,1929,2547,2003,3
78047.0,1946,2546,2018,3
78048.0,1997,2532,2044,3
78049.0,2055,2497,2035,3
78050.0,2072,2479,2023,3
78051.0,2069,2452,2035,3
78052.0,2069,2440,2053,3
78053.0,2066,2443,2052,3
78054.0,2079,2477,2027,3
78055.0,2003,2517,2005,3
78056.0,2002,2521,1999,3
78057.0,2004,2509,2009,3
78058.0,2009,2503,2026,3
78059.0,1998,2499,2018,3
78060.0,1995,2505,2029,3
78061.0,1993,2531,2038,3
78062.0,1988,2557,2039,3
78063.0,1976,2594,2031,3
78064.0,1975,2616,2012,3
78065.0,1971,2667,2012,3
78066.0,1958,2704,1998,3
78067.0,1927,2677,1938,3
78068.0,2050,2626,1985,3
78069.0,2077,2547,2044,3
78070.0,2092,2518,2073,3
78071.0,2101,2531,2089,3
78072.0,2113,2540,2114,3
78073.0,2121,2535,2151,3
78074.0,2130,2552,2157,3
78075.0,2140,2567,2155,3
78076.0,2223,2598,1995,3
78077.0,2261,2596,1815,3
78078.0,2097,2505,1958,3
78079.0,2072,2445,2026,3
78080.0,2042,2399,2042,3
78081.0,2043,2402,2043,3
78082.0,2041,2418,2045,3
78083.0,2029,2428,2026,3
78084.0,2009,2455,1986,3
78085.0,2012,2513,1959,3
78086.0,2021,2550,1975,3
78087.0,2064,2541,2007,3
78088.0,2090,2533,1992,3
78089.0,2104,2531,1970,3
78090.0,2117,2527,1947,3
78091.0,2089,2533,1967,3
78092.0,2067,2552,1967,3
78093.0,2069,2576,1938,3
78094.0,2099,2632,1943,3
78095.0,2115,2694,1973,3
78096.0,2110,2782,1971,3
78097.0,2089,2787,1925,3
78098.0,2040,2687,2008,3
78099.0,2040,2581,2107,3
78100.0,2042,2504,2129,3
78101.0,2029,2488,2121,3
78102.0,2019,2501,2133,3
78103.0,2005,2497,2133,3
78104.0,2000,2474,2127,3
78105.0,1983,2454,2107,3
78106.0,1941,2483,2053,3
78107.0,1935,2553,2052,3
78108.0,2010,2559,1986,3
78109.0,2069,2520,2000,3
78110.0,2065,2483,2058,3
78111.0,2071,2453,2093,3
78112.0,2076,2453,2084,3
78113.0,2103,2442,2038,3
78114.0,2112,2486,2013,3
78115.0,2129,2507,2017,3
78116.0,2153,2538,2022,3
78117.0,2176,2544,1977,3
78118.0,2173,2541,1970,3
78119.0,2133,2543,1987,3
78120.0,2060,2581,1996,3
78121.0,2039,2588,1996,3
78122.0,2028,2567,1998,3
78123.0,2024,2568,2012,3
78124.0,2020,2677,2043,3
78125.0,2011,2756,2015,3
78126.0,2003,2795,2000,3
78127.0,2019,2656,2057,3
78128.0,2065,2535,2109,3
78129.0,2084,2510,2139,3
78130.0,2100,2525,2148,3
78131.0,2109,2533,2155,3
78132.0,2113,2522,2149,3
78133.0,2121,2519,2152,3
78134.0,2154,2554,2034,3
78135.0,2211,2633,1806,3
78136.0,2086,2548,1974,3
78137.0,2044,2486,2028,3
78138.0,2053,2451,2052,3
78139.0,2056,2422,2059,3
78140.0,2058,2398,2068,3
78141.0,2050,2367,2059,3
78142.0,2026,2366,2019,3
78143.0,2014,2452,1987,3
78144.0,2041,2523,1983,3
78145.0,2100,2525,1982,3
78146.0,2112,2504,1977,3
78147.0,2097,2501,1971,3
78148.0,2068,2527,1972,3
78149.0,2054,2558,1970,3
78150.0,2074,2595,1960,3
78151.0,2093,2632,1937,3
78152.0,2130,2679,1943,3
78153.0,2128,2762,1952,3
78154.0,2103,2791,1927,3
78155.0,2059,2756,1955,3
78156.0,2034,2661,2038,3
78157.0,2040,2549,2079,3
78158.0,2025,2499,2100,3
78159.0,2022,2478,2098,3
78160.0,2007,2471,2112,3
78161.0,2005,2433,2114,3
78162.0,2004,2392,2106,3
78163.0,1997,2373,2106,3
78164.0,1984,2409,2093,3
78165.0,1949,2545,2027,3
78166.0,2048,2662,1947,3
78167.0,2115,2623,1941,3
78168.0,2096,2544,2010,3
78169.0,2098,2524,2053,3
78170.0,2112,2508,2040,3
78171.0,2124,2480,2004,3
78172.0,2126,2464,1990,3
78173.0,2119,2445,1991,3
78174.0,2118,2459,1995,3
78175.0,2125,2476,1993,3
78176.0,2099,2475,1971,3
78177.0,2108,2498,1951,3
78178.0,2124,2526,1937,3
78179.0,2129,2535,1940,3
78180.0,2092,2570,1926,3
78181.0,2061,2619,1938,3
78182.0,2037,2686,1955,3
78183.0,2033,2784,1945,3
78184.0,2019,2801,1934,3
78185.0,2033,2684,2026,3
78186.0,2065,2587,2082,3
78187.0,2087,2550,2079,3
78188.0,2124,2536,2068,3
78189.0,2135,2480,2070,3
78190.0,2137,2436,2080,3
78191.0,2125,2403,2109,3
78192.0,2128,2424,2137,3
78193.0,2133,2504,2155,3
78194.0,2128,2565,2167,3
78195.0,2149,2636,2019,3
78196.0,2020,2634,1797,3
78197.0,1994,2537,1947,3
78198.0,2060,2467,2078,3
78199.0,2068,2438,2106,3
78200.0,1999,2472,1986,3
78201.0,2002,2476,1987,3
78202.0,2004,2498,1995,3
78203.0,2007,2533,2009,3
78204.0,2000,2545,2011,3
78205.0,1990,2527,1987,3
78206.0,2015,2556,1991,3
78207.0,2074,2564,2015,3
78208.0,2097,2587,2010,3
78209.0,2130,2625,1977,3
78210.0,2143,2690,1986,3
78211.0,2149,2755,2003,3
78212.0,2130,2711,1974,3
78213.0,2025,2635,2051,3
78214.0,2021,2531,2067,3
78215.0,2011,2500,2071,3
78216.0,2001,2501,2072,3
78217.0,1990,2504,2096,3
78218.0,1985,2495,2108,3
78219.0,1983,2477,2095,3
78220.0,1929,2495,2014,3
78221.0,1933,2573,1959,3
78222.0,2028,2577,1978,3
78223.0,2065,2543,2030,3
78224.0,2066,2488,2063,3
78225.0,2071,2449,2082,3
78226.0,2077,2426,2077,3
78227.0,2091,2403,2049,3
78228.0,2109,2414,2019,3
78229.0,2123,2487,2007,3
78230.0,2127,2539,1986,3
78231.0,2132,2563,1973,3
78232.0,2091,2556,1960,3
78233.0,2065,2545,1958,3
78234.0,2066,2553,1972,3
78235.0,2053,2544,1992,3
78236.0,2051,2547,1993,3
78237.0,2040,2555,1967,3
78238.0,2029,2648,1977,3
78239.0,2039,2783,1992,3
78240.0,2048,2807,1970,3
78241.0,2077,2724,2017,3
78242.0,2090,2624,2047,3
78243.0,2097,2536,2062,3
78244.0,2099,2484,2072,3
78245.0,2107,2459,2093,3
78246.0,2112,2459,2122,3
78247.0,2108,2461,2143,3
78248.0,2109,2485,2150,3
78249.0,2104,2525,2153,3
78250.0,2118,2619,2022,3
78251.0,2070,2654,1815,3
78252.0,2088,2548,1960,3
78253.0,2076,2475,2034,3
78254.0,2075,2449,2055,3
78255.0,2067,2423,2057,3
78256.0,2053,2404,2055,3
78257.0,2041,2421,2041,3
78258.0,2031,2479,2015,3
78259.0,2024,2541,2000,3
78260.0,2041,2565,2002,3
78261.0,2064,2574,1989,3
78262.0,2065,2597,1978,3
78263.0,2078,2622,1978,3
78264.0,2093,2621,1979,3
78265.0,2107,2591,1975,3
78266.0,2114,2552,1980,3
78267.0,2111,2539,1986,3
78268.0,2061,2514,1982,3
78269.0,2035,2496,1994,3
78270.0,2033,2495,2025,3
78271.0,2022,2519,2044,3
78272.0,2017,2529,2041,3
78273.0,2011,2505,2025,3
78274.0,1992,2503,2003,3
78275.0,1999,2540,2009,3
78276.0,2000,2556,2006,3
78277.0,2000,2563,1999,3
78278.0,2071,2553,2009,3
78279.0,2070,2555,2002,3
78280.0,2073,2555,1992,3
78281.0,2054,2558,1989,3
78282.0,2030,2539,1985,3
78283.0,2032,2522,1989,3
78284.0,2031,2503,1993,3
78285.0,2034,2488,1995,3
78286.0,2041,2479,2001,3
78287.0,2034,2490,2012,3
78288.0,2034,2499,2016,3
78289.0,2042,2537,2011,3
78290.0,2041,2569,2025,3
78291.0,2041,2607,2031,3
78292.0,2030,2583,2013,3
78293.0,2022,2573,2007,3
78294.0,2019,2553,1998,3
78295.0,2014,2540,1978,3
78296.0,2034,2550,1996,3
78297.0,2053,2549,2008,3
78298.0,2077,2539,2010,3
78299.0,2090,2514,2003,3
78300.0,2097,2491,2025,3
78301.0,2094,2482,2044,3
78302.0,2093,2493,2065,3
78303.0,2105,2513,2072,3
78304.0,2105,2545,2062,3
78305.0,2118,2569,2051,3
78306.0,2134,2575,2016,3
78307.0,2107,2557,2024,3
78308.0,2065,2527,2043,3
78309.0,2060,2527,2058,3
78310.0,2052,2527,2077,3
78311.0,2059,2539,2099,3
78312.0,2057,2551,2103,3
78313.0,2048,2573,2099,3
78314.0,2049,2588,2088,3
78315.0,2039,2590,2072,3
78316.0,2050,2581,2057,3
78317.0,2073,2575,2036,3
78318.0,2086,2550,2021,3
78319.0,2081,2523,2036,3
78320.0,2070,2505,2073,3
78321.0,2062,2510,2093,3
78322.0,2075,2536,2070,3
78323.0,2057,2559,2029,3
78324.0,2028,2547,2018,3
78325.0,2027,2539,2039,3
78326.0,2025,2529,2068,3
78327.0,2021,2531,2080,3
78328.0,2026,2549,2075,3
78329.0,2016,2555,2063,3
78330.0,2053,2561,2055,3
78331.0,2066,2560,2046,3
78332.0,2080,2562,2045,3
78333.0,2081,2552,2049,3
78334.0,2057,2541,2048,3
78335.0,2057,2535,2049,3
78336.0,2044,2539,2047,3
78337.0,2048,2546,2043,3
78338.0,2052,2547,2034,3
78339.0,2071,2533,2013,3
78340.0,2070,2514,2012,3
78341.0,2076,2510,2010,3
78342.0,2076,2509,2017,3
78343.0,2059,2527,2023,3
78344.0,2056,2535,2017,3
78345.0,2045,2541,2003,3
78346.0,2040,2533,1983,3
78347.0,2027,2531,1996,3
78348.0,2024,2538,2015,3
78349.0,2027,2528,2025,3
78350.0,2045,2503,2014,3
78351.0,2055,2486,1997,3
78352.0,2041,2497,1992,3
78353.0,2031,2511,1997,3
78354.0,2021,2524,1995,3
78355.0,2014,2542,1988,3
78356.0,2015,2567,1963,3
78357.0,2018,2587,1953,3
78358.0,2026,2584,1963,3
78359.0,2028,2561,1988,3
78360.0,2037,2544,2001,3
78361.0,2045,2533,2005,3
78362.0,2056,2523,1991,3
78363.0,2050,2519,1991,3
78364.0,2052,2519,1987,3
78365.0,2049,2531,1990,3
78366.0,2052,2538,1979,3
78367.0,2060,2539,1982,3
78368.0,2055,2528,1983,3
78369.0,2063,2532,1987,3
78370.0,2079,2513,1974,3
78371.0,2079,2515,1976,3
78372.0,2080,2525,1979,3
78373.0,2084,2538,1990,3
78374.0,2081,2535,1986,3
78375.0,2091,2539,1992,3
78376.0,2084,2545,1997,3
78377.0,2082,2539,1993,3
78378.0,2083,2543,1987,3
78379.0,2089,2531,1981,3
78380.0,2091,2531,1970,3
78381.0,2085,2521,1961,3
78382.0,2080,2519,1964,3
78383.0,2070,2508,1964,3
78384.0,2061,2508,1966,3
78385.0,2050,2501,1965,3
78386.0,2039,2492,1952,3
78387.0,2040,2491,1948,3
78388.0,2030,2501,1948,3
78389.0,2029,2498,1948,3
78390.0,2025,2503,1953,3
78391.0,2025,2499,1957,3
78392.0,2033,2498,1962,3
78393.0,2044,2500,1963,3
78394.0,2042,2499,1956,3
78395.0,2042,2494,1950,3
78396.0,2055,2491,1958,3
78397.0,2055,2486,1970,3
78398.0,2058,2479,1977,3
78399.0,2058,2487,1970,3
78400.0,2049,2497,1971,3
78401.0,2061,2518,1968,3
78402.0,2060,2535,1973,3
78403.0,2054,2545,1981,3
78404.0,2050,2552,1980,3
78405.0,2051,2566,1980,3
78406.0,2043,2560,1975,3
78407.0,2043,2555,1980,3
78408.0,2043,2573,1980,3
78409.0,2020,2619,2001,3
78410.0,2020,2643,2010,3
78411.0,2012,2660,2008,3
78412.0,2021,2689,2043,3
78413.0,2035,2717,2098,3
78414.0,2056,2671,2119,3
78415.0,2072,2565,2106,3
78416.0,2082,2501,2118,3
78417.0,2099,2489,2139,3
78418.0,2112,2522,2161,3
78419.0,2115,2543,2169,3
78420.0,2117,2540,2163,3
78421.0,2121,2515,2156,3
78422.0,2121,2514,2155,3
78423.0,2123,2533,2162,3
78424.0,2123,2539,2129,3
78425.0,2060,2581,1869,3
78426.0,2050,2534,1932,3
78427.0,2079,2497,2086,3
78428.0,2087,2465,2132,3
78429.0,2081,2472,2146,3
78430.0,2071,2511,2152,3
78431.0,2048,2561,2102,3
78432.0,2026,2597,2074,3
78433.0,2018,2592,2045,3
78434.0,2018,2575,2046,3
78435.0,2020,2561,2054,3
78436.0,2053,2558,2073,3
78437.0,2071,2555,2071,3
78438.0,2078,2557,2075,3
78439.0,2078,2567,2087,3
78440.0,2074,2595,2070,3
78441.0,2067,2634,2037,3
78442.0,2089,2665,1995,3
78443.0,2117,2679,1985,3
78444.0,2113,2666,2050,3
78445.0,2101,2635,2100,3
78446.0,2080,2558,2116,3
78447.0,2068,2511,2127,3
78448.0,2043,2496,2138,3
78449.0,2039,2500,2155,3
78450.0,2035,2511,2159,3
78451.0,2017,2525,2162,3
78452.0,2010,2545,2163,3
78453.0,2005,2576,2167,3
78454.0,2000,2596,2169,3
78455.0,1990,2587,2163,3
78456.0,1995,2539,2151,3
78457.0,1991,2505,2120,3
78458.0,1991,2544,1957,3
78459.0,2045,2503,1924,3
78460.0,2073,2475,1972,3
78461.0,2060,2437,2066,3
78462.0,2057,2424,2123,3
78463.0,2062,2431,2130,3
78464.0,2068,2437,2132,3
78465.0,2087,2429,2097,3
78466.0,2120,2473,1953,3
78467.0,2125,2480,1915,3
78468.0,2111,2464,1995,3
78469.0,2110,2443,2038,3
78470.0,2114,2450,2032,3
78471.0,2067,2482,1993,3
78472.0,2055,2501,1968,3
78473.0,2042,2519,1967,3
78474.0,2038,2511,1960,3
78475.0,2039,2508,1961,3
78476.0,2057,2501,1950,3
78477.0,2052,2504,1943,3
78478.0,2040,2493,1927,3
78479.0,2025,2482,1924,3
78480.0,2014,2457,1939,3
78481.0,2017,2456,1966,3
78482.0,2027,2563,2002,3
78483.0,2051,2669,1994,3
78484.0,2054,2793,1916,3
78485.0,2101,2740,1999,3
78486.0,2078,2633,2108,3
78487.0,2101,2669,2131,3
78488.0,2153,2727,2019,3
78489.0,2153,2691,1844,3
78490.0,2034,2631,1963,3
78491.0,2040,2551,2034,3
78492.0,2025,2484,2055,3
78493.0,2016,2443,2034,3
78494.0,2010,2404,2017,3
78495.0,2009,2385,2008,3
78496.0,2010,2380,2015,3
78497.0,2011,2371,2037,3
78498.0,2051,2394,2042,3
78499.0,2065,2415,2041,3
78500.0,2076,2453,2023,3
78501.0,2082,2506,2002,3
78502.0,2094,2561,1982,3
78503.0,2143,2631,1956,3
78504.0,2151,2649,1934,3
78505.0,2143,2607,1957,3
78506.0,2136,2582,1975,3
78507.0,2145,2627,1996,3
78508.0,2150,2716,2002,3
78509.0,2138,2711,1956,3
78510.0,2066,2689,2028,3
78511.0,2041,2709,2077,3
78512.0,2015,2705,2066,3
78513.0,1987,2630,2029,3
78514.0,1979,2523,2058,3
78515.0,1976,2449,2087,3
78516.0,1975,2441,2094,3
78517.0,1960,2458,2089,3
78518.0,1899,2468,2012,3
78519.0,1949,2518,1978,3
78520.0,2056,2477,2010,3
78521.0,2042,2456,2069,3
78522.0,2056,2459,2107,3
78523.0,2079,2480,2105,3
78524.0,2122,2520,2038,3
78525.0,2160,2539,1993,3
78526.0,2183,2563,1969,3
78527.0,2259,2590,1909,3
78528.0,2187,2598,2025,3
78529.0,2156,2524,1970,3
78530.0,2061,2526,1957,3
78531.0,2058,2515,2007,3
78532.0,2054,2508,2042,3
78533.0,2048,2491,2050,3
78534.0,2030,2491,2051,3
78535.0,2020,2513,2052,3
78536.0,2025,2585,2085,3
78537.0,2010,2709,2083,3
78538.0,1954,2800,2012,3
78539.0,1957,2744,2014,3
78540.0,2086,2507,2090,3
78541.0,2086,2509,2093,3
78542.0,2093,2523,2096,3
78543.0,2115,2512,2102,3
78544.0,2117,2488,2111,3
78545.0,2134,2504,2100,3
78546.0,2171,2545,2048,3
78547.0,2271,2583,1882,3
78548.0,2176,2556,2015,3
78549.0,2132,2479,2045,3
78550.0,2095,2466,2076,3
78551.0,2071,2468,2073,3
78552.0,2063,2485,2064,3
78553.0,2038,2523,2041,3
78554.0,2032,2553,2017,3
78555.0,2043,2559,2024,3
78556.0,2031,2547,2020,3
78557.0,2026,2526,2023,3
78558.0,2023,2511,2032,3
78559.0,2031,2497,2041,3
78560.0,2021,2501,2040,3
78561.0,2013,2513,2051,3
78562.0,2014,2527,2054,3
78563.0,2002,2539,2052,3
78564.0,2004,2543,2042,3
78565.0,1993,2541,2033,3
78566.0,1992,2546,2034,3
78567.0,1989,2592,2035,3
78568.0,1982,2644,2044,3
78569.0,1968,2695,2012,3
78570.0,1962,2637,1959,3
78571.0,1985,2575,2061,3
78572.0,2017,2546,2109,3
78573.0,2009,2558,2095,3
78574.0,2037,2560,2048,3
78575.0,2057,2538,2015,3
78576.0,2059,2528,2019,3
78577.0,2071,2520,2049,3
78578.0,2070,2525,2074,3
78579.0,2072,2538,2048,3
78580.0,2076,2538,2017,3
78581.0,2058,2525,1999,3
78582.0,2041,2495,2015,3
78583.0,2033,2473,2047,3
78584.0,2018,2466,2058,3
78585.0,2021,2484,2057,3
78586.0,2012,2516,2049,3
78587.0,2017,2530,2047,3
