timestamp,accX,accY,accZ
2866042277000,2.87,6.36,1.9885708
2866092235000,0.46,5.13,2.4925237
2866142253000,0.65,4.1,2.4516625
2866192271000,1.12,3.87,3.0237172
2866242229000,-3.83,10.38,0.92618364
2866292277000,7.86,7.25,2.1111538
2866342235000,-5.94,12.91,0.9942854
2866392284000,-5.2,12.37,3.1054392
2866442241000,-0.91,10.95,-2.070293
2866492229000,-0.65,12.3,1.6480621
2866542308000,-1.92,10.69,-1.7978859
2866592265000,-0.95,10.88,0.38136974
2866642284000,-1.57,7.55,-0.08172209
2866692302000,-0.42,6.74,2.3699405
2866742198000,0.23,6.93,0.88532263
2866792277000,2.83,7.89,-0.19068487
2866842204000,0.65,10.95,0.10896278
2866892284000,-1.92,9.89,2.8738933
2866942271000,-1.69,8.31,2.9147544
2866992259000,-1.04,13.67,4.7943625
2867042277000,-3.98,18.92,4.5219555
2867092265000,-1.14,11.8,4.1814466
2867142253000,-1.46,7.35,2.6423476
2867192241000,-1.92,4.82,0.6537767
2867242198000,-0.61,2.03,0.19068487
2867292338000,-1.38,0.89,0.19068487
2867342113000,1.57,10.65,1.7570249
2867342113000,1.57,10.65,1.7570249
2867442210000,-6.02,11.84,6.742072
2867442210000,-6.02,11.84,6.742072
2867492351000,-3.21,12.95,3.5957718
2867552318000,-1.42,13.8,4.099725
2867612315000,-3.26,13.25,-3.1463003
2867662242000,-2.37,11.8,-1.0760075
2867712230000,-0.19,9.04,-0.10896278
2867762248000,-1.57,7.4,1.56634
2867812297000,-1.42,4.6,0.50395286
2867862254000,0.57,7.46,2.070293
2867962230000,0.61,11.56,1.8387469
2868012279000,-0.5,10.46,2.9147544
2868062266000,-2.72,11.37,6.1700177
2868112315000,-3.15,18.31,3.1054392
2868162303000,-4.9,10.42,2.3018389
2868212321000,-2.41,5.9,2.5333846
2868262279000,-2.49,4.25,1.7978859
2868312297000,-0.76,1.33,1.56634
2868362285000,4.21,7.7,0.6537767
2868412303000,-1.53,8.43,1.6480621
2868462260000,-2.26,9.53,5.8976107
2868512309000,-8.58,11.5,5.597963
2868562236000,-1.84,14.9,-3.0645783
2868612315000,-1.18,16.82,2.2201166
2868662273000,-4.33,9.58,-1.0760075
2868712230000,-0.3,10.53,0.84446156
2868762279000,-0.76,6.13,1.1168685
2868812236000,-0.57,5.05,0.42223078
2868862285000,2.37,9.04,2.2201166
2868912303000,-0.76,8.2,1.2258313
2868962230000,0.61,11.03,1.8387469
2869012279000,-1.53,9.62,2.5606253
2869062236000,-1.65,14.48,7.273266
2869112254000,-3.06,17.62,2.9556155
2869162273000,-6.55,7.74,3.718355
2869212291000,-0.53,7.01,2.4516625
2869262279000,-1.08,5.63,2.0294318
2869312297000,-1.38,2.83,0.6537767
2869372325000,-0.42,2.87,0.3405087
2869422343000,2.26,10.27,3.445948
2869472270000,2.11,9.34,5.012288
2869522258000,-5.37,14.48,4.3312707
2869572307000,-10.23,14.02,3.990762
2869622203000,0.57,14.44,-0.6946377
2869672282000,-4.4,13.72,-0.88532263
2869722240000,-1.73,8.5,-0.040861044
2869772258000,-1.8,7.08,0.23154591
2869872264000,0.99,7.82,1.3075534
2869922252000,-0.89,6.4,0.53119355
2869972270000,1.04,10.95,0.9942854
2870022197000,-0.3,11.22,3.405087
2870072307000,-1.73,8.66,3.8681788
2870122203000,-1.31,14.06,5.7477865
2870172282000,-5.86,18.16,5.134871
2870222362000,-4.71,4.44,1.920469
2870272288000,-1.46,8.62,3.568531
2870322307000,-2.37,2.91,0.8036005
2870372325000,-1.18,1.46,0.38136974
2870422313000,0.65,5.79,0.3405087
2870472392000,0.84,9.72,2.3426998
2870522288000,-0.76,10.73,4.440233
2870572337000,-6.51,10.34,5.8976107
2870632274000,-2.03,11.99,-4.099725
2870682201000,0.53,18.24,5.7886477
2870732310000,-5.18,10.5,-1.6480621
2870782237000,-2.34,11.88,-0.23154591
2870832286000,-1.04,8.05,-0.14982383
2870882243000,-0.89,7.16,2.982856
2870932262000,-2.22,2.76,0.84446156
2870982249000,1.04,7.21,-0.88532263
2871032298000,2.83,12.03,1.4573772
2871082225000,-1.04,9.38,3.1463003
2871132274000,-1.61,11.88,6.1700177
2871182201000,-3.36,17.88,3.8681788
2871232280000,-5.43,13.8,3.568531
2871282207000,-2.37,7.01,3.405087
2871332286000,-1.38,6.93,2.152015
2871382243000,-1.8,1.38,0.61291564
2871432262000,-0.84,8.54,2.152015
2871536540000,-0.15,8.54,2.152015
2871536540000,-0.15,8.54,2.152015
2871536540000,-0.15,8.54,2.152015
2871642284000,-7.59,17.39,-1.7978859
2871692241000,-1.57,15.83,7.43671
2871742229000,-3.3,11.18,-2.3699405
2871792216000,-1.27,11.07,-1.0351465
2871842235000,-1.12,7.21,2.4108016
2871892253000,0.69,6.02,-1.2258313
2871942241000,0.42,4.1,-1.1441092
2871992229000,-1.42,8.2,0.46309182
2872042277000,-0.8,10.76,3.0237172
2872142284000,-4.18,10.34,1.4982382
2872192271000,-7.93,19.04,0.7218784
2872242229000,-8.69,15.89,-0.3405087
2872292277000,-2.14,13.29,3.6774938
2872342235000,-1.42,7.67,-0.6537767
2872342235000,-1.42,7.67,-0.6537767
2872402568000,-2.75,0.53,-1.920469
2872452312000,-1.33,1.12,0.50395286
2872502574000,-1.14,6.17,2.4925237
2872552287000,-1.69,18.43,8.662541
2872602641000,-4.75,10.57,4.0180025
2872662273000,-5.28,13.29,4.5219555
2872712260000,-3.91,6.47,-4.903325
2872762309000,-8.69,6.7,-0.6946377
2872812236000,-2.03,12.72,-1.1849703
2872862315000,-1.8,10.92,-0.38136974
2872912273000,-1.53,8.43,-1.2666923
2872962291000,-1.18,9.7,0.6537767
2873012279000,1.69,6.4,1.920469
2873062266000,3.26,5.24,-0.23154591
2873112254000,0.57,10.84,1.607201
2873162273000,-2.68,8.31,3.255263
2873212230000,-1.27,10.23,1.879608
2873262248000,0.19,9.96,3.7864566
2873312236000,-1.61,9.92,2.070293
2873362285000,-3.36,19.08,4.0180025
2873412242000,-3.98,13.95,1.2666923
2873462260000,-4.67,8.28,3.1054392
2873512248000,-1.31,4.29,-0.42223078
2873612254000,0.93,3.6,0.7627395
2873662273000,2.49,9.04,2.4108016
2873712230000,-1.92,8.96,2.7921712
2873762279000,-7.89,8.73,6.4424243
2873812236000,-4.18,11.69,-4.862464
2873862285000,0.46,18.58,7.014479
2873912242000,-3.98,12.45,-0.9942854
2873962291000,-3.45,11.35,0.27240697
2874012279000,-0.99,8.66,2.2609777
2874062266000,-1.12,5.9,1.7297841
2874162303000,1.38,10.0,0.7218784
2874212260000,1.8,10.73,3.0237172
2874262309000,-0.53,10.5,6.0474343
2874312236000,-6.28,18.81,4.671779
2874362315000,-3.49,11.18,2.3426998
2874412303000,-2.83,5.18,1.7570249
2874462260000,-3.26,6.74,2.3018389
2874512248000,-1.38,3.83,2.152015
2874562266000,0.53,6.05,-0.040861044
2874612254000,-1.18,8.24,1.3756552
2874662273000,-1.65,8.62,5.47538
2874712230000,-2.96,8.39,3.255263
2874762340000,-4.1,9.43,1.7570249
2874812266000,-5.33,13.99,3.173541
2874862346000,-1.65,15.28,1.607201
2874912273000,-2.87,13.53,-0.14982383
2874962260000,-4.21,10.88,1.2258313
2875012248000,-1.23,7.78,-1.1168685
2875062236000,-2.49,7.27,1.2666923
2875112254000,0.65,7.59,1.4573772
2875162273000,-0.65,5.37,1.1849703
2875212230000,0.57,8.39,0.42223078
2875262248000,0.19,10.99,0.92618364
2875312236000,-3.11,10.19,4.399372
2875362315000,-1.69,11.41,4.7535014
2875422343000,-3.36,17.31,4.5219555
2875472240000,-5.28,10.57,4.0588636
2875522288000,-1.73,6.02,2.4516625
2875572276000,-2.91,6.63,2.3699405
2875622295000,-2.49,3.41,0.88532263
2875682292000,-1.88,4.82,1.607201
2875742259000,1.57,9.19,2.5333846
2875792216000,-1.92,7.7,1.879608
2875842265000,-4.52,8.89,6.3607025
2875892222000,-4.63,9.34,4.2495484
2875942241000,-3.41,13.63,-2.3018389
2875992229000,-1.65,13.99,7.6954966
2876042247000,-5.48,11.73,-1.56634
2876092204000,-4.18,13.59,0.10896278
2876142253000,-2.07,7.89,-0.38136974
2876192241000,-0.99,7.46,-0.08172209
2876242229000,0.11,6.36,2.0294318
2876292247000,0.31,3.41,2.982856
2876342235000,-0.42,7.35,-0.88532263
2876392222000,0.84,12.72,1.4573772
2876442241000,-3.26,10.19,4.2904096
2876492198000,-1.23,14.86,7.014479
2876542308000,-6.13,16.82,2.7921712
2876592387000,-6.17,8.85,0.313268
2876642253000,-1.5,6.13,1.0351465
2876692210000,-0.84,6.02,0.9942854
2876742229000,-1.42,4.6,0.23154591
2876792308000,1.57,6.55,0.3405087
2876842296000,-2.37,8.92,4.7535014
2876892253000,-3.02,7.7,5.175732
2876942241000,-5.67,5.71,-0.6946377
2876992198000,-7.74,16.25,-0.29964766
2877042247000,-6.4,16.04,4.8216033
2877092204000,-1.5,12.45,0.92618364
2877142253000,-1.95,14.82,0.10896278
2877192241000,-2.45,7.27,-0.42223078
2877242229000,-2.64,6.47,-0.42223078
2877292216000,-0.42,5.33,0.7218784
2877342265000,0.72,7.21,0.313268
2877392222000,0.89,9.53,1.9477097
2877442271000,-0.91,8.85,0.7218784
2877492229000,-0.11,11.75,3.173541
2877492229000,-0.11,11.75,3.173541
2877492229000,-0.11,11.75,3.173541
2877642222000,-3.72,17.43,0.7627395
2877692363000,-4.48,6.51,2.070293
2877742259000,-0.99,6.85,1.7978859
2877792247000,-0.8,4.9,1.6889231
2877842204000,-1.61,2.98,0.50395286
2877892253000,0.46,5.13,0.7218784
2877942210000,-1.5,7.46,4.2904096
2877992229000,-2.18,7.78,4.5628166
2878042247000,-4.86,8.85,3.1463003
2878092265000,-6.24,14.94,-4.0180025
2878142253000,-2.87,16.93,6.238119
2878192271000,-3.72,10.73,1.1849703
2878242320000,-2.91,13.82,0.14982383
2878292277000,-2.49,7.5,0.42223078
2878342357000,0.19,6.93,1.7297841
2878392284000,0.34,4.06,-0.27240697
2878442241000,0.69,4.63,0.53119355
2878492259000,0.93,12.95,2.6423476
2878542216000,-1.38,8.43,3.9090397
2878592265000,-3.21,10.61,6.0474343
2878642222000,-2.96,19.11,2.2609777
2878692271000,-5.28,7.63,2.8330324
2878742229000,-1.04,6.74,2.2201166
2878792247000,-0.34,5.79,1.6889231
2878842235000,-2.96,2.3,1.4165162
2878892284000,0.34,6.24,1.879608
2878942210000,-1.69,13.82,5.5571017
2878992229000,1.33,8.92,14.47843
2879042277000,-7.65,16.28,-10.079058
2879092265000,-10.95,9.72,-0.9942854
2879142253000,-8.77,15.94,-5.5162406
2879192271000,-0.15,13.53,-0.53119355
2879242259000,-0.99,8.16,-1.2258313
2879292277000,0.65,7.67,0.08172209
2879342235000,1.65,8.81,0.92618364
2879392284000,-3.11,8.31,2.3426998
2879442271000,-4.52,9.43,-0.14982383
2879492259000,-0.46,9.58,1.3075534
2879542216000,-1.99,10.19,-0.8036005
2879592265000,-6.59,12.41,-0.14982383
2879642222000,-11.73,14.14,-4.4810944
2879692271000,-5.18,13.57,-0.3405087
2879742259000,-4.44,9.47,1.1849703
2879792247000,-3.49,6.24,-0.9125633
2879892253000,-3.64,6.55,1.5390993
2879942241000,-0.38,6.93,2.7240696
2879992229000,-0.15,6.21,4.099725
2880042247000,-0.65,5.24,2.7240696
2880092265000,-1.53,8.39,5.407278
2880142253000,-2.03,12.68,10.228881
2880192271000,-5.13,9.66,5.012288
2880242229000,-9.96,10.8,4.0588636
2880292277000,-2.18,7.82,0.10896278
2880342265000,-4.75,1.99,-2.1111538
2880392284000,-2.72,14.82,-3.0645783
2880442271000,-2.07,11.22,2.3018389
2880492229000,-2.6,9.92,1.0351465
2880542216000,-0.46,8.62,1.4573772
2880592265000,-2.14,8.66,1.7978859
2880642222000,-0.61,8.31,2.8738933
2880692241000,-0.42,7.01,1.879608
2880742259000,-0.3,5.98,0.7218784
2880792247000,0.23,7.93,0.38136974
2880892253000,-1.73,10.27,0.95342433
2880942363000,0.8,9.23,3.3778462
2880992229000,-1.08,12.64,5.2165933
2881042277000,-4.71,19.34,5.243834
2881092265000,-3.79,12.57,3.5957718
2881142253000,-4.99,3.49,2.982856
2881192271000,-3.11,5.33,2.2609777
2881242229000,-0.57,3.11,0.9942854
2881292247000,0.53,5.13,1.2258313
2881342235000,1.42,7.93,1.3756552
2881392253000,-1.69,8.62,2.1111538
2881442241000,-3.57,10.31,7.3958488
2881492259000,-5.67,9.89,3.173541
2881542247000,-3.64,12.83,0.040861044
2881592265000,-3.53,12.6,4.3312707
2881642253000,-3.36,13.8,0.3405087
2881692241000,-4.21,11.84,-3.1054392
2881742229000,-2.37,10.61,-0.10896278
2881792247000,-0.72,8.5,-0.08172209
2881842265000,-0.53,7.93,1.334794
2881892284000,-1.53,5.43,1.5390993
2881942210000,-1.5,6.7,0.5720546
2881992229000,1.99,7.82,-0.61291564
2882042247000,0.5,12.95,1.2666923
2882092265000,-2.79,9.11,3.2961242
2882142253000,-1.23,10.31,5.284695
2882192241000,-5.05,17.92,5.284695
2882242259000,-4.37,15.64,1.7570249
2882292277000,-3.26,4.4,1.7297841
2882342235000,-1.46,6.78,1.9885708
2882392253000,-1.53,4.99,1.8387469
2882442241000,-1.46,3.95,0.7627395
2882492229000,-0.95,6.63,2.0294318
2882542247000,-1.61,8.62,2.9147544
2882592265000,-5.01,8.5,4.3312707
2882642314000,-3.98,9.0,5.366417
2882642314000,-3.98,9.0,5.366417
2882742198000,-5.01,11.37,-1.7297841
2882792308000,-3.45,17.24,3.718355
2882792308000,-3.45,17.24,3.718355
2882852489000,-4.02,10.88,-2.4925237
2882902263000,-2.14,11.54,0.84446156
2882952464000,-0.34,7.46,-0.14982383
2883002269000,-1.57,6.55,1.7570249
2883052470000,0.5,6.13,1.879608
2883102275000,-0.38,6.09,0.9942854
2883152415000,0.53,10.76,0.53119355
2883202281000,-1.57,10.19,3.0237172
2883252452000,-3.36,9.38,5.5162406
2883302287000,-2.49,16.7,5.829509
2883352336000,-7.55,15.43,-0.19068487
2883402782000,-6.05,8.47,1.1441092
2883452312000,-2.41,7.27,1.607201
2883502727000,-1.14,8.5,2.5606253
2883612132000,1.92,8.5,2.5606253
2883612132000,1.92,8.5,2.5606253
2883662242000,-2.07,7.97,4.3312707
2883712260000,-3.76,8.05,4.2086873
2883762248000,-6.82,15.36,-3.214402
2883812327000,-5.13,17.16,3.8273177
2883872264000,-2.79,14.29,-0.27240697
2883922252000,-2.3,11.65,2.1111538
2883972301000,-1.18,7.7,0.84446156
2884022197000,-1.42,6.09,0.42223078
2884072276000,0.11,3.3,-0.46309182
2884122233000,0.5,5.9,0.3405087
2884172313000,1.76,14.02,2.8330324
2884222240000,-2.22,7.97,2.8738933
2884272258000,-2.49,12.49,5.6660647
2884322246000,-4.02,16.89,4.671779
2884372295000,-3.45,15.7,2.6832085
2884422221000,-5.2,7.4,2.4108016
2884472301000,-1.12,7.89,3.173541
2884522227000,-1.76,4.63,1.6889231
2884572307000,-1.8,3.53,0.5720546
2884622203000,-1.08,5.43,2.0294318
2884672313000,-1.31,6.51,2.6423476
2884722270000,-3.17,7.46,1.6889231
2884772288000,-5.13,8.01,5.175732
2884822276000,-4.29,10.34,4.2086873
2884872264000,-3.91,13.06,-3.5276701
2884922221000,-4.1,15.13,8.349273
2884972301000,-2.53,10.61,-1.4165162
2885022197000,-3.6,13.48,1.4165162
2885072307000,-1.23,8.58,0.19068487
2885122233000,-1.18,6.97,1.2666923
2885172343000,-0.53,6.32,1.7297841
2885222270000,0.53,5.67,1.2666923
2885272258000,-0.3,7.59,-0.29964766
2885322246000,-0.15,11.65,0.7218784
2885372264000,-1.76,11.14,4.0588636
2885422252000,-1.8,9.43,3.759216
2885472270000,-2.68,18.01,3.568531
2885522227000,-5.05,13.8,3.568531
2885572307000,-3.26,6.85,2.4925237
2885622203000,-2.91,7.5,2.0294318
2885672313000,-1.99,3.91,0.50395286
2885722209000,-0.95,2.53,0.313268
2885772288000,1.04,5.41,1.1168685
2885822215000,-2.56,11.45,4.630918
2885872295000,-2.34,9.47,6.4015636
2885922252000,-3.45,8.5,-1.4982382
2885972331000,-4.56,12.64,4.0588636
2886022197000,-3.45,17.24,-1.525479
2886072307000,-3.87,13.67,-0.6946377
2886122233000,-2.11,10.04,-0.38136974
2886172282000,-0.72,8.16,0.6537767
2886222270000,-2.07,5.71,1.5390993
2886272258000,-0.11,5.01,0.10896278
2886322215000,0.84,10.04,1.1849703
2886372295000,0.57,9.7,2.7921712
2886422252000,-1.69,8.5,3.3778462
2886472270000,-3.72,15.94,6.238119
2886522197000,-5.33,15.7,2.6832085
2886572276000,-5.13,7.31,1.607201
2886622233000,-1.33,7.16,2.2609777
2886672282000,-2.56,4.44,1.4982382
2886722240000,-1.88,3.15,1.1168685
2886772258000,0.8,6.09,0.8036005
2886872295000,-4.14,11.75,5.9793324
2886922252000,-6.51,9.47,7.9270425
2886972270000,-4.29,14.48,-7.1234417
2887022227000,-4.67,12.49,-1.0760075
2887072276000,-6.78,14.9,-5.938472
2887122233000,-5.52,9.15,-0.6537767
2887172252000,-2.53,9.53,-2.4925237
2887222240000,2.72,9.15,-0.14982383
2887272288000,0.57,9.34,1.5390993
2887322246000,-6.32,7.7,1.3756552
2887372295000,-1.14,11.07,0.38136974
2887422221000,-3.76,10.15,1.7570249
2887472270000,-6.21,10.57,0.19068487
2887522227000,-11.3,10.46,-2.8738933
2887572307000,-7.63,15.02,-1.525479
2887622233000,-5.24,11.37,1.4573772
2887672282000,-4.71,8.05,-0.3405087
2887722209000,-1.57,5.9,0.040861044
2887772258000,-1.57,4.18,-0.3405087
2887822246000,-1.33,5.43,1.607201
2887872264000,-0.53,6.47,4.5219555
2887922252000,-2.45,7.27,5.706926
2887972270000,-4.37,10.99,6.510526
2888022197000,-2.96,11.03,8.349273
2888072276000,-8.62,9.15,3.718355
2888122203000,-4.67,9.3,1.1849703
2888172282000,-5.28,3.99,-1.6480621
2888222209000,-4.1,11.99,-1.4573772
2888272288000,-3.91,11.41,0.92618364
2888322215000,-2.34,9.53,-0.14982383
2888372264000,0.15,9.34,1.3075534
2888422221000,-0.57,9.53,1.4982382
2888472270000,-1.23,8.2,2.3018389
2888522227000,-0.42,6.24,1.3756552
2888572276000,-1.69,4.37,0.84446156
2888632365000,-1.23,9.47,-0.7218784
2888682323000,-0.08,10.5,1.2258313
2888732280000,0.53,10.42,2.2609777
2888782207000,-2.07,9.08,3.7864566
2888832286000,-6.43,16.47,5.47538
2888882274000,-1.33,18.77,0.8036005
2888932262000,-5.94,6.4,1.7297841
2888982219000,-2.37,6.44,1.1849703
2889032268000,-0.76,3.45,-0.10896278
2889082225000,-1.99,2.41,-0.10896278
2889132274000,0.34,4.02,0.38136974
2889182231000,1.04,10.42,4.630918
2889232280000,-5.09,10.46,5.325556
2889282237000,-8.81,11.41,4.7943625
2889332286000,-1.57,10.88,-1.879608
2889382243000,-3.49,18.2,3.336985
2889432262000,-1.73,11.14,-3.0645783
2889482249000,-3.98,12.03,-1.1168685
2889632243000,-0.11,4.4,-0.10896278
2889682292000,1.95,9.04,1.6889231
2889732219000,-0.46,8.01,0.3405087
2889782268000,1.12,12.91,2.4516625
2889832255000,-2.22,9.92,3.2961242
2889882274000,-2.96,14.9,6.238119
2889932262000,-4.29,17.43,2.152015
2889982280000,-5.75,7.78,2.152015
2890032237000,-1.65,8.05,1.607201
2890082286000,-3.15,4.9,1.1849703
2890132213000,-1.12,2.56,0.95342433
2890182292000,1.04,5.63,1.334794
2890232249000,0.31,6.93,0.42223078
2890282298000,-2.6,9.72,3.8681788
2890332225000,-5.94,9.66,6.510526
2890382274000,-5.79,12.18,0.10896278
2890432201000,-5.67,13.21,2.4925237
2890482280000,-2.3,16.21,2.0294318
2890532237000,-0.57,12.76,-3.9090397
2890582286000,-1.73,9.04,0.88532263
2890632243000,-2.49,7.27,-0.84446156
2890682292000,-0.72,5.94,2.5333846
2890732219000,-0.57,5.28,2.7921712
2890782298000,-1.99,5.43,0.42223078
2890832255000,1.8,11.54,0.7218784
2890882274000,-1.12,11.26,3.486809
2890932231000,-3.68,18.09,7.205164
2890982310000,-5.75,16.21,3.486809
2891032268000,-5.37,8.01,2.3426998
2891082286000,-2.91,5.6,1.2258313
2891132213000,-2.26,5.83,1.3075534
2891182292000,-1.5,3.3,0.3405087
2891232219000,1.46,7.7,0.38136974
2891282268000,-3.41,7.82,3.5957718
2891332255000,-1.69,7.78,4.5219555
2891382274000,-7.31,10.27,1.56634
2891432262000,-3.34,10.73,-0.9125633
2891482280000,-5.43,14.21,3.9499009
2891532207000,-1.88,13.21,0.23154591
2891582286000,-2.56,11.88,-2.4516625
2891632213000,-1.5,8.2,0.53119355
2891682262000,-0.76,8.08,0.040861044
2891732219000,-0.53,6.51,0.9942854
2891782268000,-1.08,7.21,2.3426998
2891832225000,0.08,8.01,1.6480621
2891882274000,0.08,8.96,1.6889231
2891932201000,-0.65,11.75,3.486809
2891982310000,-3.57,18.73,6.2108784
2892032237000,-6.13,13.8,2.5333846
2892082286000,-4.18,9.85,0.9942854
2892132213000,-1.46,4.82,-0.040861044
2892182262000,-0.76,3.45,-0.38136974
2892232249000,0.34,1.42,0.8036005
2892282268000,3.45,7.78,2.2609777
2892332255000,-3.95,9.77,3.3778462
2892382274000,-7.44,10.23,7.9679036
2892432262000,-5.82,12.76,-8.19945
2892482310000,-4.67,18.05,8.117727
2892532207000,-5.6,10.92,-1.607201
2892632213000,-0.34,6.74,1.4165162
2892682262000,0.46,6.55,2.0294318
2892732249000,-0.42,2.53,-0.95342433
2892782268000,-0.42,4.63,0.23154591
2892832255000,2.11,15.51,2.6423476
2892882274000,-1.12,8.24,4.8216033
2892932201000,-0.61,14.44,6.973618
2892982341000,-5.09,19.19,3.173541
2893032237000,-4.75,9.28,2.7240696
2893082286000,-2.87,6.36,2.152015
2893132213000,-2.87,5.18,1.334794
2893182262000,-1.8,2.15,0.92618364
2893232219000,-0.23,4.63,0.38136974
2893282268000,0.89,8.2,3.7864566
2893332225000,-3.98,9.15,5.407278
2893382274000,-3.68,8.89,6.2108784
2893432201000,-4.4,11.96,-5.597963
2893482310000,-4.71,15.55,7.6954966
2893532237000,-2.64,13.95,-2.1792557
2893582316000,-3.21,13.99,-0.7218784
2893632243000,-2.96,8.28,-0.5720546
2893682262000,-1.65,6.7,0.6946377
2893732249000,-0.08,4.9,0.50395286
2893782298000,0.57,3.38,0.14982383
2893832255000,2.6,13.48,2.6014864
2893882304000,-1.18,8.96,5.366417
2893932201000,-5.43,11.11,5.5571017
2893982280000,-2.87,16.66,2.5333846
2894032268000,-7.5,7.97,2.2609777
2894082286000,-1.04,6.05,1.879608
2894132213000,-0.27,3.79,0.9942854
2894182262000,-3.21,3.06,1.4982382
2894232249000,-0.46,10.27,4.862464
2894282268000,-2.11,12.45,6.0474343
2894332286000,-2.53,7.7,5.7886477
2894382304000,-9.0,18.89,-0.14982383
2894432231000,-12.11,7.06,-4.903325
2894482280000,-5.6,15.24,-4.5900574
2894532237000,-1.88,10.31,-1.334794
2894582316000,-1.31,7.97,-1.879608
2894632365000,0.61,8.62,-2.4925237
2894682384000,-0.8,9.28,1.7570249
2894732280000,-0.46,9.38,0.10896278
2894782329000,1.33,11.96,1.2666923
2894842235000,-4.25,8.92,2.1792557
2894892222000,-3.6,8.58,0.7627395
2894942271000,-2.07,10.15,1.3075534
2894992259000,-4.37,10.27,0.53119355
2895042338000,-5.09,13.14,-1.334794
2895092204000,-9.38,13.67,-0.5720546
2895142253000,-5.86,11.54,0.61291564
2895192241000,-4.4,9.08,1.879608
2895242229000,-0.95,7.31,0.53119355
2895292216000,-0.61,6.44,-0.14982383
2895342235000,-1.14,4.06,0.95342433
2895392222000,-0.27,3.41,1.920469
2895442241000,0.69,4.21,2.2609777
2895492198000,-1.46,5.6,-0.08172209
2895542247000,-2.34,11.69,6.238119
2895542247000,-2.34,11.69,6.238119
2895642253000,-5.24,9.72,3.5276701
2895692271000,-2.53,8.85,0.14982383
2895742259000,-4.79,14.79,2.8330324
2895792277000,-2.07,15.05,1.7570249
2895842235000,-7.4,10.69,-2.6014864
2895892253000,-1.42,11.92,0.27240697
2895942210000,-2.96,8.77,0.14982383
2895992229000,-1.99,7.08,1.6889231
2896042277000,-0.38,5.79,1.7570249
2896092265000,0.04,0.57,0.08172209
2896142253000,1.38,6.02,-0.6946377
2896192271000,3.3,15.66,1.6480621
2896242229000,-0.04,9.43,4.3312707
2896292247000,-2.68,17.54,6.66035
2896342235000,-7.12,16.47,3.2961242
2896392253000,-1.76,12.64,3.2961242
2896442210000,-4.94,7.08,1.8387469
2896492229000,-2.49,4.33,-0.42223078
2896542216000,-1.53,2.34,-0.27240697
2896592265000,1.69,3.3,0.6946377
2896642222000,2.6,7.27,1.1441092
2896692271000,-2.45,9.7,5.6252036
2896742229000,-6.21,11.6,6.3198414
2896792247000,-6.17,14.14,-3.718355
2896842204000,-3.34,16.13,2.7240696
2896892253000,-3.95,14.44,-1.0760075
2896992229000,-1.73,6.89,-0.61291564
2897042277000,-0.95,6.4,0.88532263
2897092265000,0.89,6.55,1.4165162
2897142253000,-1.53,7.25,1.0351465
2897192271000,0.19,9.11,1.1849703
2897242198000,-0.27,11.14,2.5333846
2897292247000,-1.84,10.95,5.012288
2897342235000,-2.75,15.7,4.5628166
2897392253000,-4.48,14.21,1.2666923
2897442241000,-5.24,7.5,2.2201166
2897492229000,-2.03,8.2,2.2609777
2897542216000,-1.12,6.55,1.920469
2897592326000,-1.88,3.49,0.84446156
2897642222000,-0.72,5.28,2.7649305
2897692271000,-0.8,8.5,2.9556155
2897742229000,-5.28,7.67,2.4516625
2897792277000,-5.13,8.54,4.2904096
2897842204000,-2.03,11.8,-0.27240697
2897892284000,-6.78,13.48,6.1291566
2897942210000,-0.42,12.26,-2.7513103
2897992229000,0.99,16.09,-0.14982383
2898042216000,-1.14,8.73,1.2666923
2898092296000,-1.5,7.4,0.53119355
2898142222000,-1.73,6.32,2.0294318
2898192271000,-1.42,5.28,1.7978859
2898242229000,1.12,7.31,0.313268
2898292247000,-0.38,9.34,1.2258313
2898342235000,-0.65,11.14,3.9090397
2898392284000,-4.44,18.85,6.0201936
2898442271000,-8.16,12.22,1.334794
2898492259000,-3.83,9.51,2.4108016
2898542216000,-2.98,6.66,0.92618364
2898592296000,-1.61,3.49,-0.14982383
2898642222000,-1.38,3.26,1.1441092
2898692271000,2.64,8.47,3.9090397
2898742229000,-2.26,7.89,3.3778462
2898792277000,-7.89,6.32,5.47538
2898842235000,-2.75,13.44,-0.53119355
2898892314000,-6.66,14.21,5.47538
2898992229000,-3.26,13.87,0.7218784
2899042247000,-2.07,8.81,0.6946377
2899092235000,-1.42,6.78,0.84446156
2899142222000,-0.23,5.37,0.8036005
2899192271000,0.15,4.63,0.9942854
2899242198000,-0.15,8.96,1.9477097
2899292277000,0.76,9.62,2.2609777
2899342204000,-1.14,11.41,4.2904096
2899392284000,-3.83,16.78,5.434519
2899442241000,-4.1,13.59,1.3075534
2899492259000,-4.56,8.92,2.6832085
2899542247000,-3.02,6.32,0.6946377
2899592235000,-0.8,5.18,-0.040861044
2899642222000,-0.15,4.56,1.1849703
2899692271000,2.34,8.92,3.486809
2899742229000,-3.87,8.39,2.5333846
2899792247000,-6.66,7.4,6.973618
2899842235000,-1.88,11.84,-7.04172
2899892253000,-6.78,17.39,1.7570249
2899942241000,-2.72,15.09,0.9942854
2899992229000,-1.76,11.8,-1.2666923
2900042247000,-0.84,8.05,0.8036005
2900092235000,0.11,6.32,2.7649305
2900142284000,-0.15,3.68,0.08172209
2900192271000,0.5,8.85,1.0760075
2900242198000,1.46,9.96,2.3699405
2900292277000,-0.34,10.84,3.568531
2900342235000,-3.83,16.93,4.7535014
2900392253000,-6.17,13.4,1.607201
2900442210000,-4.63,12.34,2.7649305
2900492229000,-2.68,6.78,0.88532263
2900542247000,-3.02,4.21,-0.10896278
2900592265000,-2.6,2.37,0.46309182
2900642284000,1.31,6.78,1.2666923
2900642284000,1.31,6.78,1.2666923
2900742259000,-2.98,8.96,9.466142
2900792308000,-2.79,13.82,-4.7535014
2900792308000,-2.79,13.82,-4.7535014
2900852855000,-5.01,13.87,9.234595
2900902354000,-2.6,13.91,-8.62168
2900952312000,1.14,10.5,3.214402
2901002269000,-0.65,8.47,-0.23154591
2901052684000,-0.23,6.63,0.6537767
2901102275000,-0.04,5.18,0.46309182
2901152598000,2.41,9.85,3.1463003
2901202281000,-0.3,14.02,4.440233
2901252452000,-11.95,19.31,-0.6946377
2901302287000,-10.34,13.21,3.0645783
2901352397000,-4.94,13.99,3.173541
2901402263000,-0.65,5.6,-0.27240697
2901452464000,-1.99,0.72,-1.920469
2901502269000,0.72,2.91,0.42223078
2901502269000,0.72,2.91,0.42223078
2901602489000,-0.5,15.6,5.366417
2901652232000,-1.88,16.21,11.727119
2901702434000,-5.75,9.34,1.5390993
2901752696000,-3.26,15.66,0.08172209
2901802287000,-6.28,-1.69,0.88532263
2901852763000,-4.82,15.17,-4.903325
2901902293000,0.04,12.3,1.1849703
2901952739000,-2.41,8.2,-1.334794
2902002269000,-0.3,10.31,0.38136974
2902052775000,-1.5,9.28,-0.08172209
2902102305000,-0.91,9.19,0.23154591
2902152782000,-1.04,9.38,0.10896278
2902202312000,-1.65,9.7,-0.27240697
2902252727000,-1.88,10.46,-0.88532263
2902302318000,-2.22,10.08,0.040861044
2902352672000,-2.37,9.58,-0.19068487
2902402293000,-2.6,10.42,-0.040861044
2902452769000,-3.64,10.76,0.313268
2902502299000,-3.57,12.3,-2.4516625
2902552714000,-6.51,10.46,-0.27240697
2902602275000,-2.75,10.46,-1.1441092
2902652690000,-3.83,9.62,-0.84446156
2902702342000,-4.75,8.54,0.50395286
2902752605000,-3.34,9.34,0.23154591
2902802318000,-3.64,7.31,-0.23154591
2902852550000,-5.28,6.32,0.5720546
2902902293000,-4.14,6.93,1.1441092
2902952525000,-4.37,8.05,2.3426998
2903002299000,-5.41,8.96,3.255263
2903052531000,-5.98,8.28,2.4108016
2903102305000,-4.52,7.59,0.5720546
2903152568000,-4.75,10.04,1.3075534
2903202312000,-3.17,9.19,-0.10896278
2903252574000,-4.56,7.78,-1.3756552
2903302287000,-1.73,10.42,-0.27240697
2903355083000,-1.88,10.34,-0.9942854
2903412273000,-2.75,9.89,-0.7218784
2903462291000,-2.91,9.66,-1.3756552
2903512279000,-2.83,9.96,-0.6537767
2903562236000,-2.37,10.57,-0.6537767
2903622295000,-3.3,10.12,-0.53119355
2903682231000,-2.56,9.3,-0.84446156
2903732280000,-3.17,8.81,-0.95342433
2903782268000,-3.02,8.66,-0.88532263
2903832255000,-2.75,9.62,-0.9942854
2903882274000,-1.88,10.5,-0.7627395
2903932231000,-3.06,9.53,-0.61291564
2903982493000,-1.61,9.81,-0.38136974
2904032268000,-1.88,10.99,-0.27240697
2904082316000,-4.18,12.72,-0.23154591
2904132243000,-4.82,11.5,-1.1441092
2904182262000,-5.43,11.69,-0.6537767
2904232280000,-2.87,11.35,-3.214402
2904282268000,-1.18,9.77,-0.27240697
2904332255000,-0.95,8.28,0.53119355
2904382274000,-2.6,6.17,-0.53119355
2904432201000,-1.92,5.37,0.6946377
2904482280000,0.08,6.17,2.8738933
2904532207000,0.23,13.21,7.0553403
2904582286000,-1.95,8.77,3.3778462
2904632213000,-3.83,13.4,2.5606253
2904682231000,-3.87,6.4,0.040861044
2904732249000,-3.64,11.03,-2.4925237
2904782268000,-2.98,10.92,0.95342433
2904832255000,-2.18,9.23,0.27240697
2904882274000,-0.84,8.73,1.2258313
2904932231000,-1.31,7.74,2.152015
2904982280000,-0.27,7.82,3.1054392
2905032237000,-0.53,7.67,-0.46309182
2905082316000,-0.15,6.44,0.53119355
2905132243000,-0.46,10.76,0.040861044
2905182262000,-2.07,9.53,2.4108016
2905232249000,-2.11,9.81,3.255263
2905282298000,-0.84,10.38,4.0588636
2905332225000,-3.95,18.81,3.6774938
2905382274000,-3.36,12.72,2.152015
2905432231000,-2.83,8.2,3.3778462
2905482280000,-2.98,6.89,1.607201
2905532268000,-1.33,4.56,1.0760075
2905582316000,-2.45,5.41,1.2258313
2905632213000,-2.41,5.6,0.84446156
2905682262000,-0.8,4.82,1.2258313
2905732249000,1.54,11.56,5.8567495
2905782298000,0.04,10.99,6.973618
2905832225000,-3.02,7.82,1.7978859
2905882274000,-3.45,13.1,2.9147544
2905932231000,-4.79,15.09,-1.0760075
2905982280000,-5.18,13.48,-0.29964766
2906032207000,0.61,7.08,-0.50395286
2906082286000,-0.84,8.92,1.879608
2906132274000,-0.19,6.55,1.1168685
2906182262000,0.53,7.12,1.9885708
2906232280000,1.31,9.85,2.7921712
2906282268000,-2.03,10.19,5.012288
2906332286000,-1.95,17.43,2.4516625
2906382274000,-3.87,8.35,0.61291564
2906432201000,-1.12,5.22,0.38136974
2906482280000,-1.65,5.18,3.5276701
2906532207000,2.3,3.17,2.5333846
2906582286000,-0.89,13.67,1.6889231
2906582286000,-0.89,13.67,1.6889231
2906652293000,-8.92,9.77,8.117727
2906702434000,-3.68,14.79,-2.5606253
2906752330000,2.49,11.37,1.2258313
2906812266000,-2.07,9.04,-0.8036005
2906862254000,0.04,10.38,1.7297841
2906912303000,-1.5,8.92,0.88532263
2906962260000,1.08,9.04,2.2201166
2907012309000,-0.27,7.89,2.3018389
2907062266000,0.5,10.38,2.9147544
2907112315000,-0.95,12.18,5.284695
2907162273000,-3.41,15.32,3.214402
2907212291000,-2.26,7.78,-0.61291564
2907262279000,-4.9,8.05,3.759216
2907312297000,-1.18,4.1,0.3405087
2907362254000,-2.75,3.6,1.2666923
2907412303000,0.15,10.34,7.5865335
2907512157000,-3.76,10.34,7.5865335
2907512157000,-3.76,10.34,7.5865335
2907562205000,-4.63,9.15,2.3018389
2907612285000,-0.89,10.57,-0.23154591
2907662273000,-1.33,15.6,1.1168685
2907744456000,-0.3,7.7,1.4165162
2907744456000,-0.3,7.7,1.4165162
2907802318000,-0.84,10.53,0.5720546
2907852641000,0.5,10.23,2.7921712
2907902263000,-1.27,8.81,1.879608
2907952678000,0.76,10.57,2.1792557
2908002269000,0.61,8.47,2.7240696
2908102275000,-2.3,14.02,2.4108016
2908152598000,-6.74,7.89,3.718355
2908202312000,-2.37,4.44,3.173541
2908252482000,-2.91,6.51,3.214402
2908302318000,-2.26,3.49,1.9885708
2908352458000,-0.76,6.24,0.9942854
2908402324000,0.99,11.75,4.7535014
2908452403000,0.19,10.84,3.9090397
2908502299000,-5.98,9.81,5.175732
2908552287000,-3.76,8.39,3.6774938
2908602763000,-2.83,13.72,1.334794
2908652293000,1.12,7.01,-0.5720546
2908702678000,1.38,16.97,2.070293
2908752269000,-6.82,7.46,0.23154591
2908802653000,0.15,9.77,0.3405087
2908852275000,-0.38,9.81,1.7297841
2908902598000,-0.5,9.77,1.6889231
2908952281000,-1.65,8.47,1.56634
2909002574000,-0.42,9.11,0.95342433
2909052287000,0.23,9.19,1.334794
2909102519000,-0.99,9.7,1.9477097
2909152263000,-1.08,9.81,3.759216
2909202464000,-3.06,14.52,4.372132
2909252269000,-1.95,14.48,1.56634
2909302409000,-3.72,5.05,2.0294318
2909352275000,0.42,7.7,3.6774938
2909402293000,-0.76,6.47,2.1792557
2909452739000,-3.53,3.11,0.92618364
2909502269000,-1.27,5.28,2.3699405
2909552653000,1.38,13.57,5.366417
2909602305000,-0.08,8.89,3.445948
2909652629000,-3.34,9.19,4.630918
2909702312000,-4.79,13.06,2.9556155
2909752513000,-0.89,10.19,-0.08172209
2909802287000,-1.04,13.76,1.607201
2909852458000,-4.4,8.05,-0.14982383
2909902263000,-0.99,11.8,-0.46309182
2909952403000,-0.27,8.73,-0.10896278
2910002299000,0.23,10.92,0.9942854
2910052318000,0.15,8.96,1.7297841
2910102275000,0.57,8.16,1.3075534
2910152263000,0.27,10.04,1.0351465
2910202586000,-0.3,9.0,2.1111538
2910253093000,0.46,9.89,3.2961242
2910302592000,-0.34,12.49,5.2165933
2910352305000,-1.31,13.25,1.920469
2910402537000,-5.09,8.43,3.336985
2910452312000,-1.65,6.51,3.1463003
2910502452000,-0.53,7.7,4.3312707
2910552318000,-1.8,4.37,2.3699405
2910602397000,-1.65,6.59,3.3778462
2910652263000,-0.95,7.46,2.7240696
2910702281000,0.46,8.85,2.5333846
2910752727000,-0.99,10.08,4.140586
2910802287000,-2.96,10.19,4.399372
2910852611000,-3.87,10.19,6.5513873
2910902263000,-4.52,13.67,4.3312707
2910952556000,1.65,10.95,-3.8273177
2911002269000,0.19,10.38,3.445948
2911052531000,-5.79,11.5,-3.2961242
2911102305000,-5.82,9.77,-3.1054392
2911152446000,-0.69,12.03,-1.8387469
2911202281000,-2.03,10.27,-0.5720546
2911252421000,-1.5,9.7,-0.8036005
2911302287000,-0.84,9.19,-0.61291564
2911352397000,-1.23,9.51,-0.08172209
2911402232000,-1.92,10.04,-0.08172209
2911452281000,-1.38,10.31,-0.19068487
2911502727000,-1.61,9.96,0.38136974
2911552287000,-1.65,11.37,0.88532263
2911602672000,-4.75,10.69,0.8036005
2911652263000,-7.21,11.11,-2.982856
2911702647000,-4.48,12.91,-0.10896278
2911752299000,-2.14,9.72,-0.19068487
2911802623000,-2.83,9.43,1.0351465
2911852305000,-2.91,7.25,1.1168685
2911902476000,-2.68,5.9,0.040861044
2911952525000,-1.84,7.4,2.070293
2912002269000,-1.61,6.78,2.7649305
2912052440000,-1.04,7.06,2.982856
2912102275000,-0.89,10.8,4.099725
2912152415000,-0.65,11.75,6.932757
2912202281000,-3.64,8.69,-0.8036005
2912252360000,-4.67,16.74,4.7126403
2912302287000,-7.25,1.61,-0.6946377
2912352305000,-4.99,10.69,-4.9850473
2912402659000,1.8,13.18,1.8387469
2912452281000,-2.6,9.15,-0.95342433
2912502605000,-0.3,9.96,0.040861044
2912562297000,-1.5,9.96,0.61291564
2912612346000,-1.57,9.28,1.1441092
2912662364000,-2.26,9.43,0.313268
2912722240000,-1.69,9.92,0.3405087
2912772227000,-3.11,9.3,-0.040861044
2912822307000,-3.6,11.3,0.6946377
2912872233000,-2.75,11.41,1.1849703
2912922252000,-7.35,8.85,1.1441092
2912972270000,-3.45,12.98,-0.10896278
2913022288000,-2.18,10.57,0.38136974
2913072276000,-2.72,9.47,1.1168685
2913122295000,-2.98,7.16,1.9477097
2913172252000,-1.99,6.7,0.46309182
2913222301000,-1.95,6.44,1.334794
2913272227000,-0.8,6.51,2.6014864
2913322307000,0.34,7.12,2.0294318
2913372203000,-0.53,8.05,1.879608
2913372203000,-0.53,8.05,1.879608
2913472148000,-1.31,8.12,3.486809
2913522197000,-2.22,8.35,2.152015
2913572429000,-2.34,8.73,3.1463003
2913622233000,-5.28,11.37,-0.7218784
2913672282000,-5.48,13.67,2.2609777
2913722209000,-0.15,15.05,1.1168685
2913772288000,-3.76,11.14,-3.7864566
2913822246000,-0.61,11.41,1.7570249
2913872295000,-1.12,8.2,-0.29964766
2913922252000,-0.27,8.54,0.313268
2913972270000,-0.61,6.74,1.3075534
2914022227000,-0.46,7.97,1.334794
2914072276000,0.42,6.36,-0.040861044
2914122233000,2.96,9.51,-0.46309182
2914172313000,2.68,12.68,2.3699405
2914222240000,-1.99,7.59,3.173541
2914272288000,-0.65,13.91,5.8976107
2914322246000,-1.42,18.89,3.759216
2914372264000,-4.75,11.26,2.5333846
2914422252000,-2.14,8.58,2.070293
2914472240000,-2.14,6.97,2.070293
2914522227000,-1.69,4.18,0.38136974
2914572276000,-1.42,4.6,1.1441092
2914622203000,-1.53,6.7,2.070293
2914672313000,1.04,8.69,3.0645783
2914722240000,-4.14,9.43,4.0588636
2914772258000,-3.02,8.35,5.09401
2914822246000,-2.26,8.77,2.1792557
2914872264000,-3.72,14.06,-0.38136974
2914922282000,-3.53,9.15,5.7886477
2914972270000,2.11,17.5,-0.84446156
2915022227000,-4.1,10.61,0.08172209
2915072276000,-1.57,10.92,0.3405087
2915122233000,-1.08,8.43,1.1441092
2915172282000,-1.04,7.74,1.607201
2915222240000,-0.08,6.82,1.1849703
2915272258000,-0.04,7.4,1.7297841
2915322246000,0.89,8.47,0.42223078
2915372295000,-0.76,9.0,1.1849703
2915422252000,-0.04,9.72,1.334794
2915522258000,-4.86,17.08,4.1814466
2915572307000,-3.79,9.89,2.8330324
2915622264000,-1.8,10.08,1.607201
2915672313000,-3.21,7.12,2.152015
2915722240000,-2.37,7.25,2.2609777
2915772319000,-1.46,5.67,0.6537767
2915822246000,-1.46,5.94,1.879608
2915872295000,-0.15,7.86,1.920469
2915922252000,-2.26,8.05,2.8738933
2915972270000,-1.84,8.69,4.2904096
2916022197000,-3.91,9.51,4.903325
2916072337000,-1.88,10.8,1.2258313
2916122203000,-5.41,13.99,1.7297841
2916172313000,-3.76,13.63,1.7570249
2916222240000,0.84,11.84,-0.95342433
2916272258000,-3.26,12.3,-1.0760075
2916322215000,-2.37,8.69,-0.27240697
2916372295000,-2.26,8.85,0.6946377
2916422221000,0.04,8.58,1.1849703
2916472301000,0.34,7.4,3.1463003
2916522227000,1.12,6.97,0.50395286
2916572307000,2.03,8.96,0.53119355
2916622233000,-0.08,9.81,-0.14982383
2916672313000,-1.95,10.31,0.95342433
2916722240000,-0.76,9.96,2.9556155
2916772258000,-1.27,11.5,3.8273177
2916822246000,-3.57,16.89,3.9499009
2916872264000,-1.33,14.06,2.152015
2916922221000,-3.87,8.12,2.1792557
2916972270000,-2.72,7.21,2.2201166
2917022227000,-1.84,4.56,0.5720546
2917072276000,-2.37,5.41,1.6480621
2917122203000,-1.5,7.25,0.8036005
2917172313000,0.08,5.71,1.0760075
2917222240000,1.04,8.12,4.372132
2917272258000,-1.92,9.81,5.053149
2917322246000,-3.41,9.62,4.7943625
2917372264000,-4.82,13.4,-3.255263
2917422252000,-3.64,16.63,8.281172
2917472270000,-1.57,13.91,-1.920469
2917522227000,-2.68,11.3,-1.525479
2917572276000,-1.42,9.53,-1.4573772
2917622203000,-1.27,8.31,1.4982382
2917672282000,-0.46,7.67,3.0645783
2917722270000,0.04,7.27,2.3699405
2917772288000,2.79,6.63,0.313268
2917822276000,0.46,8.85,0.3405087
2917872325000,-1.27,10.15,0.42223078
2917922221000,-0.99,10.5,3.1463003
2917972301000,0.27,9.85,4.1814466
2918022227000,-1.84,15.79,6.0882955
2918072307000,-5.24,16.93,2.982856
2918122233000,-1.38,6.4,2.2609777
2918172313000,-4.14,6.7,3.0645783
2918222240000,-3.26,5.43,2.0294318
2918272258000,-2.18,5.71,1.2666923
2918322276000,-2.03,6.93,1.7297841
2918372264000,0.31,6.28,1.7570249
2918422221000,0.04,9.28,2.5606253
2918472301000,-2.41,9.23,4.5628166
2918522380000,-1.61,8.85,5.09401
2918572398000,-3.87,9.23,2.152015
2918622295000,-2.34,14.56,0.6946377
2918672343000,-4.71,14.79,6.8237944
2918732249000,-1.65,11.75,-4.671779
2918782237000,-2.6,11.35,0.53119355
2918832286000,-0.99,9.77,-0.3405087
2918882213000,-0.99,8.5,0.6537767
2918932292000,-0.69,7.46,0.84446156
2918982249000,0.08,6.78,1.6480621
2919032298000,0.61,7.4,0.7218784
2919082286000,-0.38,8.81,-0.14982383
2919132304000,1.04,10.08,1.607201
2919182262000,0.27,9.08,1.9885708
2919232341000,1.23,11.22,4.7535014
2919282237000,-1.5,18.89,4.099725
2919332286000,-6.05,13.4,2.9556155
2919382274000,-3.98,7.35,2.3018389
2919432292000,-2.56,4.86,0.50395286
2919533855000,-0.46,4.86,0.50395286
2919533855000,-0.46,4.86,0.50395286
2919582194000,2.18,7.93,1.1441092
2919632274000,-0.91,8.47,3.568531
2919682201000,-0.91,8.24,5.053149
2919732341000,-4.52,7.31,4.2904096
2919792247000,-2.11,13.21,-3.5276701
2919842204000,-1.99,15.05,7.8861814
2919892253000,-0.76,12.64,-7.1234417
2919942241000,-2.14,13.06,3.5276701
2919992229000,-1.33,11.69,0.6537767
2920042216000,-2.96,7.63,0.88532263
2920092265000,-0.38,7.55,-0.23154591
2920142222000,0.23,6.32,0.88532263
2920192271000,1.65,6.36,-0.10896278
2920242229000,0.89,8.85,0.19068487
2920292277000,-0.89,10.53,1.7978859
2920342235000,0.31,10.38,3.214402
2920392284000,-1.76,13.44,4.3312707
2920442241000,-8.12,19.15,3.0237172
2920492259000,-5.67,11.73,1.0760075
2920542247000,-3.79,9.72,1.334794
2920592265000,-2.22,7.86,1.2258313
2920642284000,-3.68,4.52,0.08172209
2920692271000,-2.18,6.4,1.8387469
2920742259000,-1.38,7.74,3.0237172
2920792277000,-2.11,9.0,5.134871
2920842235000,-2.26,10.12,6.8237944
2920892284000,-3.11,9.66,4.7943625
2920942241000,-5.67,10.46,2.7921712
2920992229000,-2.45,10.8,1.4573772
2921042277000,-6.47,5.56,-0.6946377
2921092235000,-3.49,11.5,-2.7513103
2921142222000,-1.65,10.19,0.7627395
2921192271000,-1.42,10.23,-0.61291564
2921242290000,-0.91,9.38,0.6537767
2921292277000,-1.84,9.7,0.23154591
2921342204000,-2.18,9.7,0.14982383
2921392284000,-1.99,9.47,-0.27240697
2921442210000,-2.22,9.72,-0.61291564
2921492259000,-2.98,9.43,-0.29964766
2921542247000,-2.53,10.31,-1.1168685
2921592235000,-2.83,9.85,0.08172209
2921642222000,-2.37,9.0,-0.14982383
2921692271000,-1.33,10.38,-0.040861044
2921742229000,-3.45,11.92,1.7978859
2921792277000,-4.59,11.69,-0.53119355
2921842235000,-8.43,11.92,-2.1111538
2921892253000,-4.59,11.18,-0.7218784
2921942241000,-0.3,10.27,0.10896278
2921992229000,-2.41,9.43,2.3018389
2922042277000,-3.87,5.79,0.61291564
2922092235000,-2.68,5.56,0.38136974
2922142284000,-1.31,5.63,1.1849703
2922192241000,0.15,3.53,1.1849703
2922242198000,0.89,7.59,0.92618364
2922292277000,-1.5,7.93,3.1463003
2922342235000,-2.75,9.58,6.851035
2922392253000,-2.3,9.85,1.56634
2922442210000,-4.14,9.96,4.2086873
2922492229000,-2.18,11.22,-0.61291564
2922542216000,-3.49,16.63,5.09401
2922592265000,-3.6,10.19,-3.0237172
2922642222000,-0.84,15.79,-0.9942854
2922692271000,-0.99,8.47,0.46309182
2922792247000,-0.72,6.47,0.14982383
2922842204000,-0.15,6.66,2.9147544
2922892314000,-0.65,6.05,1.4573772
2922942332000,-0.27,7.82,-0.38136974
2922992290000,1.99,11.88,0.27240697
2923042216000,1.33,12.72,2.9147544
2923092265000,-1.33,9.66,4.372132
2923142222000,-5.33,13.59,5.284695
2923192302000,-2.91,19.38,1.920469
2923242229000,-3.34,7.27,1.6889231
2923292277000,-2.26,6.74,1.7570249
2923342296000,-2.22,5.48,1.1168685
2923392284000,-1.5,3.87,-0.040861044
2923442271000,0.23,3.64,1.0760075
2923492259000,2.6,8.66,3.718355
2923542247000,-3.64,9.85,3.214402
2923592296000,-4.94,9.51,6.0474343
2923642253000,-3.45,11.88,3.214402
2923692271000,-1.42,12.45,-5.202973
2923742229000,-2.18,17.31,7.6954966
2923792247000,-4.71,11.45,-4.1814466
2923842204000,-0.95,11.45,0.3405087
2923892253000,-1.38,8.01,0.6946377
2923942241000,-0.76,5.43,1.607201
2923992229000,0.76,6.89,2.3018389
2924042216000,0.15,7.31,2.4925237
2924092265000,1.42,7.86,1.3075534
2924142314000,1.61,11.03,2.2609777
2924192241000,-1.42,10.88,4.399372
2924242198000,-4.9,18.62,3.486809
2924292277000,-6.36,10.8,3.0237172
2924342204000,-1.8,7.44,1.3756552
2924392253000,-3.68,5.86,1.3756552
2924442210000,-0.8,2.11,-0.27240697
2924492229000,-0.04,4.6,0.19068487
2924492229000,-0.04,4.6,0.19068487
2924562297000,1.65,10.12,4.2904096
2924612254000,-2.49,9.96,4.372132
2924662303000,-8.31,8.43,-0.7627395
2924722270000,-1.04,15.17,1.1168685
2924772227000,-1.99,13.38,-1.7297841
2924822276000,-0.72,8.39,0.27240697
2924872233000,0.8,8.58,1.7978859
2924922313000,0.72,8.2,2.4925237
2924972270000,-0.08,6.66,1.9885708
2925022258000,1.61,8.92,1.9477097
2925072246000,0.8,10.38,3.8681788
2925122264000,-1.99,13.02,5.5162406
2925172282000,-2.49,14.56,2.7649305
2925222240000,-3.53,10.23,3.3778462
2925272197000,-1.12,7.82,3.718355
2925322276000,-2.6,6.59,1.920469
2925372203000,-1.84,3.21,4.0180025
2925482249000,1.84,10.69,4.0180025
2925482249000,1.84,10.69,4.0180025
2925532176000,-1.12,9.43,3.486809
2925582286000,-5.18,10.31,2.0294318
2925632243000,-7.35,10.92,1.2666923
2925682353000,0.95,16.17,5.366417
2925742229000,-2.45,16.13,-2.1383946
2925792216000,-1.53,7.82,0.6946377
2925842235000,-1.04,6.05,-0.27240697
2925892222000,-0.57,6.28,2.1111538
2925942241000,-0.65,5.37,2.5333846
2925992229000,0.34,7.93,0.53119355
2926042277000,2.68,10.53,2.1792557
2926092235000,-0.99,13.95,7.014479
2926142284000,-3.6,19.11,3.405087
2926192271000,-5.33,13.02,3.9090397
2926242259000,-2.34,6.09,1.334794
2926292247000,-2.72,4.75,0.040861044
2926342265000,-1.18,3.87,0.7218784
2926392222000,1.95,5.33,0.92618364
2926442271000,2.3,7.86,-0.29964766
2926492229000,-7.46,7.7,8.19945
2926542277000,-5.43,7.21,3.336985
2926592204000,-3.72,17.86,-3.636633
2926642284000,-4.94,13.82,2.9147544
2926692271000,-0.15,16.66,1.334794
2926742290000,-3.17,12.37,1.0760075
2926792277000,-1.04,7.55,0.10896278
2926842265000,-0.84,6.28,1.4165162
2926892253000,-0.42,5.18,0.7627395
2926942271000,0.95,4.14,0.6946377
2927042247000,0.23,10.84,4.944186
2927092204000,-1.69,9.7,5.434519
2927142284000,-2.56,15.21,3.5276701
2927192210000,-3.53,13.4,1.56634
2927242259000,-3.91,6.21,2.4108016
2927292216000,-0.5,5.9,2.3426998
2927342265000,-1.73,5.86,2.070293
2927392222000,-0.27,3.15,-0.19068487
2927442241000,-0.23,10.12,5.053149
2927492229000,0.57,8.81,10.269742
2927542247000,-4.44,12.41,-6.469665
2927592235000,-5.67,18.39,8.812365
2927642253000,-4.29,13.63,-0.9942854
2927742229000,-0.72,7.7,0.6537767
2927792216000,-0.61,7.12,1.5390993
2927842235000,0.53,4.94,2.070293
2927892222000,1.14,6.05,1.4573772
2927942241000,1.46,10.12,3.0645783
2927992259000,-0.76,8.24,4.2904096
2928042277000,-3.17,10.99,6.4015636
2928092235000,-3.64,17.5,3.1463003
2928142253000,-3.64,10.19,1.6889231
2928192210000,-0.95,8.62,3.568531
2928242259000,-1.65,4.56,0.95342433
2928292247000,-2.49,4.06,0.7218784
2928342265000,-1.69,6.97,1.3756552
2928392222000,1.27,10.5,5.597963
2928442271000,-1.65,10.73,8.308413
2928492229000,-2.03,9.7,5.597963
2928542277000,-2.79,13.4,-2.3018389
2928592204000,-0.95,16.25,-0.040861044
2928642314000,-5.75,13.67,-4.3312707
2928692210000,-5.09,10.99,-1.7978859
2928742229000,-2.11,8.69,-0.46309182
2928792216000,-0.38,6.66,-1.1168685
2928842235000,-1.5,7.63,0.313268
2928892253000,-1.69,9.89,0.8036005
2928942241000,-0.91,11.14,1.0351465
2928992229000,-0.84,12.98,1.9477097
2929042277000,-2.6,15.09,-0.14982383
2929092265000,-11.73,8.12,3.486809
2929142284000,-2.41,13.4,-4.2495484
2929192210000,-1.57,10.92,2.9556155
2929242290000,-3.6,8.16,-0.84446156
2929292216000,-2.03,3.72,0.61291564
2929342265000,-1.92,5.56,0.88532263
2929392222000,-2.41,5.43,0.3405087
2929442241000,-1.18,6.21,2.4108016
2929492198000,-0.38,15.89,9.765789
2929542277000,-1.23,11.8,4.140586
2929592204000,-8.5,13.95,-0.6946377
2929642284000,-4.18,4.9,-0.38136974
2929692210000,-4.33,7.27,-1.1168685
2929742259000,-2.72,10.34,-2.2201166
2929792247000,-2.83,9.92,0.92618364
2929842235000,-1.99,9.85,3.718355
2929892222000,0.57,8.69,-3.5276701
2929942271000,-3.49,6.74,1.1441092
2929992198000,-3.87,11.07,3.7864566
2930042277000,-5.48,9.7,4.671779
2930092204000,2.18,11.26,-2.6832085
2930142314000,1.76,8.73,0.6537767
2930192210000,-0.08,11.88,-2.2201166
2930242229000,-3.53,10.99,5.434519
2930292338000,-0.99,13.38,-1.7978859
2930342235000,2.41,12.95,-0.3405087
2930392284000,1.99,13.38,-0.6537767
2930443126000,3.21,6.85,2.3426998
2930443126000,3.21,6.85,2.3426998
2930512309000,3.83,10.46,3.3778462
2930562236000,5.22,8.35,-1.3075534
2930612346000,-0.72,4.63,1.6889231
2930672282000,7.06,6.93,-0.88532263
2930772288000,8.08,12.03,0.3405087
2930822246000,10.12,12.34,0.7627395
2930872264000,12.07,6.7,-0.7218784
2930922221000,11.69,4.06,-0.95342433
3081582255000,1.08,9.34,0.7218784
3081632335000,2.15,9.85,0.95342433
3081682231000,1.5,9.38,1.8387469
3081732280000,1.69,9.38,2.4925237
3081782268000,0.69,8.2,2.4516625
3081832316000,2.79,9.08,3.214402
3081882213000,1.14,11.5,5.5571017
3081932262000,-0.53,13.48,4.1814466
3081982249000,3.99,14.44,4.7535014
3082032298000,-3.02,5.33,2.5606253
3082082347000,0.15,7.44,3.636633
3082082347000,0.15,7.44,3.636633
3082182231000,-0.84,4.67,1.5390993
3082182231000,-0.84,4.67,1.5390993
3082292125000,4.86,10.31,3.1054392
3082292125000,4.86,10.31,3.1054392
3082342265000,1.57,9.38,5.09401
3082392345000,-3.26,10.34,8.308413
3082442271000,-6.21,12.18,3.486809
3082492290000,2.15,12.72,1.4573772
3082552318000,4.63,16.17,2.7921712
3082602275000,-2.3,11.54,-0.53119355
3082652293000,0.38,10.73,1.4573772
3082702159000,1.42,8.39,1.56634
3082752452000,1.69,7.5,2.2609777
3082802318000,1.65,8.31,2.6014864
3082852275000,-0.04,8.16,2.070293
3082902293000,1.84,8.12,0.9942854
3082952281000,2.72,8.31,0.08172209
3083002299000,2.26,9.92,2.0294318
3083052287000,1.65,9.72,2.8738933
3083102305000,0.8,8.77,3.3778462
3083152263000,1.57,9.7,4.140586
3083202312000,1.42,15.43,5.09401
3083252269000,-0.19,12.98,2.2201166
3083302318000,1.88,11.35,3.568531
3083352336000,-1.99,5.71,1.1441092
3083402263000,-0.5,5.52,1.6889231
3083452281000,-2.07,5.43,1.5390993
3083502269000,-0.8,6.28,2.5606253
3083552318000,2.53,7.97,3.759216
3083602275000,0.69,10.15,1.9477097
3083652293000,0.31,10.12,6.4424243
3083702281000,-0.84,10.88,6.5513873
3083752299000,-0.8,10.27,1.4982382
3083802318000,-2.53,11.84,-0.6537767
3083852305000,1.12,11.96,3.9499009
3083902263000,2.76,10.34,-0.46309182
3083952312000,2.18,12.11,2.1792557
3084002299000,1.76,9.43,1.4165162
3084052318000,1.23,8.73,2.3426998
3084102275000,1.27,7.63,2.0294318
3084152293000,0.57,7.78,2.3699405
3084202312000,1.69,7.5,2.3426998
3084252269000,1.23,8.47,1.1441092
3084302287000,2.37,9.43,1.4982382
3084352336000,2.15,9.34,2.982856
3084402263000,1.69,10.27,4.671779
3084452281000,0.19,17.35,5.175732
3084502269000,1.54,14.94,4.2495484
3084552318000,-1.46,6.55,3.0237172
3084602305000,-3.17,6.89,2.4516625
3084652293000,-0.27,5.28,2.4108016
3084702251000,-0.04,5.28,1.4165162
3084752299000,-0.27,5.41,2.3018389
3084802287000,1.95,7.25,2.2201166
3084852336000,1.04,10.12,3.0237172
3084902263000,-0.53,10.27,6.5922484
3084952281000,-1.27,10.53,5.09401
3085002269000,1.18,9.3,2.6423476
3085052287000,-0.65,12.03,-0.6946377
3085102275000,-0.5,12.64,3.8681788
3085152263000,2.45,13.48,0.46309182
3085202312000,-0.11,11.6,-1.6889231
3085253734000,1.5,10.42,1.56634
3085302287000,0.61,8.89,0.7627395
3085352305000,1.5,8.62,0.5720546
3085402324000,1.14,7.82,2.5333846
3085452312000,1.99,7.63,1.1849703
3085502269000,3.83,8.16,0.61291564
3085552318000,0.99,8.89,1.1168685
3085602275000,1.46,8.96,1.6889231
3085652293000,2.83,10.0,2.5333846
3085702281000,2.37,10.08,4.0588636
3085752360000,0.76,13.63,5.8567495
3085802287000,0.99,14.52,4.0180025
3085852275000,0.57,11.3,3.1054392
3085902263000,-1.42,6.59,2.4925237
3085952312000,-1.46,8.16,3.336985
3086002269000,-0.38,4.82,1.920469
3086052287000,-0.53,5.75,2.4925237
3086102244000,-0.27,5.75,2.2609777
3086152293000,3.38,7.89,2.1792557
3086202281000,1.76,8.62,2.4925237
3086252360000,-2.37,10.95,8.894087
3086302287000,0.72,8.81,3.568531
3086352305000,0.08,8.89,1.5390993
3086402263000,-0.65,14.18,-1.2258313
3086452312000,1.54,16.44,7.7363577
3086502299000,0.23,11.37,-2.7240696
3086552318000,1.33,12.22,-1.1168685
3086602275000,-0.19,9.47,2.5606253
3086652293000,0.99,7.67,-0.42223078
3086702281000,1.61,8.08,1.8387469
3086752299000,0.8,8.58,3.3778462
3086802287000,1.88,6.89,0.14982383
3086852305000,3.45,9.0,0.7218784
3086902263000,1.38,10.42,1.3756552
3086952312000,-0.65,7.08,2.2609777
3087002269000,4.14,9.58,2.1792557
3087052318000,2.45,12.41,4.671779
3087102275000,-1.42,16.74,4.8216033
3087152293000,2.91,14.18,2.8738933
3087202281000,-0.57,7.08,0.95342433
3087252269000,-2.34,6.24,2.3426998
3087302287000,0.11,5.9,1.4982382
3087352367000,-1.65,5.01,0.95342433
3087402232000,-0.3,5.94,2.4108016
3087452312000,3.41,9.47,3.486809
3087502269000,0.76,9.15,3.636633
3087552379000,0.19,9.85,5.7886477
3087612254000,-3.64,11.35,4.7535014
3087662212000,-0.19,14.75,0.19068487
3087712260000,1.12,11.8,3.3778462
3087772319000,1.73,11.03,-0.10896278
3087822215000,2.11,11.18,0.88532263
3087872264000,0.84,10.04,0.84446156
3087922252000,1.84,9.11,1.0760075
3087972270000,0.61,8.39,1.7978859
3088022227000,0.8,8.43,1.7570249
3088072276000,1.31,8.43,1.607201
3088122264000,1.23,7.82,1.2258313
3088172313000,3.57,9.58,-0.08172209
3088222240000,0.99,10.12,0.84446156
3088272258000,1.69,8.47,1.0351465
3088322276000,2.3,10.04,2.152015
3088372295000,2.37,9.81,2.7240696
3088422221000,1.38,9.43,4.2904096
3088472270000,0.61,11.92,4.903325
3088522197000,2.11,15.55,4.140586
3088572276000,-0.46,9.38,1.4573772
3088622203000,-0.5,7.27,3.173541
3088672282000,-0.53,5.98,2.3426998
3088722209000,-0.65,5.13,1.8387469
3088772258000,-0.8,7.86,2.8738933
3088822246000,2.26,9.51,2.7240696
3088882335000,2.26,9.51,2.7240696
3088932262000,-2.14,10.19,4.862464
3088932262000,-2.14,10.19,4.862464
3089032237000,-0.04,8.39,1.6889231
3089082347000,1.46,8.66,2.1792557
3089082347000,1.46,8.66,2.1792557
3089142284000,0.31,9.28,2.8738933
3089192241000,-0.5,9.66,2.9556155
3089242259000,-3.49,12.87,2.0294318
3089292216000,0.95,11.3,2.4108016
3089342296000,3.72,12.57,-1.2258313
3089442271000,0.31,11.5,-1.334794
3089492198000,0.34,9.58,0.3405087
3089542247000,1.12,9.72,-0.8036005
3089592235000,0.61,9.38,0.7218784
3089642253000,0.76,10.0,0.313268
3089692271000,1.08,9.7,0.42223078
3089742229000,1.08,10.0,0.08172209
3089792247000,1.33,9.96,-0.3405087
3089842235000,1.46,11.14,-0.23154591
3089892253000,1.42,11.37,1.3075534
3089942241000,-0.69,11.73,0.9942854
3089992229000,-4.21,10.88,-0.6946377
3090043712000,-1.76,12.15,-1.607201
3090092204000,-0.23,11.14,0.313268
3090142284000,-1.95,10.0,0.23154591
3090192241000,-1.69,8.77,0.8036005
3090242229000,-0.19,7.59,0.38136974
3090293712000,-1.42,6.44,0.313268
3090342265000,0.99,8.16,2.8330324
3090392253000,1.14,10.8,6.932757
3090442241000,0.04,12.53,5.434519
3090492259000,-1.46,6.97,-1.4573772
3090542247000,-2.18,11.5,0.23154591
3090592235000,0.38,9.7,-0.5720546
3090642222000,1.42,9.62,-0.29964766
3090692210000,-0.69,10.27,1.2666923
3090742229000,-0.19,10.34,0.61291564
3090792216000,1.61,9.89,-0.84446156
3090842265000,-0.38,9.62,0.8036005
3090893657000,0.72,10.23,0.8036005
3090942210000,1.84,9.51,0.8036005
3090992229000,1.08,9.43,1.4573772
3091042216000,1.27,8.77,0.61291564
3091092235000,-0.61,11.73,1.3075534
3091142222000,-1.95,13.95,1.6889231
3091192210000,-4.94,13.82,3.3778462
3091242229000,-0.99,8.85,-3.1054392
3091292247000,1.92,11.41,4.140586
3091342265000,-2.18,5.6,0.10896278
3091393718000,-0.69,6.89,1.5390993
3091442241000,-1.95,6.44,2.2201166
3091492198000,0.31,8.69,4.2086873
3091542247000,0.31,9.23,4.1814466
3091592204000,-1.88,9.85,4.2086873
3091642222000,-2.37,9.28,5.09401
3091692241000,0.99,8.54,3.5957718
3091742229000,-1.08,7.93,2.9556155
3091792277000,-0.99,8.24,3.3778462
3091892253000,0.08,8.43,2.7649305
3091942210000,-0.53,8.16,2.7240696
3091992198000,0.04,8.58,2.7649305
3092043651000,-0.11,9.28,3.9090397
3092092204000,0.04,10.42,4.5219555
3092142253000,0.46,9.72,2.5606253
3092192210000,-0.11,12.18,2.1792557
3092242229000,-0.08,11.99,-0.14982383
3092293681000,1.12,12.3,1.1441092
3092342265000,-0.38,11.41,-1.9885708
3092392222000,1.23,10.69,-0.19068487
3092442241000,0.11,9.3,1.0351465
3092492229000,1.23,9.04,0.95342433
3092543651000,0.65,9.08,2.2201166
3092592204000,0.93,8.85,2.152015
3092642284000,2.15,8.2,1.3075534
3092692241000,0.31,7.27,0.61291564
3092742229000,2.26,8.5,0.8036005
3092792277000,3.26,8.58,0.5720546
3092842235000,1.33,9.53,1.4573772
3092892284000,0.53,9.51,2.6014864
3092942241000,0.15,9.28,4.4810944
3092992259000,1.54,10.65,5.053149
3093042216000,3.49,17.69,4.671779
3093092235000,-0.23,14.37,4.3312707
3093142253000,-0.72,4.06,2.5333846
3093192241000,-1.46,6.82,3.173541
3093242229000,0.84,3.57,1.3756552
3093292216000,-1.08,4.14,2.152015
3093342296000,-0.34,5.86,2.5606253
3093392284000,3.17,9.34,3.336985
3093442302000,0.31,9.77,3.1463003
3093492259000,-1.53,9.19,6.1291566
3093542247000,-0.61,9.0,2.9556155
3093592235000,-2.11,11.37,3.5276701
3093642222000,-0.04,13.38,-1.56634
3093692271000,3.53,16.13,4.399372
3093742198000,-1.73,10.57,-1.9477097
3093792247000,2.37,11.96,0.88532263
3093842235000,0.89,8.96,1.1441092
3093893626000,0.42,8.28,1.6889231
3093942302000,1.5,7.63,2.152015
3093992229000,0.53,7.7,2.1111538
3094042247000,2.56,6.82,-0.61291564
3094092235000,3.06,9.43,1.7297841
3094143626000,1.23,10.53,1.2666923
3094192241000,-0.76,7.5,2.7240696
3094242229000,0.27,10.12,5.2165933
3094292277000,0.8,11.69,6.510526
3094342265000,3.76,19.31,3.759216
3094392222000,-2.22,8.24,1.879608
3094442241000,-0.84,6.63,2.6423476
3094492229000,-0.5,5.18,2.2609777
3094542216000,-0.95,2.68,1.0351465
3094542216000,-0.95,2.68,1.0351465
3094692210000,0.46,9.7,4.2495484
3094692210000,0.46,9.7,4.2495484
3094742412000,-0.38,9.58,6.782933
3094792247000,-2.14,10.95,3.3778462
3094842296000,-0.23,15.6,1.4982382
3094892284000,1.27,15.47,1.2666923
3094942271000,3.76,12.64,-4.2086873
3094992198000,-1.12,10.04,-0.08172209
3095043681000,0.46,9.38,0.5720546
3095092204000,0.61,6.74,1.1168685
3095142253000,1.38,6.78,0.7627395
3095192210000,3.34,9.28,2.1792557
3095242229000,1.8,5.75,0.92618364
3095292277000,2.87,10.76,1.7978859
3095342235000,1.14,9.3,2.8738933
3095392253000,2.15,8.16,3.1463003
3095442241000,0.57,11.69,6.0201936
3095493693000,0.61,16.51,3.0237172
3095542247000,-0.15,12.45,1.56634
3095592265000,0.04,6.66,1.920469
3095642284000,-0.57,7.86,3.336985
3095692302000,-1.53,2.91,1.334794
3095743632000,-0.08,4.25,1.7978859
3095792216000,3.41,10.8,2.3018389
3095842265000,-0.08,9.34,4.7126403
3095892222000,-0.27,9.66,6.0201936
3095942241000,-1.27,9.92,2.6014864
3095993663000,-3.3,13.59,1.56634
3096042247000,3.64,15.89,4.440233
3096092235000,0.69,10.04,-2.5606253
3096142284000,1.92,12.41,-0.38136974
3096192271000,0.42,8.92,1.5390993
3096243663000,1.99,8.77,1.1168685
3096292247000,1.57,7.5,2.5606253
3096342296000,1.08,8.12,1.1168685
3096392222000,2.41,7.08,1.1168685
3096442271000,0.65,8.08,0.95342433
3096493663000,1.95,10.53,1.2666923
3096542247000,0.93,8.62,3.405087
3096592204000,1.8,9.96,3.9090397
3096642284000,0.5,13.59,6.0474343
3096692210000,1.33,18.12,3.3778462
3096743632000,-2.14,8.28,3.173541
3096792216000,-1.31,7.16,2.8738933
3096842265000,-0.19,7.06,2.2201166
3096892314000,-0.27,3.41,1.3075534
3096942271000,-0.23,5.09,1.334794
3096993693000,5.71,9.3,3.255263
3097042247000,1.73,9.19,4.099725
3097092235000,-2.07,10.34,7.668256
3097142253000,-1.31,8.24,3.405087
3097192241000,0.93,11.88,0.88532263
3097243663000,-1.38,12.64,3.214402
3097292247000,2.68,14.86,1.8387469
3097342235000,-0.04,11.56,-2.8330324
3097392284000,2.15,11.84,2.2609777
3097442210000,1.76,9.43,-0.08172209
3097493632000,0.93,7.86,1.5390993
3097542216000,1.65,7.93,1.9477097
3097592265000,1.12,7.59,0.95342433
3097642222000,2.56,7.59,2.4925237
3097692241000,0.76,7.06,1.5390993
3097743663000,2.87,10.61,1.6889231
3097792216000,1.65,8.92,2.5606253
3097842265000,3.15,9.81,4.7126403
3097892222000,1.12,14.41,6.469665
3097942241000,-0.19,17.39,4.7535014
3097993663000,-2.3,7.25,0.88532263
3098042247000,-1.99,9.04,3.8681788
3098092235000,-1.27,5.09,1.8387469
3098142253000,-1.08,4.71,1.7297841
3098192302000,-0.89,7.35,3.0645783
3098243693000,3.38,8.43,2.7921712
3098292247000,1.42,8.66,3.336985
3098342265000,-1.61,9.7,5.47538
3098392284000,-0.65,9.38,4.862464
3098442241000,-0.5,9.89,3.0237172
3098492198000,0.34,9.53,2.4516625
3098542247000,0.69,9.19,1.2258313
3098592235000,1.18,13.91,-0.95342433
3098642253000,1.69,10.23,0.84446156
3098692241000,-0.61,15.7,1.0351465
3098743663000,-0.95,8.81,-1.6889231
3098792216000,2.15,10.8,-2.070293
3098842265000,0.84,8.47,1.3756552
3098942241000,0.99,8.24,0.92618364
3098992198000,-0.38,5.83,1.6889231
3099042247000,3.06,6.24,-1.8387469
3099092265000,5.56,11.73,1.7570249
3099143657000,-0.23,8.85,2.9147544
3099192241000,0.27,9.43,4.3312707
3099242198000,0.93,18.73,3.8681788
3099292247000,-1.88,17.97,1.1849703
3099342265000,-2.98,11.69,-0.040861044
3099393626000,-1.08,13.14,2.3018389
3099442210000,-1.99,4.99,0.040861044
3099492259000,0.76,5.98,0.27240697
3099542247000,2.3,7.06,2.982856
3099592265000,-0.3,6.02,2.7240696
3099643687000,0.23,8.92,5.597963
3099692332000,-0.76,10.95,9.425281
3099742259000,-0.53,9.08,4.944186
3099792338000,-1.42,11.3,4.862464
3099852305000,-0.84,13.02,-0.5720546
3099902263000,-4.56,5.28,-2.6014864
3099952281000,-1.33,11.73,-2.3018389
3100002299000,1.76,10.53,0.61291564
3100052318000,0.93,10.34,-0.8036005
3100102275000,1.46,10.23,-0.19068487
3100152293000,1.18,10.19,0.23154591
3100255046000,0.84,9.7,0.6537767
3100255046000,0.84,9.7,0.6537767
3100362315000,0.08,9.85,0.42223078
3100412273000,-0.23,9.66,-0.46309182
3100462199000,0.8,9.92,-0.46309182
3100512218000,-0.3,9.51,-1.0760075
3100562266000,-0.5,10.46,-0.14982383
3100612224000,1.65,11.75,0.9942854
3100662334000,-1.76,10.65,1.879608
3100712230000,-1.38,11.3,-0.7627395
3100762279000,-0.91,13.44,-1.6480621
3100812236000,-1.95,11.6,-1.0760075
3100862285000,-0.11,9.34,0.61291564
3100912211000,-1.23,9.72,1.8387469
3100962291000,-1.38,8.28,1.4165162
3101012218000,0.84,8.35,1.5390993
3101062297000,0.34,8.28,2.8738933
3101112254000,-0.84,5.94,1.7297841
3101162303000,-0.3,6.4,2.2609777
3101212230000,0.89,8.43,2.8738933
3101262248000,0.69,7.7,3.0237172
3101312205000,0.19,7.93,3.255263
3101362315000,-2.03,9.38,4.3312707
3101412242000,0.95,8.28,3.405087
3101462321000,0.08,8.92,2.3699405
3101512248000,-0.89,8.66,3.0237172
3101562297000,-0.99,12.91,2.6832085
3101612224000,0.46,12.76,1.2258313
3101662303000,2.45,10.76,-1.7297841
3101712230000,0.23,14.21,3.336985
3101762279000,0.23,10.8,-2.982856
3101812236000,1.8,9.92,1.5390993
3101862315000,1.12,8.28,0.61291564
3101912242000,2.18,8.39,0.46309182
3101962291000,1.5,7.4,2.3018389
3102012248000,0.11,5.86,0.88532263
3102062297000,3.53,10.19,1.3075534
3102112254000,2.45,8.5,0.14982383
3102162334000,1.54,10.61,2.3426998
3102212230000,0.72,8.2,4.7126403
3102262309000,3.21,13.63,6.2108784
3102312236000,-1.12,15.79,3.718355
3102362315000,1.14,12.87,1.7297841
3102412242000,-2.3,5.48,1.1849703
3102462291000,-1.42,7.12,2.3699405
3102512218000,-0.65,4.86,2.4925237
3102562266000,0.04,6.32,2.5606253
3102612224000,3.6,9.08,2.9147544
3102662303000,-0.23,8.54,3.6774938
3102712260000,-1.99,8.92,5.938472
3102762309000,-0.72,8.85,3.7864566
3102812236000,0.08,8.73,1.334794
3102862315000,-1.31,12.11,2.152015
3102912211000,-1.99,13.21,2.8330324
3102962321000,1.38,13.82,4.099725
3103012218000,2.72,10.84,-3.6774938
3103062297000,1.73,11.11,4.0180025
3103162334000,1.46,8.73,1.920469
3103212199000,0.04,8.01,2.3426998
3103262309000,1.33,7.89,1.8387469
3103312236000,2.22,7.44,0.84446156
3103362315000,1.46,8.24,0.38136974
3103412242000,1.33,9.92,1.1168685
3103462291000,1.31,9.85,1.879608
3103512248000,2.15,9.7,3.3778462
3103562297000,1.14,10.19,4.9850473
3103662303000,1.27,12.37,2.6014864
3103712230000,-1.76,10.19,3.6774938
3103762309000,-1.88,7.86,2.7921712
3103812266000,-0.61,5.63,2.1111538
3103862285000,-1.12,4.48,2.6014864
3103912242000,-0.84,5.79,1.7570249
3103962291000,2.22,7.89,2.8330324
3104012248000,1.95,8.31,2.5333846
3104062327000,-1.69,9.66,5.6660647
3104112254000,-0.38,9.0,5.243834
3104162303000,-2.53,8.47,3.336985
3104212199000,2.37,12.6,0.8036005
3104262309000,-1.5,16.44,6.891896
3104312205000,-0.08,10.57,-1.3075534
3104362285000,1.65,13.14,-0.53119355
3104412211000,0.04,10.76,1.56634
3104462321000,1.31,8.69,0.53119355
3104512218000,1.18,7.89,1.7978859
3104562297000,0.8,7.82,1.8387469
3104612254000,2.18,7.7,1.4982382
3104662303000,1.65,7.4,1.607201
3104712199000,1.76,8.35,1.5390993
3104762309000,1.92,9.23,1.6480621
3104812236000,2.11,8.54,3.405087
3104862315000,1.31,11.11,4.944186
3104912242000,0.69,15.85,4.0180025
3104962321000,0.95,17.73,5.012288
3105012248000,-2.26,5.05,1.920469
3105062297000,-1.65,7.06,2.5606253
3105112224000,-1.38,4.9,2.152015
3105162303000,0.5,4.33,1.920469
3105212230000,4.6,8.43,0.5720546
3105262279000,0.61,9.0,2.6832085
3105312205000,-1.53,10.19,8.240311
3105362315000,-0.27,9.19,3.336985
3105422374000,-1.31,11.75,3.0645783
3105472240000,-0.15,11.73,0.46309182
3105522319000,2.41,9.72,0.19068487
3105582286000,1.27,13.57,-0.38136974
3105632213000,0.95,10.53,-0.42223078
3105682262000,1.54,10.08,1.0351465
3105732219000,0.93,9.3,0.95342433
3105782268000,0.72,8.08,1.4165162
3105832225000,1.04,7.67,1.1168685
3105882304000,3.21,8.89,1.920469
3105932231000,1.73,7.63,1.1168685
3105982310000,2.11,8.35,0.46309182
3106032237000,2.11,10.95,1.7570249
3106082286000,1.42,9.0,2.7921712
3106132274000,1.18,10.57,6.0201936
3106182292000,0.38,13.21,4.0180025
3106232280000,1.95,16.02,4.9850473
3106282268000,-0.95,6.63,3.3778462
3106332316000,-0.38,8.47,3.3778462
3106392284000,-0.8,4.86,2.6423476
3106392284000,-0.8,4.86,2.6423476
3106442210000,-0.57,5.43,2.3018389
3106492229000,0.95,7.35,2.3018389
3106542247000,1.69,9.04,3.1463003
3106592265000,-0.19,8.77,5.2165933
3106642253000,0.42,8.77,4.5219555
3106692271000,0.46,9.0,1.4573772
3106742229000,-3.6,11.56,3.636633
3106793681000,-3.34,14.25,0.6946377
3106842204000,4.82,12.37,2.9556155
3106892253000,2.49,11.22,-1.0351465
3106942210000,0.72,11.3,0.313268
3106992259000,0.04,9.7,1.607201
3107042277000,1.33,8.89,0.46309182
3107092265000,1.42,7.82,2.1792557
3107142253000,1.99,7.86,1.6480621
3107193706000,1.61,7.67,0.5720546
3107242198000,1.92,8.43,0.6537767
3107292277000,1.69,9.08,1.0351465
3107342296000,2.56,10.95,1.879608
3107392284000,1.8,7.82,2.7240696
3107443675000,2.22,11.73,5.6660647
3107492198000,2.87,14.37,4.372132
3107542277000,3.3,14.98,5.5571017
3107592265000,-1.14,7.25,2.9556155
3107642253000,-0.15,7.27,3.405087
3107693675000,-0.19,4.37,3.0237172
3107742198000,-0.57,4.99,3.0237172
3107792247000,0.11,5.52,2.9556155
3107842235000,2.34,7.97,3.1463003
3107892253000,2.15,9.58,3.2961242
3107942271000,0.38,8.5,4.7943625
3107992259000,-1.65,10.04,5.325556
3108043773000,-1.18,8.54,3.486809
3108092235000,-1.8,12.26,4.4810944
3108142284000,1.42,13.82,-0.5720546
3108192210000,2.45,12.98,1.1168685
3108242259000,-1.27,11.54,-1.4982382
3108293681000,0.57,11.3,0.8036005
3108342265000,1.61,8.92,0.7627395
3108392222000,2.26,8.62,2.152015
3108442271000,1.18,8.2,1.8387469
3108492229000,1.57,8.31,1.334794
3108542247000,1.54,7.27,1.1441092
3108592204000,0.93,8.05,0.95342433
3108642253000,1.33,9.28,0.38136974
3108693675000,0.76,10.12,1.607201
3108742259000,0.84,8.31,2.5606253
3108792338000,0.8,12.07,6.782933
3108842235000,-0.84,17.92,5.8976107
3108892222000,0.61,15.28,5.47538
3108943645000,-2.34,5.41,1.6889231
3108992229000,-1.5,6.85,2.2609777
3109042247000,-1.31,3.11,1.6889231
3109092204000,-1.84,6.44,3.486809
3109142314000,-0.57,8.5,3.568531
3109242229000,0.31,7.86,5.175732
3109292277000,0.93,12.22,8.19945
3109342265000,2.15,9.62,8.076866
3109392253000,-2.26,11.35,5.5571017
3109442271000,-0.46,11.07,4.140586
3109492290000,-0.95,9.85,0.46309182
3109542247000,-4.48,7.59,-1.525479
3109592235000,-3.6,11.65,-1.4573772
3109642253000,-0.72,10.46,-0.84446156
3109692210000,1.12,10.69,-0.88532263
3109742259000,2.79,9.7,0.23154591
3109792247000,0.31,9.66,0.61291564
3109843608000,0.42,9.96,0.38136974
3109892222000,0.46,9.51,0.19068487
3109942241000,0.65,9.72,-0.46309182
3109992198000,0.27,9.85,0.27240697
3110042247000,-0.46,10.0,-0.84446156
3110093700000,0.53,10.34,-0.50395286
3110142222000,0.34,9.92,-0.38136974
3110192241000,-0.72,9.53,0.53119355
3110242229000,1.38,10.65,0.84446156
3110292247000,-1.53,12.68,1.8387469
3110342204000,-0.99,11.84,-2.7513103
3110392253000,-4.59,13.38,-1.525479
3110442210000,0.08,10.69,-1.1849703
3110492259000,-0.61,8.96,0.313268
3110552287000,-0.61,9.23,2.1111538
3110602275000,-0.8,7.89,0.92618364
3110652293000,0.89,8.24,2.6014864
3110702281000,0.23,7.16,2.3699405
3110752299000,-0.23,6.82,1.9885708
3110852305000,0.42,9.04,3.9499009
3110902263000,-0.34,8.28,3.5957718
3110952281000,-0.99,8.5,3.173541
3111002269000,-0.53,8.2,2.7649305
3111052287000,-0.38,8.35,2.3018389
3111102275000,1.38,8.66,2.7921712
3111152263000,0.38,9.19,1.9885708
3111202281000,-2.68,13.4,4.0588636
3111252330000,-1.5,12.22,1.0760075
3111302287000,1.42,15.24,1.3756552
3111352336000,1.14,10.53,-2.6014864
3111402385000,1.5,11.6,-0.29964766
3111452281000,-0.53,9.43,1.0351465
3111502269000,2.11,9.28,0.14982383
3111552287000,0.95,9.15,1.9477097
3111602275000,0.23,8.85,1.4573772
3111652263000,1.23,8.73,1.334794
3111702281000,1.76,8.28,1.9477097
3111752269000,0.72,7.59,0.7627395
3111802318000,0.42,8.31,0.38136974
3111852275000,1.5,9.3,0.8036005
3111902293000,1.76,9.47,0.92618364
3111952281000,1.18,10.23,2.5333846
3112002299000,1.31,9.51,4.671779
3112052287000,-1.46,15.85,6.0474343
3112102305000,1.73,16.66,3.568531
3112152141000,0.19,10.19,3.2961242
3112202312000,-3.79,4.9,1.2258313
3112252269000,-2.3,5.24,2.4925237
3112302287000,-1.5,4.9,2.070293
3112352305000,-0.89,6.82,2.5333846
3112402263000,2.3,9.58,3.1463003
3112452281000,0.04,8.73,2.7921712
3112502299000,-2.6,9.7,5.8567495
3112552287000,-1.18,8.85,3.718355
3112602275000,0.04,8.08,2.4516625
3112652293000,0.38,8.24,1.8387469
3112702281000,-0.72,9.38,1.56634
3112752269000,-0.3,14.67,1.607201
3112802287000,-0.46,12.57,5.434519
3112852305000,1.18,12.49,-1.1168685
3112902263000,1.8,11.84,-0.6946377
3112952281000,0.19,10.08,1.0760075
3113002269000,0.84,9.28,0.3405087
3113052318000,1.38,9.15,0.84446156
3113102275000,0.89,8.54,1.4982382
3113152385000,0.8,7.93,1.3075534
3113202281000,1.54,9.08,1.920469
3113252269000,0.8,6.63,0.3405087
3113302287000,2.6,8.5,0.46309182
3113352305000,2.79,9.47,1.334794
3113402263000,0.61,9.89,3.214402
3113452312000,1.12,10.46,4.671779
3113502269000,0.69,12.6,4.7943625
3113552287000,2.22,17.2,5.5162406
3113602275000,-1.95,10.19,1.7297841
3113652293000,-1.42,7.86,1.3756552
3113702281000,-0.99,6.78,1.920469
3113752269000,-0.11,5.52,1.7570249
3113802287000,-0.61,5.79,1.9477097
3113852305000,0.53,7.44,2.1792557
3113902263000,0.57,7.31,2.4925237
3113952312000,-0.46,8.85,5.706926
3114002269000,-2.34,9.72,4.862464
3114052287000,-0.84,10.08,4.140586
3114102305000,1.12,12.11,-0.6946377
3114152263000,-2.98,13.21,6.469665
3114202281000,0.95,13.1,0.53119355
3114252299000,3.17,11.07,-1.3075534
3114302287000,0.8,10.46,1.920469
3114352305000,0.15,9.15,0.27240697
3114402263000,0.42,7.74,1.6480621
3114452281000,0.04,7.63,2.6832085
3114502238000,1.99,7.63,1.6889231
3114552287000,1.92,7.27,1.3756552
3114602275000,0.57,9.62,1.9885708
3114652293000,2.6,9.43,1.6889231
3114702281000,1.33,9.38,3.6774938
3114752269000,2.18,13.76,5.325556
3114802287000,-2.6,16.97,4.7535014
3114852580000,1.12,10.23,2.4925237
3114902263000,-3.41,8.43,3.1054392
3114952281000,-1.57,6.09,1.9477097
3115002269000,-0.27,4.94,2.982856
3115052287000,-0.57,6.13,2.4516625
3115102275000,3.21,8.05,2.1792557
3115152293000,2.37,7.7,3.8273177
3115202312000,-1.5,8.85,5.407278
3115253703000,-0.38,8.58,3.445948
3115302287000,-2.91,10.69,3.214402
3115352305000,1.27,12.45,2.152015
3115402263000,-4.14,12.26,3.759216
3115452281000,4.21,14.86,1.4165162
3115502269000,0.76,10.5,-1.7297841
3115552287000,0.38,10.46,1.879608
3115602275000,1.5,9.28,0.8036005
3115652293000,1.38,8.58,1.4165162
3115702312000,0.57,8.08,2.2609777
3115752269000,1.73,8.08,1.3756552
3115802287000,1.54,7.08,1.0351465
3115852458000,1.8,8.77,0.61291564
3115902232000,1.8,10.31,0.88532263
3115952281000,1.76,9.53,2.1111538
3116002269000,0.15,8.24,3.0237172
3116052287000,1.88,12.49,5.407278
3116102275000,2.15,17.27,4.1814466
3116152263000,-1.14,12.11,3.8681788
3116202281000,-2.3,8.12,1.8387469
3116252360000,-1.88,7.5,2.3426998
3116302287000,-0.89,5.37,1.9885708
3116352275000,-0.69,5.24,1.920469
3116402263000,0.69,7.59,2.3426998
3116452281000,2.11,7.12,2.982856
3116502269000,-0.91,9.04,3.7864566
3116552287000,-1.18,9.85,5.284695
3116602275000,-2.64,10.23,3.445948
3116652293000,-1.53,10.76,2.8738933
3116702281000,1.88,12.91,-1.6889231
3116752299000,2.07,13.02,4.862464
3116802287000,-1.46,10.53,-0.7627395
3116852275000,3.87,12.37,-0.9942854
3116902293000,0.42,9.51,1.1441092
3116952312000,0.89,10.04,0.84446156
3117002269000,-0.46,8.58,1.7297841
3117052287000,1.23,8.01,2.1111538
3117102275000,2.56,7.78,1.3075534
3117152263000,3.38,8.89,0.84446156
3117202373000,-0.34,9.15,0.46309182
3117252421000,1.18,10.61,1.0760075
3117302348000,1.5,10.0,1.7978859
3117352367000,0.89,7.4,2.6423476
3117412242000,2.68,8.96,3.405087
3117462199000,3.41,12.53,4.862464
3117512279000,-0.61,14.18,5.597963
3117562236000,1.27,11.56,4.903325
3117612315000,0.84,8.35,2.1111538
3117662242000,-1.53,5.43,3.8273177
3117712260000,-0.19,6.05,3.2961242
3117762401000,-0.99,5.41,3.214402
3117812297000,1.12,6.59,3.3778462
3117862254000,2.6,8.5,2.1792557
3117912303000,1.54,9.28,4.4810944
3117962199000,0.69,9.15,4.671779
3118012248000,-1.88,9.28,3.759216
3118062205000,-2.98,10.46,3.990762
3118112285000,-2.11,10.08,-1.6480621
3118182353000,1.69,13.29,-1.6480621
3118232280000,2.49,12.22,3.486809
3118232280000,2.49,12.22,3.486809
3118332225000,2.45,9.3,1.1168685
3118382335000,-0.15,9.85,0.53119355
3118382335000,-0.15,9.85,0.53119355
3118442271000,1.76,9.43,0.5720546
3118492198000,0.08,9.0,0.53119355
3118542277000,1.76,9.51,0.313268
3118592235000,1.5,8.92,0.9942854
3118643687000,0.99,8.39,0.42223078
3118742259000,1.84,9.7,0.5720546
3118792247000,2.07,10.61,1.9477097
3118842235000,0.34,8.39,2.4516625
3118893748000,2.83,12.79,3.1463003
3118942271000,-0.99,15.6,2.2201166
3118993663000,-2.83,13.44,1.1168685
3119042247000,0.08,11.41,0.61291564
3119092265000,0.76,9.08,1.8387469
3119142284000,-1.92,6.66,1.7297841
3119192271000,-1.42,6.97,2.2201166
3119243724000,0.38,7.82,2.7921712
3119292247000,-0.15,7.82,3.214402
3119342265000,0.04,8.24,3.336985
3119392253000,1.46,10.65,6.5513873
3119442271000,2.45,10.46,7.504812
3119492259000,0.38,8.89,3.759216
3119542277000,-1.88,11.41,0.46309182
3119593669000,-2.79,15.13,3.8273177
3119642253000,-5.13,4.29,-3.486809
3119692271000,-2.34,11.54,-1.7978859
3119742229000,3.02,10.99,2.1792557
3119792247000,0.38,10.08,-1.4165162
3119843700000,1.08,9.7,0.38136974
3119892253000,0.53,10.0,-0.14982383
3119942241000,0.34,9.72,0.10896278
3119992229000,0.27,9.85,0.040861044
3120042308000,0.84,10.0,0.10896278
3120093669000,-0.04,9.66,-0.10896278
3120142253000,0.72,10.08,-0.8036005
3120192241000,0.57,9.96,-0.38136974
3120242229000,0.08,10.08,-0.6537767
3120292247000,0.31,10.04,-0.23154591
3120343638000,0.89,10.38,0.5720546
3120392253000,-0.04,11.03,0.6946377
3120442271000,-0.72,11.45,-0.7218784
3120492259000,-3.02,10.65,-0.3405087
3120542247000,-0.91,12.76,-0.95342433
3120592265000,-0.42,10.69,-1.1441092
3120642284000,1.18,10.08,0.6946377
3120692210000,-1.61,10.34,2.8738933
3120743632000,-0.53,7.16,0.88532263
3120792216000,1.18,8.28,2.4108016
3120842265000,0.34,7.93,2.7649305
3120892253000,-0.72,6.74,2.4925237
3120942241000,-0.04,7.97,3.336985
3120993663000,0.19,8.47,3.486809
3121042216000,-0.23,9.43,3.718355
3121092235000,-0.15,7.89,2.7649305
3121142222000,-0.57,8.43,3.1054392
3121192241000,1.04,7.78,2.152015
3121243663000,-0.65,8.16,1.4982382
3121292247000,-1.12,8.12,3.8273177
3121342265000,1.12,8.5,1.4165162
3121392222000,-0.65,9.81,2.7240696
3121442271000,-1.84,18.35,3.5957718
3121493663000,-1.08,7.46,-0.10896278
3121542247000,2.11,14.6,-3.9090397
3121592204000,1.04,10.88,4.372132
3121642314000,0.5,10.84,-1.2666923
3121692241000,2.22,8.16,2.3699405
3121743632000,0.53,8.28,2.5333846
3121792247000,1.54,7.16,1.920469
3121842235000,0.84,7.67,2.070293
3121892284000,0.61,7.55,1.4165162
3121942241000,0.8,8.92,1.4165162
3121993663000,0.46,10.15,1.3075534
3122042216000,0.72,11.69,4.7535014
3122092235000,2.22,7.25,1.7297841
3122142284000,1.12,9.43,5.134871
3122192271000,-0.19,19.42,7.273266
3122243663000,2.64,7.55,3.405087
3122292247000,-3.49,8.28,4.630918
3122342265000,-3.95,5.33,3.636633
3122392253000,0.46,5.86,3.1463003
3122442271000,-0.42,7.25,3.8681788
3122493632000,-0.5,7.06,3.568531
3122542216000,0.15,7.21,3.568531
3122592265000,0.42,7.74,3.8681788
3122642253000,1.46,8.39,2.6423476
3122692271000,-0.76,9.81,4.099725
3122742259000,-0.57,8.92,3.5276701
3122792247000,-1.12,9.66,2.7240696
3122842265000,-0.04,8.77,3.1463003
3122892253000,-0.69,10.65,1.0760075
3122942241000,-0.5,12.68,1.4982382
3122993663000,1.04,11.18,1.56634
3123042247000,2.56,13.06,-0.040861044
3123092235000,-0.23,10.27,-1.0760075
3123142284000,1.84,10.88,0.88532263
3123192271000,-0.27,9.7,0.42223078
3123252360000,1.18,8.89,0.53119355
3123302287000,0.72,8.01,1.6889231
3123352336000,1.8,7.63,0.88532263
3123402263000,1.57,7.31,1.4165162
3123452281000,2.26,7.89,0.6946377
3123502299000,2.37,11.3,1.879608
3123552287000,-0.72,8.58,3.636633
3123602275000,0.31,10.88,4.7126403
3123652263000,1.27,12.34,4.2086873
3123702312000,3.06,18.01,3.255263
3123752269000,-2.11,9.3,3.173541
3123802379000,-0.46,9.51,3.0237172
3123902263000,-0.5,5.75,1.9885708
3123902263000,-0.5,5.75,1.9885708
3123952281000,-1.92,6.02,2.8330324
3124002391000,-0.76,6.82,2.3699405
3124052287000,0.57,6.51,2.4516625
3124102336000,2.96,8.2,2.6832085
3124162242000,-0.95,9.11,4.3312707
3124212199000,-1.23,9.08,4.862464
3124262279000,-1.42,9.43,3.2961242
3124312236000,-0.15,13.48,2.7649305
3124362315000,-1.38,11.75,2.6014864
3124412242000,2.41,14.9,3.0645783
3124462260000,0.31,11.03,-4.5219555
3124512248000,-0.19,11.3,2.4925237
3124562266000,-0.53,9.77,-0.040861044
3124612224000,2.76,9.72,0.38136974
3124662303000,-0.04,8.31,1.607201
3124712199000,0.34,7.93,1.1441092
3124762279000,2.37,6.21,-0.53119355
3124812205000,1.65,8.12,0.84446156
3124862285000,0.89,9.58,2.070293
3124912242000,2.68,9.28,3.214402
3124962291000,1.46,9.77,6.0882955
3125012218000,-1.42,11.75,6.851035
3125062266000,6.09,19.34,1.607201
3125112224000,-2.98,7.25,2.982856
3125162273000,1.57,8.47,3.5276701
3125212199000,-0.89,3.15,1.920469
3125262248000,-0.65,4.9,2.3699405
3125312205000,0.31,3.95,0.6537767
3125412211000,0.5,12.34,5.597963
3125462260000,-0.23,8.81,5.175732
3125512218000,-3.64,11.18,3.9499009
3125562327000,-3.36,18.43,5.2165933
3125612224000,3.45,9.53,1.607201
3125662303000,4.86,12.72,0.92618364
3125712199000,-1.57,11.35,-0.10896278
3125762279000,0.89,9.77,0.95342433
3125812205000,0.65,9.62,1.5390993
3125862529000,1.8,8.66,1.7297841
3125912242000,1.18,8.31,2.2201166
3125962291000,1.27,8.24,2.2609777
3126012248000,1.65,6.7,1.4982382
3126062297000,3.15,7.74,0.8036005
3126112224000,1.84,9.0,-0.08172209
3126162273000,1.04,9.92,1.3075534
3126212230000,1.92,9.72,3.0237172
3126262279000,1.18,9.11,3.9499009
3126312205000,0.93,13.59,5.7477865
3126362346000,0.31,17.73,5.134871
3126412242000,1.8,10.38,4.2086873
3126462260000,-2.96,7.63,3.636633
3126512218000,-1.65,4.9,2.6423476
3126562266000,-0.15,5.6,2.6423476
3126612224000,-0.46,5.94,2.6423476
3126662303000,-0.34,5.98,2.3018389
3126712199000,-0.08,7.4,3.1054392
3126762309000,1.76,8.81,4.0588636
3126812205000,1.5,9.0,3.0237172
3126862376000,-2.18,10.23,5.829509
3126912211000,-0.08,9.23,5.012288
3126962260000,-0.57,8.54,1.607201
3127012218000,-1.12,13.53,-0.38136974
3127062327000,2.11,12.91,3.173541
3127122783000,0.31,10.88,2.3699405
3127172252000,2.45,12.72,-1.6889231
3127222270000,0.84,9.43,1.3756552
3127272197000,0.76,9.81,0.46309182
3127322276000,0.72,8.5,1.3075534
3127372233000,0.84,8.69,1.2666923
3127422282000,1.38,8.16,0.9942854
3127472209000,1.76,8.39,1.6480621
3127522258000,0.76,8.31,0.9942854
3127572276000,2.11,10.08,1.0760075
3127622264000,1.33,8.5,0.7218784
3127672252000,0.99,8.08,1.879608
3127722270000,2.15,12.3,4.2495484
3127772258000,0.65,15.24,5.134871
3127822276000,-1.33,11.18,4.140586
3127872233000,3.15,14.18,3.718355
3127922282000,-2.14,7.55,1.6480621
3127972270000,-1.53,6.44,2.1111538
3128022258000,-0.46,5.48,2.1111538
3128072246000,-0.8,6.02,2.070293
3128122264000,-0.15,7.16,2.3426998
3128172252000,1.8,7.97,2.152015
3128222270000,0.34,8.81,3.636633
3128272227000,0.11,9.77,4.903325
3128322307000,-2.6,10.92,4.2086873
3128372233000,-1.65,9.3,3.1463003
3128422282000,0.89,12.37,3.336985
3128472209000,0.08,13.59,0.3405087
3128522258000,-0.46,9.66,1.6889231
3128572215000,2.22,11.92,-1.3075534
3128622264000,-0.38,10.61,1.6480621
3128672221000,1.14,10.08,-1.0351465
3128722270000,1.27,10.5,0.5720546
3128772227000,-1.76,8.85,1.1441092
3128822307000,0.69,8.89,0.6537767
3128872233000,1.76,8.77,0.14982383
3128922313000,0.38,8.58,0.50395286
3128972301000,0.08,7.67,0.313268
3129022258000,2.87,9.53,0.27240697
3129072215000,0.89,9.23,0.46309182
3129122325000,1.12,9.15,1.9477097
3129182262000,0.19,12.34,4.099725
3129232219000,-1.12,14.37,3.405087
3129282268000,0.99,14.06,0.61291564
3129332255000,-2.72,13.02,1.4573772
3129382304000,-3.45,9.04,2.070293
3129432201000,0.53,7.89,1.334794
3129532237000,-1.5,6.44,1.5390993
3129582316000,-1.23,7.21,2.5333846
3129682292000,1.23,10.12,5.325556
3129732310000,0.95,11.56,8.158588
3129782298000,-0.42,12.03,4.8216033
3129832225000,-2.18,14.21,4.1814466
3129882304000,-3.53,1.54,-4.399372
3129882304000,-3.53,1.54,-4.399372
3129982280000,0.23,9.81,-0.040861044
3130032268000,-0.15,11.03,-0.10896278
3130082225000,1.14,10.12,-0.53119355
3130132274000,1.61,9.53,0.040861044
3130182201000,0.38,9.58,0.040861044
3130232280000,0.8,10.27,0.08172209
3130282268000,-0.53,9.43,0.19068487
3130332286000,0.72,9.92,-0.46309182
3130382213000,-0.27,9.92,0.313268
3130432292000,0.11,10.04,-0.6537767
3130482219000,-0.38,10.53,-0.14982383
3130532268000,-0.65,9.47,-0.14982383
3130582225000,1.57,10.65,-0.29964766
3130632274000,0.15,11.45,1.2258313
3130682201000,-2.75,11.45,0.88532263
3130732280000,-3.6,10.8,-1.1441092
3130782207000,-1.23,13.67,-0.95342433
3130832286000,-0.08,10.46,-0.6946377
3130932262000,-2.41,9.08,2.6423476
3130982219000,-0.8,6.24,0.040861044
3131032268000,0.99,8.62,2.7921712
3131082255000,-0.99,6.44,2.1111538
3131132274000,-0.42,6.55,1.7297841
3131182201000,0.42,7.67,2.2609777
3131232280000,0.57,8.28,3.8681788
3131282207000,-0.04,8.62,3.6774938
3131332286000,-2.18,10.08,4.6036777
3131382243000,-1.42,8.73,1.1168685
3131432262000,0.76,7.7,1.4573772
3131482310000,-0.72,10.27,4.0180025
3131532298000,-3.53,11.35,4.862464
3131582225000,1.99,11.99,-0.19068487
3131632274000,-1.12,15.85,3.568531
3131682231000,0.04,9.47,-1.4982382
3131732280000,2.15,12.37,-3.759216
3131832286000,1.27,9.47,-0.8036005
3131882243000,0.72,8.92,1.2258313
3131932292000,0.38,9.3,1.2666923
3131982249000,1.5,9.0,1.3075534
3132032268000,1.42,9.0,0.95342433
3132082225000,0.65,8.12,2.152015
3132132274000,0.61,8.12,0.95342433
3132182231000,1.46,8.5,-0.040861044
3132232280000,-0.46,8.92,1.2258313
3132282207000,1.92,10.23,1.7570249
3132332286000,1.8,8.39,2.7649305
3132382243000,0.61,11.18,6.2108784
3132432292000,0.95,15.47,4.3312707
3132482249000,2.34,16.89,4.4810944
3132532298000,-1.31,5.22,1.879608
3132582225000,-2.37,7.5,3.5276701
3132632274000,-0.04,5.09,1.7978859
3132682201000,-1.31,4.9,2.070293
3132732280000,-0.5,7.12,3.0237172
3132782237000,2.64,9.08,3.405087
3132832286000,1.69,8.05,2.7921712
3132882243000,-0.11,9.11,3.5957718
3132932262000,-0.27,9.11,4.630918
3132982249000,-0.5,9.81,4.140586
3133032268000,-0.08,11.45,3.0645783
3133082225000,-0.61,13.87,0.6537767
3133132274000,0.5,11.6,-3.5276701
3133182231000,3.38,14.1,1.7978859
3133232310000,-1.14,10.23,-0.3405087
3133282207000,0.95,9.43,0.3405087
3133332286000,0.23,8.96,1.4165162
3133382243000,0.38,8.43,0.95342433
3133432262000,2.91,7.27,1.4165162
3133482219000,1.95,7.63,2.0294318
3133532268000,2.37,7.78,0.53119355
3133582225000,2.53,8.2,0.88532263
3133632274000,3.17,10.31,2.3699405
3133682231000,1.69,10.08,5.8976107
3133732280000,0.72,13.21,5.706926
3133782207000,0.76,16.47,3.405087
3133832286000,-0.3,7.35,0.9942854
3133882243000,-0.15,9.47,3.405087
3133932262000,-1.42,5.28,1.4982382
3133982219000,-0.76,4.71,1.4573772
3134032298000,1.65,9.0,2.7649305
3134082286000,0.95,8.01,2.2609777
3134132304000,-2.72,9.38,4.903325
3134182231000,-1.76,9.23,4.0588636
3134232280000,-0.89,9.3,3.8273177
3134282237000,0.8,9.92,2.4108016
3134332286000,-0.15,13.59,-1.9477097
3134382243000,0.89,12.15,4.671779
3134432262000,0.99,14.6,-0.84446156
3134482219000,-0.89,10.57,-0.19068487
3134532268000,2.22,9.34,-0.08172209
3134582225000,1.57,7.86,1.4982382
3134632335000,1.8,8.47,2.0294318
3134682201000,1.5,8.05,2.4516625
3134732280000,1.88,7.59,1.0760075
3134782207000,2.72,8.62,0.61291564
3134832316000,0.76,9.43,1.1168685
3134882243000,1.27,9.43,2.4108016
3134932262000,1.76,8.43,4.0180025
3134982310000,1.38,12.87,5.09401
3134982310000,1.38,12.87,5.09401
3135082286000,0.15,13.06,4.2904096
3135132335000,-0.11,8.96,1.7297841
3135132335000,-0.11,8.96,1.7297841
3135192271000,-3.06,8.05,2.8738933
3135242198000,-0.27,5.83,1.3075534
3135292277000,-1.04,6.4,3.0237172
3135342265000,-1.42,7.27,3.2961242
3135393657000,0.99,6.59,3.214402
3135442210000,1.61,7.27,3.336985
3135492229000,0.57,8.16,3.5957718
3135542247000,-1.08,9.19,4.903325
3135592235000,-0.99,11.45,5.284695
3135642253000,0.04,8.58,2.4108016
3135692241000,0.53,11.88,1.1441092
3135742259000,-2.91,12.72,4.1814466
3135792308000,2.49,14.33,1.879608
3135792308000,2.49,14.33,1.879608
3135942210000,2.68,8.77,1.4982382
3135942210000,2.68,8.77,1.4982382
3135992351000,1.95,8.73,1.920469
3136042247000,0.72,7.82,2.3018389
3136092265000,1.61,7.97,2.1111538
3136142222000,1.99,7.31,1.3075534
3136193675000,2.11,9.04,0.14982383
3136242259000,1.54,9.38,1.3075534
3136292247000,1.46,9.92,2.6832085
3136342235000,2.3,9.15,4.140586
3136392284000,0.53,14.29,4.7943625
3136442210000,1.18,18.28,4.140586
3136492229000,0.65,9.23,4.3312707
3136542247000,-1.08,7.55,3.173541
3136592204000,-2.53,4.6,2.070293
3136643687000,-0.19,5.01,2.5333846
3136692210000,-1.04,5.33,2.0294318
3136742259000,0.31,6.02,2.3426998
3136792216000,2.56,8.66,3.636633
3136842235000,1.33,8.69,3.636633
3136892284000,-0.23,9.38,5.6660647
3136942241000,-2.37,9.77,5.325556
3136993663000,-1.14,10.61,2.8330324
3137042216000,-0.57,13.91,-3.255263
3137092235000,2.11,13.82,7.3958488
3137142284000,0.72,13.06,-3.0237172
3137192271000,0.65,10.46,2.6423476
3137242290000,0.72,9.11,0.88532263
3137292247000,0.53,8.73,1.334794
3137343669000,0.04,8.01,1.7570249
3137442210000,1.42,7.89,1.56634
3137492259000,1.57,6.97,1.1441092
3137542247000,1.5,10.15,0.38136974
3137592204000,2.64,10.69,1.3756552
3137642253000,1.42,10.76,3.8273177
3137692210000,-1.27,7.74,4.6036777
3137742290000,0.08,12.3,3.9499009
3137792216000,1.76,18.47,5.434519
3137843608000,-0.04,6.97,2.2609777
3137892284000,-1.12,8.47,3.486809
3137942271000,-1.18,4.75,2.1111538
3137992229000,-0.19,4.75,1.1168685
3138042308000,-0.76,5.43,1.6889231
3138092265000,2.96,8.69,3.1463003
3138142253000,2.3,8.28,3.1054392
3138192271000,-0.5,8.96,6.0474343
3138242229000,-1.99,10.31,5.706926
3138292277000,-0.95,12.98,5.09401
3138342235000,0.08,14.18,-3.445948
3138392284000,-0.84,14.29,0.50395286
3138442241000,0.89,12.49,-4.9850473
3138492198000,0.34,9.15,1.7570249
3138542247000,1.14,9.08,-0.7218784
3138592265000,1.99,8.35,0.84446156
3138642253000,0.57,8.35,1.1849703
3138693675000,2.03,7.82,0.08172209
3138742229000,0.61,6.28,0.19068487
3138792247000,3.17,9.19,-0.6946377
3138842204000,1.69,9.08,0.95342433
3138892284000,0.53,10.12,1.4982382
3138943675000,-0.65,8.28,3.405087
3138992229000,1.42,16.55,3.8681788
3139042216000,-4.25,19.34,0.46309182
3139092235000,-2.53,12.41,-1.2666923
3139142222000,0.57,12.03,0.5720546
3139193614000,1.76,8.96,1.879608
3139242229000,-2.98,2.68,-1.4165162
3139292247000,-0.23,6.82,2.9556155
3139342296000,0.34,7.16,2.9556155
3139392284000,0.08,8.5,3.3778462
3139443675000,0.38,11.03,7.205164
3139492198000,-0.08,10.04,5.5162406
3139542277000,0.19,9.43,2.8330324
3139592204000,-0.3,13.1,4.7943625
3139642284000,-2.3,9.08,1.9885708
3139692210000,-4.02,4.99,-1.7978859
3139742198000,1.57,13.53,-1.1849703
3139792247000,-0.57,9.58,1.1849703
3139842265000,0.5,10.88,-0.88532263
3139892284000,2.3,10.0,-0.61291564
3139942271000,0.69,9.85,-0.50395286
3140042277000,1.69,9.62,-0.50395286
3140093669000,-0.19,9.81,1.920469
3140142253000,-2.07,9.51,1.1441092
3140192241000,2.11,11.22,0.46309182
3140242259000,0.5,12.98,1.2258313
3140292247000,-5.63,11.54,0.08172209
3140342235000,0.42,13.53,-0.10896278
3140392284000,0.04,9.62,-0.29964766
3140442241000,-0.95,9.72,1.2666923
3140492290000,-1.31,7.59,2.4516625
3140542216000,0.23,7.25,0.95342433
3140593639000,-1.5,7.25,2.4516625
3140642253000,-0.15,7.31,3.255263
3140692241000,0.76,7.59,2.7240696
3140792277000,0.23,8.43,3.568531
3140842265000,-1.38,8.39,3.8681788
3140892253000,-0.61,8.62,3.6774938
3140942271000,0.72,8.39,5.5571017
3140992198000,2.26,7.44,-0.46309182
3141043651000,-1.8,9.85,5.829509
3141102305000,-1.18,8.92,4.862464
3141152263000,-0.5,10.15,4.6036777
3141202312000,0.31,18.35,9.575105
3141252330000,1.42,7.7,-4.440233
3141302318000,-3.87,11.22,-4.0180025
3141352305000,-0.53,11.07,4.372132
3141402263000,-0.53,9.58,0.84446156
3141502299000,-0.04,9.85,2.6014864
3141552287000,0.46,9.0,1.4573772
3141602305000,0.8,8.85,1.607201
3141652141000,0.15,8.24,2.3426998
3141702281000,1.18,8.47,2.7649305
3141752299000,0.93,7.67,2.2201166
3141802287000,1.5,9.28,1.4573772
3141852305000,0.15,9.0,0.95342433
3141902263000,0.46,10.12,1.1168685
3141952312000,0.84,10.0,2.3426998
3142002299000,1.14,8.08,3.445948
3142102305000,-0.53,16.66,3.759216
3142152293000,1.12,10.73,4.399372
3142202281000,-0.38,10.34,4.862464
3142252299000,-3.68,5.41,3.173541
3142302287000,0.31,7.63,2.9147544
3142352305000,-1.46,6.4,3.214402
3142402263000,-1.42,6.74,3.486809
3142452312000,-0.15,7.01,3.2961242
3142502238000,1.12,6.7,3.2961242
3142552318000,3.21,7.97,2.6014864
3142602275000,0.99,8.96,4.140586
3142652324000,-0.38,8.54,6.0882955
3142702281000,-1.38,10.0,3.1054392
3142752299000,-0.91,8.62,4.372132
3142802287000,0.89,11.8,0.7218784
3142852305000,-3.49,14.14,1.4165162
3142902263000,0.38,13.4,1.3075534
3142952281000,0.8,11.11,-1.3075534
3143002330000,2.03,11.56,1.3075534
3143052287000,0.31,9.15,0.5720546
3143102275000,0.42,9.53,0.61291564
3143202281000,0.76,8.31,1.9477097
3143252299000,2.37,8.2,0.8036005
3143302287000,1.18,7.5,1.1441092
3143357066000,1.54,9.23,0.38136974
3143412578000,1.61,10.08,1.607201
3143462169000,0.61,8.66,2.6832085
3143512309000,1.99,8.92,4.399372
3143572276000,0.34,13.67,5.829509
3143632243000,0.53,15.83,3.8681788
3143682262000,0.69,8.35,1.9885708
3143732280000,-2.34,8.05,3.1054392
3143782207000,0.31,6.36,2.4516625
3143832347000,-0.42,5.33,2.3426998
3143882213000,-1.46,6.51,2.7240696
3143932262000,2.07,8.12,2.3699405
3143982219000,2.6,7.44,3.1463003
3144032298000,-1.38,9.51,4.2495484
3144082255000,-2.22,9.28,4.862464
3144132274000,-0.27,8.81,3.405087
3144182201000,0.72,13.4,2.7240696
3144232280000,-0.99,12.41,2.2201166
3144282268000,0.95,11.6,0.9942854
3144332316000,1.46,11.96,-1.607201
3144382213000,0.08,11.14,-0.08172209
3144432262000,2.34,9.81,0.50395286
3144482219000,0.61,9.04,1.1441092
3144532268000,1.27,7.82,1.1441092
3144582255000,1.73,8.28,2.8738933
3144632274000,2.79,8.05,1.2258313
3144682201000,1.42,7.89,0.46309182
3144732280000,2.22,9.43,0.88532263
3144782237000,1.33,8.81,1.7297841
3144832286000,2.03,8.73,2.7921712
3144882213000,2.68,11.56,4.7535014
3144932262000,1.38,14.33,4.2904096
3144982249000,-0.3,15.6,4.440233
3145032268000,-2.18,7.16,2.1792557
3145082255000,-1.04,9.04,3.1054392
3145132274000,-0.72,5.56,1.4573772
3145182201000,0.08,4.79,1.0351465
3145232280000,0.69,6.59,1.9885708
3145282298000,3.95,8.31,3.5276701
3145332286000,-0.65,9.28,4.3312707
3145382243000,-2.45,10.38,5.8567495
3145432262000,-0.57,10.46,2.982856
3145482219000,-0.69,12.79,3.486809
3145532268000,-0.23,11.07,3.445948
3145582255000,2.34,10.0,0.313268
3145632274000,2.26,12.64,-0.42223078
3145682201000,-1.5,9.92,-0.14982383
3145732310000,3.41,10.76,1.3075534
3145782207000,0.57,9.11,0.7218784
3145832286000,0.65,9.53,1.1441092
3145882213000,0.53,8.73,0.84446156
3145932292000,1.08,8.24,1.1849703
3145982249000,1.88,8.81,2.2201166
3146032298000,1.23,7.06,1.3756552
3146082225000,1.5,9.34,1.2258313
3146132304000,1.99,9.72,2.1792557
3146182231000,2.53,9.51,4.3312707
3146282237000,-0.23,17.43,4.7943625
3146332316000,2.37,10.27,3.9090397
3146382243000,-2.96,7.12,2.5333846
3146432262000,-2.72,5.94,2.5333846
3146482249000,-1.04,5.6,1.920469
3146532268000,-0.84,7.08,3.486809
3146582225000,-0.08,7.46,3.1463003
3146632304000,0.27,6.51,3.336985
3146632304000,0.27,6.51,3.336985
3146702312000,1.18,7.44,2.3426998
3146752269000,-0.72,10.12,4.7943625
3146802348000,-0.99,10.53,5.7886477
3146862285000,-1.61,10.15,2.7240696
3146912242000,-1.53,13.14,4.0588636
3146962260000,0.04,10.99,-0.7218784
3147012248000,1.18,12.95,3.1054392
3147062327000,-0.11,11.73,-1.607201
3147112224000,-0.76,11.18,-0.6946377
3147212199000,0.11,9.19,0.50395286
3147262309000,-0.08,8.92,1.1168685
3147312205000,0.76,8.12,2.3018389
3147362315000,2.56,7.97,2.3699405
3147412242000,3.06,7.82,1.2258313
3147462291000,2.15,8.01,0.50395286
3147512218000,2.26,10.19,0.42223078
3147562266000,0.46,9.28,3.1463003
3147632335000,1.31,8.31,4.5219555
3147682262000,3.57,15.75,5.9793324
3147682262000,3.57,15.75,5.9793324
3147782268000,-0.46,12.15,3.759216
3147832347000,-0.23,7.89,2.5606253
3147832347000,-0.23,7.89,2.5606253
3147892253000,-1.23,6.17,2.3426998
3147942210000,-0.76,5.37,1.920469
3147992259000,-1.46,6.44,2.6014864
3148042216000,0.89,7.86,3.1463003
3148093700000,2.37,8.12,2.7921712
3148142284000,-0.11,8.73,2.6014864
3148192424000,-1.8,9.96,6.1291566
3148242229000,-2.03,9.81,4.944186
3148292277000,0.38,9.51,3.1463003
3148342265000,2.79,14.21,-3.445948
3148392253000,-0.08,11.92,8.008764
3148442271000,0.8,13.8,-4.1814466
3148492229000,0.08,12.45,2.8330324
3148543681000,-0.08,10.38,-0.8036005
3148592235000,1.69,8.28,1.1168685
3148642253000,0.89,7.7,0.10896278
3148692271000,1.84,5.37,0.313268
3148742229000,1.84,8.43,1.8387469
3148793681000,0.8,6.24,0.27240697
3148842235000,3.34,11.35,1.4165162
3148892253000,0.5,9.85,2.8738933
3148942210000,-1.08,7.35,4.2086873
3148992259000,0.84,14.48,3.990762
3149043651000,0.34,19.38,2.1792557
3149092235000,-1.46,11.18,1.7570249
3149142222000,-0.3,11.84,3.214402
3149192363000,-0.3,6.32,0.50395286
3149242229000,-2.07,3.57,0.14982383
3149293651000,-0.08,7.35,2.070293
3149342235000,-0.65,6.59,2.7921712
3149392284000,1.31,10.95,6.5513873
3149442241000,2.11,10.73,9.466142
3149492259000,-0.15,9.96,4.099725
3149543681000,-3.17,13.67,5.829509
3149592235000,-1.42,4.9,-1.1849703
3149642253000,-0.76,9.66,-0.6537767
3149692241000,0.8,11.69,0.7627395
3149742259000,-2.64,8.54,-0.8036005
3149793651000,1.27,11.54,0.10896278
3149842235000,1.54,9.66,-0.46309182
3149992229000,-0.08,9.08,-0.08172209
3150042216000,-0.08,10.12,-0.27240697
3150092265000,0.04,9.38,-0.29964766
3150142253000,1.69,10.76,-0.5720546
3150193675000,-0.5,10.73,0.7218784
3150242229000,-0.11,10.34,1.8387469
3150292247000,2.22,11.3,0.8036005
3150342235000,-1.08,13.18,-1.7570249
3150392253000,-6.93,13.8,-1.9477097
3150443645000,-0.69,11.37,-0.38136974
3150492198000,-2.3,9.47,0.38136974
3150542247000,-1.92,8.69,0.7627395
3150592204000,0.15,9.72,1.4165162
3150642253000,-1.69,6.51,1.5390993
3150692241000,0.08,6.7,3.214402
3150742259000,0.34,6.09,3.568531
3150792247000,0.15,6.89,3.9090397
3150843638000,-1.38,9.89,7.8180795
3150892284000,-1.88,9.19,7.082581
3150942241000,-2.96,9.85,3.3778462
3150992229000,-2.03,14.06,5.829509
3151042277000,-4.71,3.64,-0.6946377
3151093700000,-3.49,9.72,0.42223078
3151142253000,2.37,12.18,-0.27240697
3151192271000,0.08,9.72,0.92618364
3151242229000,-0.08,10.92,0.7627395
3151292216000,-0.08,9.62,0.6946377
3151342235000,1.14,9.38,-0.040861044
3151392222000,0.27,9.08,1.4982382
3151442241000,0.42,8.08,2.6423476
3151492259000,2.53,8.16,2.3018389
3151542277000,1.76,6.66,1.9477097
3151642253000,1.57,8.47,0.6537767
3151692302000,-0.5,9.23,1.8387469
3151742229000,-0.3,7.31,2.7240696
3151792277000,4.86,11.22,4.5628166
3151842235000,1.65,18.85,4.372132
3151892222000,-0.57,14.48,1.6480621
3151942241000,0.95,11.69,3.3778462
3151992198000,-2.3,9.72,4.440233
3152042277000,1.04,5.98,0.95342433
3152093669000,-0.5,3.64,1.7297841
3152142253000,-0.89,3.87,1.8387469
3152192241000,-1.53,4.52,0.9942854
3152242259000,0.34,4.94,1.879608
3152292277000,4.44,10.19,4.4810944
3152342265000,-0.08,10.5,4.7126403
3152392284000,-2.72,9.7,6.782933
3152442241000,-1.31,10.27,2.7649305
3152492229000,2.72,15.75,-2.2201166
3152542247000,-2.37,15.28,6.5513873
3152592265000,-0.23,14.02,-2.3699405
3152642253000,1.18,10.95,0.53119355
3152702312000,-0.38,8.62,0.7218784
3152752238000,0.99,7.4,0.7218784
3152802287000,0.19,5.52,1.8387469
3152852275000,0.69,6.78,0.95342433
3152902263000,4.14,9.62,1.2666923
3152952281000,0.57,6.28,2.1111538
3153002299000,5.41,12.6,2.4925237
3153052287000,0.89,7.93,3.5276701
3153102275000,0.42,11.65,6.2789803
3153152263000,0.93,18.05,5.243834
3153202281000,-0.04,13.72,2.2609777
3153252330000,-1.65,5.56,1.56634
3153302287000,-1.14,5.48,0.9942854
3153352397000,0.15,2.76,3.1054392
3153452312000,4.63,9.92,3.1054392
3153452312000,4.63,9.92,3.1054392
3153502635000,-1.73,10.0,5.012288
3153552379000,-4.75,9.92,5.7886477
3153602275000,-0.69,11.73,4.140586
3153652354000,1.27,14.82,-0.88532263
3153712230000,-1.46,10.69,-1.8387469
3153762218000,1.33,13.72,-3.214402
3153812266000,0.61,8.73,1.56634
3153862224000,-0.11,7.93,0.84446156
3153912242000,0.5,6.85,1.1168685
3153962230000,1.54,6.51,1.920469
3154012248000,4.37,9.08,1.7978859
3154062205000,0.23,4.18,0.5720546
3154112315000,5.22,14.63,4.2904096
3154162212000,-1.33,7.78,4.7535014
3154212260000,-1.04,13.4,6.238119
3154262248000,4.29,17.86,3.1054392
3154312266000,-3.87,8.85,0.46309182
3154362224000,-1.23,7.67,1.9885708
3154412547000,1.12,5.86,2.2609777
3154462199000,-1.38,5.01,1.334794
3154512370000,-1.04,2.79,1.5390993
3154562236000,2.49,6.32,2.152015
3154612346000,-0.15,10.8,9.112013
3154662242000,0.69,9.15,4.1814466
3154712291000,-3.02,16.28,-0.88532263
3154762309000,0.57,17.01,7.6273947
3154812266000,-1.57,13.53,-4.2086873
3154862254000,0.57,12.22,1.9885708
3154912303000,1.61,7.93,0.10896278
3154962230000,1.14,7.59,1.879608
3155012309000,0.89,5.09,1.9477097
3155062236000,0.57,2.56,0.3405087
3155112315000,3.79,10.38,2.2201166
3155162212000,1.46,9.92,3.7864566
3155212291000,0.57,11.73,7.6954966
3155262248000,-0.89,17.73,3.405087
3155312297000,1.54,16.17,2.9556155
3155362224000,-1.53,6.24,1.0351465
3155412425000,-0.5,7.55,0.92618364
3155462199000,-0.65,4.63,0.6946377
3155512309000,1.61,3.41,0.38136974
3155562205000,3.15,7.74,0.9942854
3155612285000,-5.67,10.31,14.818938
3155662242000,1.14,7.63,0.08172209
3155712260000,-1.95,10.31,-6.2108784
3155762248000,-2.11,17.67,1.0760075
3155812297000,1.31,13.18,-1.6889231
3155862254000,0.46,12.26,1.9477097
3155912273000,2.22,7.63,1.7297841
3155962199000,0.46,6.32,2.2609777
3156012248000,-0.95,2.76,1.1849703
3156062205000,0.72,4.44,0.92618364
3156112315000,3.76,9.77,3.1054392
3156162242000,1.92,12.72,9.152874
3156212291000,-1.23,17.82,4.671779
3156262248000,-0.53,11.8,3.255263
3156312297000,-0.95,9.34,3.1054392
3156362254000,-1.88,8.5,2.7921712
3156412273000,-2.03,4.33,1.2258313
3156462230000,-1.42,4.21,2.6014864
3156512309000,1.61,7.7,3.568531
3156562205000,1.38,7.7,4.1814466
3156612285000,-0.69,8.31,4.0180025
3156662242000,-3.76,9.23,4.7943625
3156712291000,-2.6,10.38,2.5333846
3156762248000,-0.84,11.3,-1.334794
3156812266000,-0.91,14.75,4.903325
3156862224000,-0.69,15.79,5.7886477
3156912273000,3.87,11.14,-3.5276701
3156962199000,-0.23,7.08,-0.27240697
3157012309000,-0.08,8.43,1.56634
3157062236000,0.84,6.89,4.2086873
3157112285000,2.68,4.56,7.5865335
3157162212000,1.31,6.89,1.4573772
3157212291000,-1.69,7.01,0.46309182
3157262218000,2.45,9.77,5.8976107
3157312266000,0.15,11.92,5.2165933
3157362254000,5.86,9.23,9.043911
3157412273000,3.15,12.76,6.3607025
3157462230000,6.02,11.8,6.510526
3157512340000,1.23,6.89,1.9885708
3157562205000,1.18,5.01,2.5333846
3157612315000,4.33,5.09,1.5390993
3427752177000,2.83,13.59,-1.4982382
3427803020000,3.76,11.35,1.920469
3427852306000,3.91,15.43,1.1441092
3427902385000,2.98,12.18,1.6480621
3427952281000,2.83,9.77,2.1792557
3428002513000,3.06,9.72,0.42223078
3428062236000,3.76,9.34,1.1441092
3428112224000,1.73,10.15,0.6537767
3428162303000,2.18,8.58,-0.8036005
3428212291000,4.44,7.86,4.7535014
3428262248000,5.41,8.85,1.9885708
3428312297000,4.1,7.06,1.0760075
3428362254000,4.37,6.28,3.0237172
3428412303000,0.31,-3.45,3.214402
3428462230000,5.24,9.51,2.6832085
3428512309000,3.72,7.21,5.5571017
3428562266000,5.43,6.97,1.6889231
3428612315000,2.79,8.39,4.2495484
3428662242000,4.79,14.21,8.349273
3428712291000,1.84,15.94,8.19945
3428762218000,0.27,14.37,5.6660647
3428812297000,5.18,10.23,5.829509
3428862224000,-1.46,5.94,3.445948
3428912303000,-2.72,6.78,3.9499009
3428962199000,-1.5,4.71,0.7218784
3429012279000,-0.99,6.09,2.6014864
3429072337000,0.08,6.4,2.5333846
3429122234000,0.95,13.4,3.1463003
3429172374000,-1.31,8.85,4.903325
3429232280000,-0.65,9.81,4.399372
3429282268000,0.61,8.28,2.3699405
3429332347000,0.72,9.81,2.4516625
3429382243000,0.31,9.43,1.4982382
3429432262000,1.12,11.37,0.9942854
3429482249000,-1.84,11.8,2.7240696
3429532268000,-1.27,14.33,3.5276701
3429582255000,2.83,11.37,-2.1383946
3429632304000,1.61,10.92,-0.53119355
3429682475000,0.95,8.77,1.879608
3429682475000,0.95,8.77,1.879608
3429782329000,-0.27,8.69,2.7921712
3429832133000,0.84,8.01,0.50395286
3429882304000,2.72,7.12,1.4982382
3429932201000,0.53,7.93,1.334794
3429932201000,0.53,7.93,1.334794
3429982310000,1.99,9.38,0.313268
3430042247000,2.34,9.58,2.070293
3430102306000,2.37,10.99,4.944186
3430152263000,-1.12,15.55,6.66035
3430202281000,1.31,14.29,2.8738933
3430252818000,0.8,9.85,3.486809
3430302287000,-2.56,6.74,1.879608
3430352306000,-1.73,5.9,0.7218784
3430402263000,-0.8,4.37,1.0760075
3430452281000,-0.42,5.13,0.61291564
3430502269000,3.68,10.5,2.8330324
3430552287000,-0.38,10.31,5.366417
3430602275000,-2.03,9.23,6.238119
3430652293000,-0.08,9.43,3.173541
3430702281000,1.27,11.65,5.2165933
3430752299000,-1.33,14.29,-2.1111538
3430802287000,-0.08,11.65,1.8387469
3430852306000,3.11,13.99,-4.7943625
3430902263000,0.65,10.53,3.445948
3430952281000,1.18,9.34,0.14982383
3431002269000,0.53,8.85,1.2666923
3431052318000,0.69,8.66,1.920469
3431102275000,1.42,9.0,1.9477097
3431152263000,1.54,7.86,1.6889231
3431202281000,1.27,6.97,1.3756552
3431252330000,1.27,8.54,0.7218784
3431302287000,2.91,9.92,0.6537767
3431352306000,0.93,10.42,2.4108016
3431402293000,1.04,8.16,4.2904096
3431452281000,0.08,11.35,6.4424243
3431502269000,1.42,17.2,3.7864566
3431552287000,-0.46,13.76,4.399372
3431602275000,-1.99,3.38,2.3426998
3431652263000,-0.99,7.74,3.5957718
3431702281000,-0.38,4.56,1.56634
3431752299000,-1.08,5.09,2.3018389
3431802287000,0.89,8.24,2.9556155
3431852306000,2.64,8.01,2.2609777
3431902263000,-1.92,10.12,5.434519
3431952312000,-2.37,9.72,6.1700177
3432002299000,0.38,9.0,2.6832085
3432052287000,0.72,12.91,2.070293
3432102275000,-1.69,12.79,3.636633
3432152263000,2.68,15.28,1.9885708
3432202251000,0.53,11.45,-2.1792557
3432252269000,-0.19,10.61,1.1168685
3432302287000,1.46,8.92,1.1441092
3432352275000,0.76,8.85,1.607201
3432402263000,0.42,9.19,2.070293
3432452281000,0.53,9.51,1.8387469
3432502269000,1.31,9.47,1.2666923
3432552287000,1.27,8.77,0.92618364
3432602275000,2.87,9.43,0.46309182
3432652263000,1.08,9.08,0.88532263
3432702281000,-1.04,8.16,1.1441092
3432752269000,0.89,7.5,2.3426998
3432802287000,2.96,10.08,3.2961242
3432852275000,0.19,7.01,3.1463003
3432952281000,1.18,15.7,6.782933
3433002269000,4.06,16.13,3.0645783
3433052287000,-4.4,9.04,3.8681788
3433102275000,0.38,7.44,3.7864566
3433152263000,-0.72,5.63,2.9147544
3433202281000,-0.95,4.79,2.2201166
3433252299000,-1.57,5.63,2.6832085
3433302287000,-0.76,5.37,1.7570249
3433352306000,3.95,8.58,4.3312707
3433402263000,2.79,8.08,3.636633
3433452281000,0.8,9.28,5.47538
3433502269000,-4.59,10.65,5.6660647
3433552318000,-2.98,16.55,2.7921712
3433602275000,4.29,11.99,4.5628166
3433652263000,2.64,13.4,-2.1383946
3433702312000,-2.3,12.53,1.6480621
3433752269000,-1.08,10.19,0.19068487
3433802287000,1.33,8.05,1.1441092
3433852306000,0.89,7.74,2.0294318
3433902263000,0.65,7.78,2.9147544
3433952312000,2.18,7.08,1.7297841
3434002269000,1.95,7.46,1.7978859
3434052287000,2.22,8.77,0.27240697
3434102275000,2.03,10.46,2.6423476
3434152263000,1.31,8.47,3.5276701
3434202281000,2.68,10.69,5.8567495
3434252269000,1.33,19.42,6.1700177
3434302287000,0.38,10.42,4.399372
3434352306000,-0.95,8.05,2.7240696
3434402263000,-2.75,4.99,2.1792557
3434452281000,-0.27,5.22,2.2609777
3434502299000,-1.23,5.94,2.6014864
3434602275000,1.84,7.93,2.7921712
3434652293000,0.34,10.08,3.405087
3434712260000,0.65,9.04,5.829509
3434762218000,-1.08,9.0,2.6832085
3434812327000,0.08,8.96,3.445948
3434872295000,1.12,8.96,2.7240696
3434922221000,-0.69,14.33,-1.1441092
3434972331000,-0.76,13.87,9.656827
3435022258000,2.07,10.42,-1.879608
3435082378000,1.54,11.41,-0.14982383
3435082378000,1.54,11.41,-0.14982383
3435142223000,-0.15,10.12,0.10896278
3435192210000,1.57,9.19,1.3756552
3435242229000,0.34,8.81,1.4982382
3435292216000,1.84,9.04,1.607201
3435342235000,1.99,7.59,0.84446156
3435392223000,1.33,9.85,1.2258313
3435442302000,2.41,8.54,0.08172209
3435492198000,0.84,7.25,-0.29964766
3435542247000,2.03,12.76,2.4108016
3435592204000,-0.65,8.31,3.2961242
3435642253000,1.31,10.23,2.5333846
3435692271000,3.11,12.41,3.0645783
3435742229000,1.23,10.73,4.5219555
3435792186000,0.46,11.84,4.7535014
3435842235000,2.72,13.25,3.759216
3435892253000,-1.27,6.97,1.7297841
3435942271000,-1.08,8.69,3.7864566
3436042216000,-1.8,6.63,2.6014864
3436042216000,-1.8,6.63,2.6014864
3436092235000,-0.72,7.78,3.173541
3436142253000,-0.95,8.16,2.9147544
3436242229000,1.73,10.38,5.325556
3436292277000,0.89,10.92,5.2165933
3436342204000,0.08,10.53,5.6252036
3436392253000,-0.15,9.66,2.6014864
3436442210000,-1.92,13.14,1.2666923
3436492229000,0.95,8.28,1.607201
3436542216000,-3.83,7.59,-0.7218784
3436592235000,1.04,12.3,2.070293
3436642223000,-0.69,8.31,0.7627395
3436692241000,1.8,11.14,-0.27240697
3436742198000,-0.65,10.46,0.95342433
3436792247000,-0.91,9.47,-0.7218784
3436842204000,-0.15,9.51,0.08172209
3436892253000,0.93,9.89,0.27240697
3436942210000,0.34,10.04,0.42223078
3436992229000,0.5,9.96,0.6946377
3437042216000,1.33,9.53,0.38136974
3437092235000,1.12,9.58,0.50395286
3437142284000,-0.5,11.6,-0.3405087
3437192241000,-3.11,11.92,0.92618364
3437242259000,-1.84,11.37,1.4573772
3437292247000,-0.69,10.8,0.7218784
3437342204000,-0.53,8.81,0.46309182
3437392253000,0.42,8.62,1.0351465
3437442210000,0.23,8.43,1.7978859
3437492229000,-0.34,8.39,2.3699405
3437542216000,-1.12,8.2,2.3426998
3437592235000,0.04,8.66,2.6832085
3437642253000,1.65,9.28,2.982856
3437692271000,1.12,9.7,3.718355
3437742198000,-0.04,10.65,4.440233
3437792247000,1.31,9.58,3.0645783
3437842204000,-0.53,10.73,1.1168685
3437892253000,-1.12,11.69,1.879608
3437942210000,-2.53,7.25,-0.3405087
3437992229000,1.88,11.6,-1.4573772
3438042216000,-1.84,9.62,1.4165162
3438092235000,-0.15,10.61,-0.14982383
3438192241000,-0.3,9.38,0.23154591
3438292247000,0.23,9.3,0.61291564
3438342235000,-0.04,10.61,1.1168685
3438392253000,-0.08,9.23,0.7218784
3438442210000,-0.23,11.3,0.040861044
3438492229000,-1.38,11.11,3.445948
3438542277000,-2.49,11.6,2.3699405
3438592235000,-0.38,10.84,-0.10896278
3438642223000,0.61,10.04,0.7218784
3438692363000,-0.95,9.08,1.6480621
3438742198000,-1.5,7.21,1.0760075
3438792247000,-1.38,7.4,1.3756552
3438842204000,-2.18,7.12,0.92618364
3438892253000,-0.3,9.04,3.5276701
3438942241000,2.26,8.85,3.486809
3438992229000,-0.99,8.73,3.5957718
3439042247000,2.53,6.93,4.399372
3439092265000,1.95,7.97,1.6889231
3439142253000,-2.98,9.51,4.671779
3439192271000,0.53,7.93,2.070293
3439242198000,-3.6,11.11,4.440233
3439292247000,0.72,11.22,1.0760075
3439342204000,-3.34,14.37,8.049625
3439392253000,3.21,11.54,-1.7297841
3439442241000,-0.08,12.03,1.0351465
3439492229000,-0.15,10.65,0.040861044
3439542216000,1.5,9.28,1.1441092
3439592235000,1.23,8.92,1.920469
3439642223000,0.46,8.43,2.4516625
3439692241000,1.33,8.58,2.3426998
3439742229000,2.34,7.93,2.6832085
3439792247000,0.95,6.74,0.95342433
3439842204000,1.95,8.24,0.53119355
3439892253000,1.92,9.23,0.53119355
3439942241000,1.95,10.92,1.607201
3439992229000,0.57,10.04,3.3778462
3440042216000,0.99,8.01,4.1814466
3440092265000,2.3,15.36,6.6331096
3440142223000,1.08,16.55,4.7943625
3440192241000,0.95,6.17,3.2961242
3440242229000,-1.23,7.67,4.099725
3440292247000,0.04,5.6,2.6014864
3440342235000,-0.34,5.86,2.4108016
3440392284000,-1.18,5.9,3.0237172
3440442241000,0.23,6.32,2.9556155
3440492229000,4.21,9.89,2.8738933
3440542247000,-0.11,8.01,4.2086873
3440592265000,-2.45,10.04,7.7772183
3440642223000,-1.08,9.0,1.2258313
3440692241000,-1.23,7.5,1.6889231
3440742198000,-0.46,13.48,1.5390993
3440842326000,-0.27,8.35,-1.3075534
3440842326000,-0.27,8.35,-1.3075534
3440892375000,2.45,13.91,-0.5720546
3440942271000,-0.15,9.38,1.6889231
3441002330000,1.61,8.62,0.95342433
3441062236000,1.08,7.78,2.7240696
3441112224000,0.23,7.78,1.3075534
3441162303000,1.99,6.7,1.9477097
3441212199000,2.34,8.39,1.4573772
3441262248000,1.73,9.04,1.1849703
3441312205000,1.61,10.23,2.4516625
3441362315000,1.46,8.62,3.6774938
3441412212000,1.31,14.29,7.43671
3441462260000,0.19,19.04,4.630918
3441512248000,2.34,7.63,3.2961242
3441562297000,-3.26,6.36,2.8330324
3441612254000,-1.42,5.33,2.152015
3441662273000,-0.23,4.18,1.1441092
3441712199000,-1.31,5.33,2.4925237
3441762340000,5.09,10.42,3.1463003
3441812236000,1.88,9.58,4.140586
3441862315000,-1.46,9.66,7.164303
3441912212000,-2.83,10.38,3.718355
3442012279000,-0.08,12.57,3.718355
3442082378000,-0.08,12.57,3.718355
3442132274000,0.08,13.14,1.7570249
3442132274000,0.08,13.14,1.7570249
3442232280000,1.38,10.61,3.5957718
3442282329000,0.99,8.96,0.19068487
3442282329000,0.99,8.96,0.19068487
3442342235000,1.54,9.19,1.4165162
3442392223000,0.5,8.85,1.9885708
3442442210000,0.57,8.69,1.7978859
3442492259000,2.56,7.12,1.1441092
3442542277000,1.27,7.93,1.334794
3442592235000,2.68,9.0,0.50395286
3442642284000,2.37,9.96,2.6832085
3442692241000,0.65,8.69,3.8681788
3442742259000,0.93,10.95,4.944186
3442792247000,-0.72,13.06,5.597963
3442842204000,2.49,16.44,4.0180025
3442892253000,-1.38,8.35,1.6889231
3442942210000,-1.5,7.27,3.1463003
3442992229000,-0.89,5.18,1.7297841
3443042216000,-0.65,3.99,1.56634
3443092235000,-0.89,5.71,1.8387469
3443142223000,1.08,7.25,3.445948
3443192241000,2.72,9.11,4.903325
3443242198000,0.04,10.92,6.2789803
3443292247000,-2.26,11.5,6.2108784
3443342204000,-1.65,14.6,1.4982382
3443392253000,-0.38,13.14,5.012288
3443442241000,0.23,10.73,-1.1168685
3443492229000,2.53,11.45,-0.84446156
3443542216000,-0.34,10.88,1.7978859
3443592235000,0.42,9.28,-0.42223078
3443642223000,-0.15,8.12,1.879608
3443692241000,0.61,7.59,1.9885708
3443742198000,2.22,8.35,2.0294318
3443792277000,1.8,7.06,0.19068487
3443842235000,1.99,8.92,1.2258313
3443892253000,1.76,10.19,1.1849703
3443942210000,-0.11,9.77,3.0237172
3443992229000,1.08,8.92,3.6774938
3444042247000,1.27,12.41,5.938472
3444092265000,1.95,16.17,2.1111538
3444142284000,-2.22,10.27,3.636633
3444192241000,-2.11,7.74,2.9556155
3444242229000,-1.08,6.93,2.9556155
3444292277000,-1.04,5.22,2.4925237
3444342204000,-0.42,5.05,2.0294318
3444392284000,3.3,8.43,1.9885708
3444442241000,1.5,8.73,3.255263
3444492290000,-3.95,10.84,6.851035
3444542461000,-1.73,9.77,4.1814466
3444592265000,-0.04,8.69,3.445948
3444642223000,1.23,13.38,2.5606253
3444692241000,-1.46,10.84,0.08172209
3444742198000,2.15,13.1,0.88532263
3444792247000,1.04,11.14,-0.9942854
3444842204000,0.76,10.69,2.1792557
3444892284000,1.33,9.53,-0.10896278
3444942210000,0.42,9.08,1.7570249
3444992229000,1.18,8.58,1.4982382
3445042216000,1.18,8.54,1.7570249
3445092296000,2.72,7.78,1.3075534
3445142223000,1.99,7.89,1.0760075
3445192241000,1.27,9.11,0.6946377
3445242198000,1.18,10.15,2.152015
3445292247000,1.14,9.38,2.7240696
3445342235000,2.3,9.19,3.7864566
3445392284000,0.38,11.65,5.597963
3445442241000,3.17,17.08,3.2961242
3445492229000,-2.22,9.51,1.7570249
3445542247000,-1.33,7.89,3.7864566
3445592265000,-0.57,5.09,2.5606253
3445642253000,-1.88,3.91,3.0237172
3445692271000,1.12,6.55,2.3426998
3445742229000,2.22,7.93,2.2609777
3445792247000,0.53,11.54,5.012288
3445842204000,-0.76,10.23,5.8976107
3445892253000,-0.8,10.15,4.2495484
3445942241000,0.53,8.73,3.2961242
3445992229000,-2.26,10.95,3.7864566
3446042216000,0.95,12.57,-1.4165162
3446092265000,1.61,7.89,3.6774938
3446142223000,-0.04,15.47,2.7921712
3446192241000,-0.19,9.43,-0.6946377
3446242198000,1.27,10.8,1.2258313
3446292247000,0.84,9.77,1.7978859
3446342265000,1.14,9.04,1.7297841
3446392314000,0.27,8.28,1.879608
3446442241000,1.38,9.3,1.8387469
3446492229000,0.42,8.05,0.7218784
3446542216000,1.14,9.08,0.3405087
3446592235000,1.33,10.34,0.46309182
3446642253000,-0.19,8.89,1.1441092
3446692271000,1.04,10.88,2.2201166
3446742198000,1.33,9.19,2.7240696
3446792247000,0.61,10.12,3.0645783
3446842265000,1.73,11.26,3.718355
3446892253000,0.34,12.45,3.486809
3446942241000,-1.95,11.69,3.1463003
3446992229000,0.15,11.11,3.759216
3447042247000,-2.41,6.7,3.1463003
3447092265000,-0.89,7.67,3.636633
3447152293000,-1.27,6.97,3.336985
3447202281000,-1.08,7.78,3.405087
3447252269000,-0.42,8.16,3.3778462
3447302287000,-0.04,8.16,4.0588636
3447352275000,0.69,9.3,5.47538
3447402263000,0.76,10.65,7.1234417
3447452281000,0.31,9.96,6.5922484
3447502330000,-1.95,9.38,2.1792557
3447552287000,-0.23,11.37,2.7649305
3447602306000,0.42,10.31,0.9942854
3447652293000,-4.14,7.44,-0.23154591
3447702281000,0.72,12.11,-1.4982382
3447752269000,-1.08,9.92,0.53119355
3447802318000,0.19,10.5,-0.5720546
3447852275000,1.12,9.47,-0.3405087
3447902293000,1.33,9.96,-0.08172209
3447952251000,0.46,9.81,0.27240697
3447952251000,0.46,9.81,0.27240697
3448052196000,0.46,10.04,0.08172209
3448102244000,1.38,9.47,-0.29964766
3448152415000,1.08,11.03,-0.19068487
3448202281000,-0.46,9.53,0.3405087
3448252269000,0.65,10.42,0.42223078
3448302287000,0.69,10.69,1.4982382
3448352306000,-2.6,11.56,1.9477097
3448402263000,-0.27,11.96,-2.3018389
3448452281000,-2.26,12.18,-1.334794
3448502269000,-1.42,10.88,-0.61291564
3448552287000,-0.91,9.62,1.0760075
3448602275000,-2.22,9.58,1.56634
3448652263000,-0.72,7.74,0.46309182
3448702281000,0.46,7.82,2.5606253
3448752269000,-0.27,6.78,2.3426998
3448802287000,-1.08,7.12,2.4925237
3448852306000,-0.89,8.62,3.173541
3448902263000,-1.5,11.26,5.7886477
3448952281000,-1.42,10.46,6.851035
3449002269000,-0.84,9.23,3.336985
3449052287000,-0.5,9.58,1.1168685
3449102275000,-0.23,11.18,2.1792557
3449152263000,-2.72,8.16,0.46309182
3449202281000,-1.65,10.95,0.040861044
3449252299000,-0.8,9.72,-0.27240697
3449302287000,-0.99,10.42,0.53119355
3449352306000,0.65,9.96,0.313268
3449402263000,0.34,9.62,0.040861044
3449502269000,0.23,10.23,0.3405087
3449552318000,-0.23,9.51,0.6946377
3449602275000,0.46,10.34,0.3405087
3449652263000,-0.34,9.19,0.95342433
3449702251000,-0.34,10.08,0.08172209
3449752299000,0.19,10.92,0.6537767
3449802287000,0.72,11.03,0.7218784
3449852306000,-2.6,10.61,2.7240696
3449902232000,-2.6,11.3,0.53119355
3449952312000,-1.84,10.8,0.23154591
3450002269000,0.11,10.0,0.88532263
3450052287000,-0.11,9.7,1.3756552
3450102275000,-1.18,7.97,2.6014864
3450152293000,-1.53,6.7,1.4982382
3450202312000,-0.57,6.82,1.7297841
3450258311000,0.57,6.47,2.3426998
3450312236000,1.73,9.11,3.568531
3450362224000,-0.61,8.24,3.405087
3450412303000,-0.72,7.97,2.1792557
3450462230000,-3.26,9.0,2.8738933
3450512279000,0.42,9.23,3.445948
3450562205000,-0.5,10.57,2.8330324
3450662242000,-0.53,8.85,3.5276701
3450712260000,1.5,16.89,3.0645783
3450762248000,-1.38,7.55,-0.7218784
3450862224000,0.5,9.3,1.879608
3450912303000,1.27,9.15,0.7627395
3450962230000,1.61,7.86,2.8738933
3451012279000,1.5,8.05,1.3756552
3451062205000,4.48,8.85,0.5720546
3451112315000,1.46,9.19,0.46309182
3451162242000,0.93,9.66,1.8387469
3451212291000,2.22,8.77,1.879608
3451262218000,1.54,9.28,3.1463003
3451312297000,2.34,10.27,3.990762
3451362224000,2.72,13.63,5.134871
3451412303000,-0.34,12.18,3.5957718
3451462260000,0.72,11.41,3.568531
3451512279000,-0.53,7.63,2.3426998
3451562205000,-0.57,7.4,3.6774938
3451612315000,-0.34,6.09,3.0645783
3451662212000,-1.04,6.55,3.3778462
3451712260000,0.08,6.55,3.568531
3451762218000,2.79,8.54,3.405087
3451812297000,2.26,7.16,2.6832085
3451862254000,-0.46,9.43,2.7921712
3451912303000,-3.91,10.08,6.851035
3451962230000,-0.65,9.3,2.7240696
3452012279000,-1.65,10.38,2.4108016
3452062205000,-0.3,12.95,-0.84446156
3452112315000,-0.65,12.91,5.597963
3452162242000,3.15,10.04,0.88532263
3452212291000,1.31,11.54,-0.29964766
3452262218000,2.07,9.34,2.070293
3452312297000,1.38,10.0,0.61291564
3452362254000,0.8,9.04,1.9885708
3452412273000,-1.04,8.58,2.2201166
3452462199000,2.11,8.58,1.1168685
3452512279000,0.69,7.21,1.4982382
3452562205000,2.53,9.08,0.92618364
3452612315000,1.88,9.11,1.2258313
3452662212000,1.42,9.72,0.8036005
3452712291000,1.73,10.34,2.1111538
3452762248000,0.23,8.43,3.8681788
3452812266000,1.27,9.92,4.6036777
3452862224000,0.69,15.13,5.175732
3452912273000,3.45,15.43,1.0760075
3452962199000,-3.11,10.92,4.440233
3453012309000,-1.31,4.52,1.7297841
3453062205000,-1.84,6.66,3.9090397
3453112315000,-0.11,7.12,2.6832085
3453162303000,-1.65,7.06,3.255263
3453212321000,-1.27,6.59,2.5606253
3453272227000,3.41,9.0,3.336985
3453322215000,1.99,7.82,2.9147544
3453372295000,-1.99,9.72,4.3312707
3453422282000,-2.75,9.7,5.134871
3453472270000,-1.76,9.66,2.982856
3453522472000,-0.19,10.57,2.8330324
3453572246000,0.31,12.49,-0.9942854
3453622325000,2.79,10.12,5.706926
3453672221000,-0.53,12.22,1.879608
3453722270000,2.45,9.28,-1.0760075
3453772258000,1.84,10.84,1.879608
3453822276000,0.34,9.28,1.7297841
3453872233000,1.08,9.85,1.4573772
3453922282000,0.84,8.85,1.0351465
3453972270000,0.99,8.62,2.3699405
3453972270000,0.99,8.62,2.3699405
3453972270000,0.99,8.62,2.3699405
3454122264000,1.76,10.65,1.5390993
3454172252000,1.18,9.08,3.1054392
3454222240000,1.8,7.93,4.2086873
3454272258000,0.27,14.56,6.510526
3454322276000,-1.84,14.75,3.6774938
3454372295000,2.6,9.43,4.0180025
3454422282000,-3.91,7.59,2.5333846
3454472301000,-2.53,5.79,3.1463003
3454522227000,-0.34,5.09,2.5333846
3454572215000,-0.69,6.78,3.1054392
3454622295000,1.08,7.25,2.2609777
3454672221000,2.22,7.74,2.2201166
3454722301000,-2.3,9.85,5.6660647
3454772227000,-0.65,8.66,4.2086873
3454822307000,-3.06,9.38,2.4516625
3454872233000,-0.42,10.95,4.903325
3454922313000,2.11,14.48,-2.5333846
3454972209000,0.95,12.76,5.284695
3455022227000,0.27,10.42,-0.95342433
3455072215000,2.76,10.88,2.4108016
3455122264000,0.57,9.96,0.50395286
3455172221000,1.65,9.23,1.2666923
3455222270000,0.38,8.05,1.7297841
3455272197000,1.23,8.77,1.7570249
3455322337000,1.84,7.27,1.4982382
3455372233000,2.83,8.66,1.1168685
3455422313000,2.11,9.89,1.6889231
3455472301000,1.14,9.47,1.9477097
3455522227000,1.88,9.38,3.445948
3455572246000,2.15,10.27,4.903325
3455622264000,0.69,11.22,4.2904096
3455672252000,1.95,15.98,4.5219555
3455722270000,-0.89,7.82,1.9885708
3455772197000,-1.38,7.55,3.8681788
3455822276000,-1.08,6.51,3.990762
3455872233000,-0.69,4.1,2.6423476
3455922313000,2.64,7.89,3.214402
3455972209000,2.11,9.23,3.486809
3456022258000,-0.04,8.43,3.6774938
3456072215000,-3.06,9.62,6.469665
3456122264000,-1.8,9.81,3.336985
3456172221000,0.42,7.86,2.6014864
3456222301000,1.57,9.96,0.313268
3456272197000,-4.94,15.64,4.8216033
3456322276000,2.3,13.76,1.1441092
3456372233000,2.49,10.27,-0.3405087
3456422282000,0.57,10.88,0.5720546
3456472209000,1.8,8.92,1.3756552
3456522349000,-0.8,9.08,2.1792557
3456572215000,1.76,8.24,1.7570249
3456622356000,2.07,8.05,2.7649305
3456672252000,2.64,8.35,0.7218784
3456722301000,1.14,8.28,0.8036005
3456772227000,1.08,8.92,0.50395286
3456822307000,1.54,10.61,0.8036005
3456872233000,1.18,8.05,2.5333846
3456922282000,1.12,8.92,4.2495484
3456972240000,1.42,10.57,4.8216033
3457022227000,0.11,16.04,3.9499009
3457072246000,2.18,15.17,5.434519
3457122295000,-1.73,7.06,1.879608
3457172282000,-1.84,8.66,3.568531
3457222270000,-0.08,5.28,1.4573772
3457272227000,-0.91,5.48,1.7297841
3457322307000,-0.69,6.7,2.7649305
3457372264000,1.5,8.35,2.4925237
3457422313000,2.41,8.05,2.3018389
3457472240000,-1.92,9.28,7.273266
3457522258000,-1.33,9.47,5.434519
3457572246000,-0.46,8.2,2.6423476
3457622264000,2.22,13.1,0.38136974
3457672221000,-1.8,15.09,8.539958
3457722270000,-0.8,10.84,-2.2201166
3457772197000,2.64,12.91,-1.3075534
3457822276000,-0.69,10.04,0.8036005
3457872233000,1.38,10.19,0.95342433
3457922282000,-0.23,7.82,0.92618364
3457972240000,2.15,6.24,-0.46309182
3458022258000,2.26,5.9,0.50395286
3458072246000,3.83,9.34,0.95342433
3458122264000,0.99,10.5,2.2201166
3458172282000,-2.11,8.85,2.6423476
3458222270000,1.27,11.41,2.9147544
3458272258000,-0.72,19.11,2.6014864
3458322276000,-5.2,16.17,0.88532263
3458372233000,0.46,11.73,-1.1441092
3458422282000,-0.89,11.37,2.0294318
3458472240000,-2.22,3.99,-0.10896278
3458522288000,0.69,6.05,1.0760075
3458572215000,0.27,6.02,2.152015
3458622295000,0.95,7.93,3.336985
3458672282000,2.3,12.79,8.390134
3458722270000,0.84,11.8,8.771504
3458772197000,-4.14,10.99,1.2258313
3458822307000,-4.59,10.42,3.214402
3458872233000,-2.07,10.0,-0.9942854
3458922282000,-3.41,6.24,-3.255263
3458972240000,-0.3,12.53,-0.9125633
3459022258000,-0.95,9.81,0.50395286
3459072215000,0.84,10.42,-0.8036005
3459072215000,0.84,10.42,-0.8036005
3459182201000,-0.19,9.92,0.27240697
3459232280000,0.11,9.66,0.19068487
3459332255000,1.14,9.96,-0.53119355
3459382274000,-0.04,9.66,0.19068487
3459432231000,0.19,10.69,-0.50395286
3459482310000,0.34,9.85,-0.38136974
3459582286000,-0.38,11.11,0.040861044
3459632213000,-0.5,11.03,1.607201
3459682262000,-1.73,12.34,-0.10896278
3459732219000,-0.95,12.49,-2.5333846
3459782268000,-2.11,12.64,-1.1849703
3459832225000,0.5,10.08,-0.6537767
3459882274000,-0.23,9.66,1.4165162
3459932201000,-1.95,8.58,0.7627395
3459982280000,0.93,7.86,0.7218784
3459982280000,0.93,7.86,0.7218784
3460082286000,-0.89,6.28,1.3756552
3460132274000,0.04,6.55,1.5390993
3460182201000,0.34,8.39,3.1463003
3460232310000,1.42,8.12,5.7886477
3460282237000,-0.61,9.19,3.1054392
3460332286000,-1.5,9.08,3.405087
3460382213000,0.08,7.89,2.3699405
3460432262000,-1.12,8.5,1.2666923
3460482219000,-1.14,10.19,2.5606253
3460532268000,-4.44,17.86,4.0180025
3460582286000,2.91,10.57,4.671779
3460632304000,3.11,8.5,-5.053149
3460682201000,0.95,12.6,0.3405087
3460732310000,-1.38,10.19,4.6036777
3460782207000,1.65,9.92,-0.88532263
3460832286000,1.61,8.73,3.214402
3460882213000,1.08,8.81,1.8387469
3460932292000,0.89,8.24,1.7297841
3460982219000,0.5,8.73,2.1792557
3461032268000,1.04,7.55,2.070293
3461082255000,2.37,8.24,1.4573772
3461132274000,1.69,9.43,0.3405087
3461182201000,1.27,10.95,2.070293
3461232280000,0.34,8.5,2.8330324
3461282207000,0.27,6.17,4.3312707
3461332286000,1.8,17.58,7.164303
3461382243000,3.57,13.4,5.2165933
3461432262000,1.42,9.0,3.6774938
3461482249000,-3.87,7.25,2.982856
3461532268000,0.57,6.7,2.8330324
3461582255000,-1.53,6.36,3.214402
