timestamp,accX,accY,accZ
58651932324000,0.84,5.05,8.54
58651982311000,0.93,5.13,8.47
58652032330000,0.69,4.94,8.43
58652082348000,0.65,5.01,8.62
58652132305000,0.93,5.01,8.54
58652182324000,0.72,5.05,8.5
58652232342000,0.69,5.09,8.66
58652282330000,0.57,5.24,8.73
58652332348000,0.61,5.18,8.62
58652382336000,1.04,5.37,8.39
58652432293000,1.23,5.24,8.39
58652482342000,1.08,5.13,8.35
58652532330000,1.23,5.24,8.28
58652582317000,0.95,5.24,8.62
58652632305000,0.76,5.22,8.62
58652682324000,1.12,5.33,8.43
58652732311000,1.31,5.33,8.28
58652782299000,1.46,5.33,8.24
58652832348000,1.33,5.28,8.31
58652882336000,1.14,5.18,8.5
58652932324000,1.08,5.09,8.54
58652982342000,0.84,5.05,8.58
58653032299000,1.04,5.05,8.5
58653082348000,0.95,5.18,8.66
58653150341000,0.65,5.18,8.54
58653202282000,0.76,5.01,8.69
58653252300000,0.8,4.94,8.66
58653252300000,0.8,4.94,8.66
58653312328000,0.84,4.9,8.66
58653362316000,0.5,4.9,8.73
58653412304000,0.15,4.9,8.81
58653462322000,0.08,4.82,8.92
58653512371000,0.27,4.79,8.77
58653562328000,0.46,4.82,8.85
58653612316000,0.46,4.9,8.77
58653662304000,0.42,4.9,8.69
58653712292000,0.5,4.9,8.73
58653762341000,0.61,4.75,8.66
58653812328000,0.38,4.9,8.77
58653862347000,0.31,4.9,8.62
58653912304000,0.53,4.9,8.69
58653962322000,0.5,4.94,8.73
58654012249000,0.5,4.94,8.62
58654062328000,0.65,4.99,8.69
58654112347000,0.5,4.86,8.66
58654162335000,0.31,4.9,8.69
58654212292000,0.57,4.86,8.69
58654262341000,0.46,4.82,8.77
58654312298000,0.42,4.86,8.77
58654362347000,0.5,4.79,8.73
58654412335000,0.42,4.75,8.77
58654462353000,0.38,4.71,8.81
58654512341000,0.34,4.79,8.85
58654562359000,0.31,4.82,8.81
58654612316000,0.5,4.82,8.77
58654662335000,0.5,4.75,8.81
58654712322000,0.34,4.67,8.85
58654762341000,0.38,4.63,8.89
58654812328000,0.19,4.75,8.77
58654862316000,0.38,4.75,8.73
58654912335000,0.46,4.79,8.85
58654962322000,0.38,4.79,8.73
58655012280000,0.57,4.82,8.77
58655062298000,0.61,4.82,8.69
58655112347000,0.42,4.75,8.77
58655162335000,0.27,4.71,8.85
58655212322000,0.31,4.71,8.89
58655262310000,0.38,4.79,8.77
58655312328000,0.46,4.82,8.81
58655362316000,0.5,4.82,8.73
58655412335000,0.57,4.75,8.77
58655462322000,0.42,4.82,8.81
58655512310000,0.46,4.82,8.81
58655562328000,0.61,4.86,8.66
58655612316000,0.69,4.86,8.62
58655662335000,0.61,4.67,8.69
58655712292000,0.57,4.75,8.69
58655762341000,0.5,4.79,8.77
58655812298000,0.53,4.86,8.77
58655862347000,0.5,4.79,8.77
58655912304000,0.53,4.75,8.77
58655962322000,0.42,4.67,8.81
58656012280000,0.42,4.63,8.81
58656122112000,0.53,4.9,8.81
58656122112000,0.53,4.9,8.81
58656172283000,0.57,4.86,8.73
58656222393000,0.53,4.86,8.81
58656272381000,0.42,4.82,8.73
58656322338000,0.53,4.75,8.77
58656382305000,0.5,4.56,8.81
58656432293000,0.69,4.67,8.81
58656482342000,0.61,4.82,8.77
58656532330000,0.65,5.01,8.62
58656582348000,0.72,5.13,8.54
58656632305000,0.95,5.13,8.5
58656682324000,0.93,5.05,8.58
58656732311000,0.65,5.05,8.66
58656782330000,0.42,4.99,8.77
58656832378000,0.5,5.05,8.73
58656882336000,0.57,5.01,8.62
58656932324000,0.61,5.05,8.66
58656982342000,0.65,5.01,8.58
58657032330000,0.61,4.94,8.69
58657082317000,0.61,4.99,8.73
58657132336000,0.53,4.94,8.66
58657182324000,0.57,4.99,8.62
58657232311000,0.57,4.99,8.69
58657282299000,0.5,4.94,8.69
58657332348000,0.46,4.9,8.77
58657382305000,0.46,4.86,8.73
58657432293000,0.38,4.86,8.81
58657432293000,0.38,4.86,8.81
58657532330000,0.42,4.86,8.77
58657582348000,0.46,4.82,8.73
58657632305000,0.53,4.9,8.73
58657682324000,0.42,4.86,8.81
58657732311000,0.46,4.86,8.69
58657782330000,0.42,4.9,8.77
58657832317000,0.38,4.86,8.77
58657882336000,0.42,4.9,8.73
58657932293000,0.38,4.9,8.85
58657982342000,0.5,4.86,8.69
58658032299000,0.65,4.9,8.69
58658082348000,0.46,4.86,8.66
58658132336000,0.23,4.82,8.81
58658182263000,0.23,4.82,8.85
58658232281000,0.23,4.82,8.77
58658282330000,0.38,4.86,8.73
58658332348000,0.46,4.79,8.77
58658382305000,0.57,4.79,8.73
58658432293000,0.57,4.82,8.73
58658482311000,0.5,4.82,8.77
58658532299000,0.5,4.9,8.77
58658582348000,0.72,5.05,8.66
58658632336000,0.8,5.18,8.58
58658682324000,0.93,5.24,8.39
58658732342000,0.99,5.41,8.43
58658782330000,1.04,5.43,8.35
58658832348000,1.23,5.6,8.24
58658882336000,1.38,5.67,8.2
58658932324000,1.5,5.63,8.12
58658982342000,1.54,5.83,8.05
58659032330000,1.57,5.9,7.93
58659082348000,1.88,5.9,7.74
58659132305000,1.88,5.94,7.89
58659182354000,1.65,5.79,7.86
58659232311000,1.65,5.86,7.97
58659282299000,1.65,5.86,8.01
58659332348000,1.54,5.9,7.97
58659382336000,1.5,5.83,8.05
58659432293000,1.57,5.86,8.05
58659482311000,1.46,5.79,8.05
58659532299000,1.5,5.79,8.08
58659582317000,1.54,5.83,8.08
58659632305000,1.54,5.86,8.01
58659682293000,1.65,5.86,7.93
58659732342000,1.61,5.83,8.01
58659782299000,1.61,5.79,8.08
58659832348000,1.54,5.83,7.97
58659832348000,1.54,5.83,7.97
58659932293000,1.65,5.83,8.08
58659982342000,1.46,5.75,8.12
58660032299000,1.46,5.79,8.08
58660082348000,1.57,5.83,8.05
58660132336000,1.5,5.75,8.12
58660182324000,1.54,5.71,8.05
58660232311000,1.54,5.83,8.05
58660284130000,1.61,5.75,8.01
58660342297000,1.57,5.79,8.12
58660392346000,1.42,5.75,8.16
58660442303000,1.42,5.79,8.16
58660492291000,1.54,5.75,8.08
58660542309000,1.46,5.75,8.08
58660592297000,1.5,5.75,8.01
58660642315000,1.57,5.75,8.08
58660692303000,1.57,5.71,8.05
58660742321000,1.46,5.75,8.12
58660792309000,1.46,5.71,8.08
58660842327000,1.27,5.71,8.16
58660892315000,1.38,5.71,8.2
58660942333000,1.27,5.6,8.24
58660992260000,1.18,5.6,8.2
58661042309000,1.27,5.63,8.2
58661092327000,1.14,5.56,8.28
58661150341000,1.18,5.52,8.24
58661202282000,1.12,5.48,8.31
58661252300000,0.93,5.37,8.39
58661302319000,0.76,5.33,8.47
58661352276000,0.76,5.18,8.5
58661402294000,0.65,5.13,8.66
58661452313000,0.65,5.09,8.66
58661502300000,0.57,5.13,8.73
58661552319000,0.5,4.9,8.47
58661602306000,0.46,4.9,8.66
58661652294000,0.34,4.71,8.81
58661702343000,0.53,4.52,8.85
58661752270000,0.42,4.52,9.04
58661802319000,0.19,4.4,8.81
58661852306000,0.15,4.1,8.96
58661902325000,0.11,4.06,9.3
58661952313000,0.31,4.4,9.11
58662002544000,0.57,4.6,9.28
58662052319000,0.95,4.37,9.08
58662102306000,0.72,3.95,9.15
58662152294000,0.8,3.41,8.92
58662202313000,0.76,2.83,9.15
58662252300000,0.69,2.64,9.66
58662302319000,0.65,2.53,9.28
58662352306000,0.38,2.76,9.58
58662402264000,0.19,2.98,9.58
58662452313000,0.15,3.11,9.53
58662502270000,0.15,3.21,9.53
58662552319000,-0.08,3.11,9.51
58662602306000,-0.23,3.34,9.53
58662652294000,0.11,3.64,9.38
58662702343000,-0.04,3.64,9.28
58662752300000,-0.11,3.41,9.38
58662802349000,-0.38,3.45,9.47
58662852337000,-0.23,3.76,9.51
58662902325000,-0.11,4.14,9.19
58662952313000,-0.34,4.1,9.34
58663002361000,-0.38,3.95,9.38
58663052319000,-0.34,3.76,9.43
58663102276000,-0.15,3.76,9.19
58663152294000,-0.15,3.87,9.34
58663202282000,-0.34,3.95,9.34
58663252270000,-0.38,3.87,9.34
58663302349000,-0.42,3.64,9.43
58663352276000,-0.27,3.64,9.38
58663402294000,-0.04,3.91,9.23
58663452282000,-0.23,3.91,9.28
58663502300000,-0.11,3.95,9.19
58663552380000,-0.46,3.72,9.3
58663602337000,-0.3,3.76,9.34
58663652294000,-0.19,3.83,9.34
58663702313000,-0.27,3.87,9.43
58663752331000,-0.38,3.72,9.34
58663802319000,-0.19,3.76,9.3
58663852306000,-0.15,3.91,9.3
58663902294000,-0.23,3.91,9.43
58663952313000,-0.38,3.83,9.38
58664002880000,-0.11,3.79,9.3
58664052319000,-0.11,3.79,9.3
58664102306000,-0.15,3.87,9.28
58664152203000,-0.23,3.91,9.38
58664202313000,-0.5,3.72,9.38
58664252270000,-0.27,3.64,9.38
58664302319000,-0.15,3.76,9.34
58664352306000,-0.23,3.87,9.3
58664402264000,-0.19,3.87,9.3
58664452282000,-0.27,3.87,9.28
58664502300000,-0.11,3.87,9.23
58664552288000,-0.08,3.87,9.28
58664652294000,-0.3,3.49,9.47
58664702282000,-0.46,3.41,9.47
58664752270000,-0.23,3.64,9.47
58664802319000,-0.5,3.83,9.58
58664902294000,-0.08,3.79,9.28
58664952313000,-0.04,3.83,9.23
58665002300000,0.11,3.99,9.23
58665052410000,0.08,3.91,9.23
58665102306000,-0.08,3.79,9.3
58665152294000,-0.15,3.72,9.34
58665252270000,-0.04,3.87,9.28
58665302288000,0.04,3.83,9.28
58665352306000,-0.08,3.76,9.3
58665402294000,-0.11,3.57,9.34
58665452313000,0.04,3.72,9.28
58665502300000,0.15,3.87,9.15
58665552319000,-0.08,3.79,9.43
58665602306000,-0.3,3.57,9.38
58665652294000,-0.11,3.72,9.34
58665702313000,0.11,3.87,9.28
58665752300000,-0.04,3.76,9.3
58665802319000,0.23,3.87,9.28
58665852306000,-0.15,3.57,9.3
58665952282000,-0.04,3.79,9.28
58666002453000,-0.11,3.79,9.34
58666052319000,0.19,3.83,9.28
58666102306000,-0.27,3.53,9.34
58666152294000,-0.08,3.6,9.38
58666202313000,0.27,3.87,9.19
58666252300000,-0.27,3.76,9.3
58666302319000,0.38,3.99,9.28
58666352306000,-0.3,3.6,9.3
58666402294000,-0.08,3.68,9.34
58666452313000,0.31,3.91,9.11
58666502300000,-0.23,3.79,9.3
58666552319000,0.46,3.95,9.23
58666602306000,-0.34,3.6,9.34
58666652294000,-0.04,3.57,9.38
58666702313000,0.15,3.76,9.3
58666752270000,-0.3,3.76,9.51
58666802319000,0.46,4.14,9.3
58666852306000,0.08,3.64,9.04
58666902294000,0.11,3.41,9.3
58666952282000,0.23,3.45,9.3
58667052319000,0.27,3.95,9.3
58667102306000,-0.27,3.53,9.43
58667202313000,-0.15,3.72,9.34
58667252270000,-0.15,3.83,9.53
58667302319000,0.19,4.14,9.08
58667352306000,-0.15,3.76,9.3
58667402355000,-0.11,3.79,9.38
58667452313000,-0.04,3.91,9.15
58667502300000,-0.08,3.95,9.3
58667552288000,-0.11,3.91,9.3
58667602276000,-0.11,3.87,9.28
58667652264000,-0.08,3.95,9.28
58667702282000,-0.08,3.95,9.23
58667752300000,-0.15,3.83,9.38
58667802319000,-0.23,3.87,9.34
58667852276000,-0.15,3.87,9.15
58667902325000,-0.04,4.02,9.19
58667952282000,-0.04,3.99,9.15
58668002850000,-0.11,3.95,9.23
58668052288000,-0.11,3.91,9.23
58668102276000,-0.15,3.91,9.34
58668152264000,-0.27,3.91,9.28
58668202282000,-0.23,3.91,9.23
58668252300000,-0.04,4.02,9.19
58668302319000,0.04,4.18,9.28
58668352306000,-0.3,4.25,9.58
58668402264000,-0.3,4.06,9.15
58668452313000,-0.23,3.91,9.23
58668502331000,-0.15,3.91,9.28
58668552319000,-0.23,3.79,9.15
58668602306000,-0.11,4.02,9.15
58668652294000,-0.04,4.37,9.23
58668702282000,-0.04,3.83,9.23
58668752331000,-0.23,3.53,9.28
58668802319000,-0.42,3.49,9.3
58668852306000,-0.46,3.53,9.11
58668902264000,-0.46,4.02,9.23
58668952313000,-0.69,4.25,9.7
58669002300000,-0.65,3.6,9.34
58669052319000,-0.84,4.18,9.38
58669110485000,-0.61,4.21,9.38
58669110485000,-0.61,4.21,9.38
58669162304000,-0.38,4.14,9.19
58669212322000,-0.72,4.1,9.38
58669262341000,-0.57,3.99,9.28
58669312328000,-0.3,4.21,9.43
58669362347000,-0.61,3.95,9.0
58669412304000,-0.53,3.95,8.96
58669462322000,-0.08,4.6,8.77
58669512341000,-0.46,4.56,8.92
58669562359000,0.31,4.63,9.19
58669612347000,0.15,4.33,8.66
58669662335000,-1.04,4.29,9.19
58669712322000,-0.61,4.14,8.69
58669762371000,-0.11,4.52,9.3
58669812328000,-0.42,5.05,9.28
58669862347000,-0.04,4.79,8.77
58669912335000,-0.38,4.44,8.81
58669962353000,-0.72,4.6,8.85
58670012310000,-0.23,4.71,8.69
58670062328000,-0.34,4.79,8.77
58670112347000,-0.27,5.13,9.04
58670162335000,-0.65,4.44,8.89
58670212322000,-0.8,4.52,9.3
58670262310000,-0.15,4.99,8.73
58670312328000,-0.38,4.79,8.73
58670362316000,-0.38,4.79,8.89
58670412335000,-0.53,4.82,8.81
58670462353000,-0.84,4.75,9.0
58670512341000,-0.5,4.6,9.08
58670562298000,-0.38,4.6,8.96
58670612316000,-0.34,4.67,8.96
58670662304000,-0.23,4.75,8.96
58670712414000,-0.27,4.79,8.96
58670762615000,-0.3,4.99,8.66
58670812328000,-0.23,4.86,8.69
58670862347000,-0.27,4.82,8.85
58670912304000,-0.27,4.86,8.85
58670962322000,-0.3,4.86,8.81
58671012310000,-0.34,4.71,8.92
58671062328000,-0.3,4.6,9.0
58671112316000,-0.3,4.75,8.96
58671162335000,-0.27,4.82,8.89
58671212322000,-0.3,4.82,8.81
58671262310000,-0.34,4.75,8.89
58671312328000,-0.3,4.67,8.92
58671362316000,-0.34,4.67,8.92
58671412304000,-0.27,4.71,8.92
58671462292000,-0.3,4.75,8.92
58671512371000,-0.34,4.75,8.85
58671562328000,-0.3,4.71,8.96
58671672131000,-0.3,4.75,9.0
58671672131000,-0.3,4.75,9.0
58671722271000,-0.3,4.79,8.85
58671772381000,-0.3,4.75,8.85
58671822308000,-0.27,4.79,8.89
58671872295000,-0.27,4.79,8.85
58671932293000,-0.38,4.75,9.0
58671982342000,-0.53,4.6,8.92
58672032330000,-0.42,4.71,8.92
58672082317000,-0.38,4.75,8.92
58672132336000,-0.34,4.75,8.89
58672182293000,-0.38,4.75,8.96
58672232342000,-0.34,4.67,8.92
58672282299000,-0.38,4.67,8.89
58672332348000,-0.3,4.79,8.81
58672382305000,-0.3,4.75,8.81
58672432293000,-0.3,4.79,8.89
58672482311000,-0.38,4.75,8.89
58672532360000,-0.34,4.79,8.96
58672582348000,-0.38,4.71,8.92
58672632305000,-0.34,4.71,8.92
58672682263000,-0.38,4.71,8.92
58672732311000,-0.34,4.82,8.92
58672782330000,-0.42,4.71,8.96
58672832317000,-0.46,4.67,8.96
58672882336000,-0.27,4.75,8.85
58672932293000,-0.27,4.86,8.77
58672982342000,-0.42,4.82,8.92
58673032330000,-0.38,4.71,8.85
58673082317000,-0.34,4.71,8.92
58673132305000,-0.46,4.71,8.92
58673182324000,-0.34,4.82,8.89
58673232342000,-0.42,4.79,8.92
58673282330000,-0.57,4.6,8.96
58673332348000,-0.69,4.37,9.08
58673382336000,-0.57,4.48,9.11
58673432324000,-0.38,4.52,9.0
58673482342000,-0.42,4.48,8.96
58673532330000,-0.42,4.44,9.08
58673582348000,-0.61,4.37,8.96
58673632336000,-0.72,4.52,9.08
58673682324000,-1.04,4.33,9.0
58673732372000,-0.42,4.75,9.04
58673782360000,-0.53,4.79,8.89
58673832378000,-0.65,4.94,9.04
58673882336000,-0.53,4.9,9.38
58673932324000,-0.65,4.56,9.28
58673982342000,-0.42,4.02,8.89
58674032330000,-0.23,4.25,8.92
58674082348000,-0.04,4.63,9.19
58674132366000,0.38,4.56,8.96
58674182324000,-0.04,4.06,9.15
58674232372000,-0.08,3.79,9.08
58674282330000,0.46,3.91,8.92
58674332348000,0.19,3.95,8.85
58674382366000,-0.42,3.79,9.53
58674432324000,-0.19,4.21,9.19
58674482403000,0.23,4.29,8.77
58674532360000,0.99,4.71,8.2
58674582348000,1.88,5.67,8.08
58674632336000,2.15,5.52,8.54
58674682354000,1.31,4.71,8.31
58674732372000,0.53,4.79,8.43
58674782299000,0.15,4.79,9.04
58674832348000,-0.99,4.37,9.72
58674882336000,-1.95,3.99,9.81
58674932324000,-1.84,3.76,9.47
58674982342000,-1.42,4.02,9.58
58675032360000,-0.61,4.06,9.34
58675082348000,-0.11,4.33,9.08
58675132336000,0.08,4.37,8.89
58675182324000,0.08,4.52,8.96
58675232342000,0.11,4.67,8.77
58675332378000,0.15,4.86,8.73
58675382336000,0.34,5.09,8.5
58675432293000,0.5,5.13,8.5
58675482342000,0.69,5.37,8.43
58675532299000,0.95,5.37,8.28
58675582348000,1.04,5.48,8.28
58675632366000,1.14,5.56,8.24
58675682324000,1.08,5.6,8.2
58675732372000,0.89,5.56,8.28
58675782299000,0.89,5.48,8.43
58675832348000,0.95,5.43,8.31
58675882305000,0.95,5.48,8.28
58675932324000,1.14,5.63,8.24
58675982342000,1.12,5.56,8.2
58676032330000,0.95,5.52,8.31
58676082348000,0.93,5.48,8.35
58676132305000,0.89,5.48,8.35
58676182293000,0.93,5.43,8.35
58676232342000,0.95,5.48,8.31
58676232342000,0.95,5.48,8.31
58676232342000,0.95,5.48,8.31
58676382305000,0.89,5.43,8.43
58676432324000,0.84,5.48,8.28
58676482311000,1.04,5.56,8.28
58676532299000,1.08,5.56,8.28
58676532299000,1.08,5.56,8.28
58676632305000,1.04,5.52,8.28
58676700329000,1.04,5.48,8.39
58676752270000,0.93,5.41,8.35
58676802288000,0.99,5.52,8.35
58676852306000,0.99,5.56,8.28
58676902294000,1.04,5.48,8.28
58676952282000,0.95,5.43,8.28
58676952282000,0.95,5.43,8.28
58677052288000,1.04,5.52,8.28
58677102306000,1.14,5.6,8.16
58677152264000,1.18,5.6,8.16
58677202313000,1.14,5.48,8.2
58677252270000,1.08,5.48,8.24
58677302319000,0.95,5.41,8.31
58677352276000,0.95,5.56,8.35
58677402264000,0.99,5.56,8.24
58677452282000,1.04,5.56,8.24
58677502300000,1.14,5.56,8.2
58677552319000,1.14,5.52,8.28
58677602276000,1.14,5.52,8.24
58677652264000,1.04,5.52,8.28
58677702282000,0.93,5.52,8.31
58677752270000,0.89,5.48,8.31
58677752270000,0.89,5.48,8.31
58677852306000,0.93,5.41,8.35
58677902294000,0.89,5.37,8.39
58677952282000,0.76,5.37,8.47
58678002544000,0.72,5.37,8.35
58678052319000,0.69,5.33,8.47
58678102306000,0.84,5.37,8.39
58678152264000,0.84,5.33,8.35
58678202282000,0.8,5.33,8.35
58678252270000,0.8,5.33,8.39
58678302319000,0.72,5.28,8.43
58678352276000,0.76,5.28,8.39
58678402294000,0.8,5.37,8.43
58678452313000,0.76,5.33,8.43
58678452313000,0.76,5.33,8.43
58678552288000,0.72,5.33,8.47
58678602306000,0.57,5.22,8.5
58678652294000,0.69,5.28,8.43
58678702313000,0.76,5.24,8.39
58678752300000,0.72,5.22,8.5
58678802288000,0.61,5.22,8.54
58678852306000,0.53,5.22,8.47
58678902294000,0.76,5.13,8.58
58678952313000,0.61,5.09,8.43
58679002300000,0.42,5.05,8.62
58679052319000,0.42,5.01,8.66
58679102306000,0.46,5.05,8.62
58679152294000,0.53,5.01,8.62
58679202282000,0.5,5.01,8.62
58679252300000,0.42,5.01,8.62
58679302319000,0.53,5.05,8.69
58679352306000,0.61,5.09,8.62
58679402264000,0.46,5.09,8.62
58679452282000,0.57,5.09,8.62
58679502270000,0.65,5.09,8.58
58679552319000,0.57,5.09,8.58
58679552319000,0.57,5.09,8.58
58679652203000,0.69,5.05,8.58
58679702313000,0.8,5.09,8.58
58679752270000,0.84,5.01,8.58
58679802319000,0.95,5.05,8.62
58679852306000,0.95,4.94,8.62
58679902264000,1.12,4.82,8.62
58679952313000,1.08,4.75,8.69
58680002514000,1.04,4.75,8.69
58680052319000,1.18,4.79,8.69
58680102367000,1.23,4.75,8.62
58680152294000,1.33,4.71,8.58
58680202282000,1.33,4.56,8.5
58680252270000,1.33,4.4,8.54
58680252270000,1.33,4.4,8.54
58680312267000,1.04,3.95,8.66
58680363354000,0.57,3.79,9.15
58680422375000,0.23,4.06,9.38
58680482281000,0.23,4.48,9.15
58680532299000,0.23,4.67,8.96
58680582348000,0.42,4.82,8.89
58680632336000,0.53,4.99,8.69
58680682293000,0.53,4.99,8.58
58680732311000,0.46,4.94,8.58
58680782330000,0.38,4.82,8.66
58680832348000,0.34,4.79,8.69
58680882305000,0.27,4.82,8.69
58680932324000,0.19,4.86,8.81
58680982342000,0.27,4.94,8.73
58681032330000,0.31,4.82,8.66
58681082287000,0.19,4.82,8.66
58681132275000,0.19,4.9,8.66
58681182293000,0.27,4.9,8.62
58681232342000,0.19,4.86,8.69
58681282238000,0.23,4.79,8.77
58681332348000,0.19,4.86,8.73
58681382336000,0.23,4.82,8.69
58681432293000,0.23,4.82,8.73
58681482342000,0.19,4.75,8.69
58681532330000,0.27,4.82,8.73
58681582317000,0.27,4.9,8.69
58681632336000,0.19,4.82,8.73
58681682324000,0.15,4.79,8.77
58681732311000,0.19,4.75,8.77
58681782330000,0.15,4.82,8.69
58681832256000,0.23,4.86,8.73
58681882275000,0.19,4.86,8.73
58681932293000,0.19,4.82,8.73
58681982342000,0.23,4.82,8.77
58682032299000,0.19,4.82,8.69
58682082348000,0.15,4.86,8.62
58682132305000,0.23,4.86,8.69
58682182354000,0.15,4.82,8.62
58682232342000,0.23,4.86,8.73
58682282269000,0.23,4.86,8.69
58682332317000,0.19,4.86,8.73
58682382305000,0.15,4.82,8.73
58682432293000,0.11,4.82,8.66
58682482342000,0.23,4.86,8.77
58682532299000,0.19,4.94,8.69
58682582317000,0.15,4.94,8.69
58682632336000,0.11,4.9,8.77
58682682293000,0.08,4.9,8.73
58682732311000,0.11,4.9,8.58
58682782330000,0.15,4.99,8.66
58682832317000,0.15,5.01,8.62
58682832317000,0.15,5.01,8.62
58682932324000,0.15,4.99,8.73
58683032299000,0.04,4.79,8.73
58683082317000,-0.04,4.9,8.73
58683132305000,0.08,4.9,8.69
58683182324000,0.19,4.99,8.66
58683232311000,0.15,4.99,8.58
58683282330000,0.11,4.94,8.62
58683332348000,0.19,4.99,8.66
58683382305000,0.15,4.99,8.66
58683432263000,0.15,4.9,8.66
58683482311000,0.15,4.99,8.73
58683532330000,0.11,4.94,8.66
58683532330000,0.11,4.94,8.66
58683632305000,0.15,4.99,8.73
58683682324000,0.11,4.94,8.69
58683732311000,0.08,4.99,8.69
58683782299000,0.04,4.99,8.66
58683832287000,0.08,4.99,8.66
58683882305000,0.08,5.01,8.66
58683932293000,0.15,5.05,8.66
58683982342000,0.27,5.05,8.54
58684032269000,0.27,5.05,8.58
58684082317000,0.19,5.05,8.58
58684132336000,0.08,4.99,8.66
58684182324000,0.19,5.01,8.69
58684232311000,0.11,5.01,8.69
58684282299000,0.04,4.9,8.77
58684332348000,0.11,4.99,8.69
58684382305000,0.23,5.01,8.54
58684432293000,0.19,5.01,8.69
58684482342000,0.15,4.99,8.58
58684532330000,0.08,4.94,8.69
58684642315000,0.08,4.86,8.81
58684692272000,0.08,4.94,8.69
58684742291000,0.11,4.99,8.69
58684792309000,0.11,4.9,8.66
58684842297000,0.15,4.99,8.66
58684892315000,0.15,5.01,8.73
58684942333000,0.11,4.94,8.62
58684992321000,0.04,4.9,8.73
58685042309000,0.08,4.9,8.69
58685092327000,0.11,4.99,8.66
58685142346000,0.08,4.94,8.69
58685192303000,0.11,5.01,8.69
58685242321000,0.15,4.99,8.62
58685302288000,0.19,5.01,8.58
58685352306000,0.04,4.79,8.81
58685402325000,-0.04,4.86,8.77
58685452313000,0.11,5.01,8.66
58685502300000,0.34,5.09,8.54
58685552319000,0.38,5.09,8.58
58685602306000,0.19,4.94,8.62
58685652294000,-0.08,4.79,8.81
58685752300000,0.15,5.05,8.62
58685802319000,0.27,5.05,8.54
58685852306000,0.19,4.9,8.66
58685902294000,-0.04,4.82,8.81
58686002514000,0.15,4.99,8.66
58686052319000,0.19,5.05,8.5
58686102306000,0.15,4.99,8.58
58686152294000,0.08,5.01,8.62
58686202282000,0.08,5.01,8.69
58686252422000,0.11,4.94,8.73
58686302288000,0.15,4.94,8.66
58686352306000,0.15,5.01,8.62
58686402294000,0.11,4.99,8.62
58686452282000,0.11,4.99,8.66
58686502270000,0.11,5.01,8.62
58686552349000,0.08,4.99,8.66
58686602276000,0.08,4.9,8.66
58686652264000,0.08,4.99,8.69
58686702282000,0.11,4.99,8.58
58686752300000,0.11,4.94,8.69
58686802288000,0.08,4.94,8.69
58686852276000,0.08,4.94,8.73
58686902325000,0.08,4.9,8.62
58686952343000,0.11,5.01,8.69
58687002270000,0.11,5.01,8.58
58687052319000,0.19,4.99,8.73
58687102337000,0.11,4.9,8.69
58687152264000,0.04,4.94,8.69
58687202374000,0.11,4.9,8.73
58687252300000,0.15,4.99,8.69
58687302319000,0.08,4.99,8.69
58687352276000,0.11,4.94,8.69
58687402355000,0.15,4.94,8.73
58687452282000,0.11,4.9,8.69
58687502270000,0.15,4.99,8.66
58687552288000,0.15,5.01,8.66
58687602276000,0.19,4.99,8.66
58687652264000,0.15,4.99,8.73
58687702343000,0.11,4.94,8.66
58687752270000,0.04,4.94,8.73
58687802288000,0.11,4.94,8.73
58687852276000,0.11,4.94,8.66
58687852276000,0.11,4.94,8.66
58687952282000,0.15,4.94,8.73
58688002514000,0.11,4.94,8.73
58688052349000,0.15,4.99,8.66
58688102276000,0.15,4.99,8.73
58688152294000,0.15,4.94,8.69
58688202313000,0.11,4.9,8.66
58688252270000,0.11,4.9,8.81
58688302288000,0.11,4.94,8.69
58688352276000,0.11,4.9,8.66
58688402264000,0.11,4.86,8.66
58688452313000,0.15,4.9,8.69
58688502270000,0.11,4.9,8.73
58688552319000,0.11,4.94,8.69
58688552319000,0.11,4.94,8.69
58688652264000,0.15,4.94,8.66
58688702282000,0.11,4.94,8.66
58688752270000,0.08,4.94,8.69
58688802288000,0.08,4.99,8.66
58688852306000,0.04,4.99,8.69
58688902264000,0.04,4.94,8.69
58688952282000,0.04,4.99,8.66
58689002300000,0.04,4.94,8.69
58689052319000,0.15,4.94,8.73
58689102276000,0.11,4.94,8.62
58689152294000,0.11,4.99,8.73
58689202343000,0.04,4.99,8.66
58689252300000,-0.08,4.86,8.81
58689302288000,0.08,4.86,8.85
58689352276000,0.15,4.86,8.73
58689402294000,0.23,4.9,8.66
58689452282000,0.27,4.94,8.66
58689502300000,0.38,5.01,8.62
58689552319000,0.34,4.9,8.69
58689602306000,0.11,4.67,8.85
58689652294000,0.31,4.75,8.73
58689702282000,0.27,4.86,8.73
58689752300000,0.15,4.75,8.77
58689802319000,0.38,4.79,8.66
58689852337000,0.31,4.82,8.77
58689902416000,0.53,4.79,8.69
58689952313000,0.61,4.9,8.66
58690002544000,0.72,4.86,8.66
58690052349000,0.72,4.75,8.54
58690102276000,0.8,4.79,8.54
58690152325000,0.89,5.05,8.5
58690202313000,0.72,4.79,8.39
58690252300000,0.76,5.01,8.5
58690302319000,0.65,5.22,8.69
58690352276000,0.65,4.99,8.35
58690402294000,0.65,5.24,8.43
58690452313000,0.57,5.43,8.54
58690502300000,0.38,5.48,8.5
58690552319000,0.23,5.48,8.54
58690602306000,0.27,5.41,8.5
58690652294000,0.42,5.52,8.39
58690702313000,0.53,5.56,8.35
58690752300000,0.57,5.52,8.31
58690802319000,0.5,5.41,8.35
58690852306000,0.38,5.43,8.39
58690902294000,0.42,5.48,8.43
58690952343000,0.46,5.56,8.39
58691002300000,0.93,5.6,8.2
58691052319000,1.33,5.63,8.01
58691102306000,1.46,5.56,8.05
58691152264000,1.31,5.6,8.05
58691202282000,1.08,5.6,8.05
58691252270000,0.84,5.6,8.28
58691302288000,0.95,5.56,8.28
58691352276000,0.95,5.56,8.24
58691402294000,0.76,5.52,8.31
58691452313000,0.84,5.56,8.35
58691502300000,0.8,5.6,8.2
58691552319000,0.99,5.63,8.16
58691602306000,1.04,5.56,8.2
58691652294000,0.89,5.37,8.31
58691702313000,0.93,5.43,8.28
58691752270000,0.89,5.48,8.28
58691802288000,0.8,5.52,8.28
58691852276000,0.76,5.52,8.28
58691902264000,0.89,5.52,8.31
58691952313000,0.8,5.56,8.35
58692002880000,0.65,5.52,8.35
58692052288000,0.65,5.52,8.39
58692102306000,0.69,5.6,8.35
58692152294000,0.93,5.67,8.08
58692202313000,1.42,5.79,8.01
58692252300000,1.14,5.48,8.2
58692302319000,0.31,5.41,8.43
58692352306000,0.65,5.52,8.24
58692402294000,1.04,5.79,8.2
58692461010000,0.93,5.83,8.01
58692461010000,0.93,5.83,8.01
58692512310000,0.89,5.67,8.08
58692562328000,0.93,5.63,8.31
58692612347000,0.84,5.63,8.24
58692662335000,0.69,5.6,8.31
58692712322000,0.8,5.56,8.28
58692762341000,0.72,5.6,8.24
58692812328000,0.93,5.71,8.12
58692862347000,1.12,5.63,8.05
58692912335000,0.95,5.6,8.2
58692962322000,0.89,5.67,8.16
58693012341000,0.99,5.63,8.12
58693062328000,1.04,5.71,8.08
58693112347000,1.08,5.71,8.12
58693162335000,0.99,5.63,8.2
58693212322000,0.89,5.67,8.28
58693262341000,0.72,5.6,8.2
58693312359000,0.8,5.67,8.28
58693362347000,0.89,5.67,8.16
58693412304000,0.95,5.67,8.12
58693462322000,1.08,5.67,8.08
58693512310000,1.08,5.71,8.08
58693562328000,1.04,5.63,8.12
58693612347000,0.8,5.63,8.2
58693662335000,0.76,5.67,8.24
58693712292000,0.93,5.67,8.16
58693762341000,0.99,5.71,8.16
58693812298000,0.99,5.67,8.12
58693862347000,0.95,5.71,8.12
58693912304000,0.95,5.71,8.16
58693962322000,0.95,5.75,8.16
58694012280000,1.12,5.75,8.05
58694062298000,1.08,5.75,8.05
58694112316000,1.14,5.79,8.05
58694162335000,1.04,5.75,8.16
58694212292000,0.89,5.63,8.16
58694262341000,0.95,5.67,8.2
58694312389000,1.04,5.75,8.16
58694362347000,1.04,5.71,8.05
58694412335000,1.12,5.75,8.12
58694462292000,1.12,5.71,8.08
58694512310000,0.99,5.71,8.08
58694562298000,0.99,5.71,8.16
58694612347000,0.95,5.67,8.12
58694662304000,1.04,5.67,8.12
58694712322000,0.99,5.71,8.16
58694762341000,0.95,5.63,8.16
58694762341000,0.95,5.63,8.16
58694863781000,0.89,5.63,8.2
58694922375000,0.84,5.6,8.28
58694982311000,0.89,5.6,8.2
58695032238000,0.8,5.6,8.2
58695082317000,0.8,5.56,8.2
58695132336000,0.84,5.6,8.16
58695182324000,0.95,5.63,8.08
58695232311000,0.95,5.6,8.12
58695282269000,0.93,5.56,8.16
58695352367000,0.89,5.56,8.24
58695402233000,0.84,5.56,8.24
58695452343000,0.72,5.43,8.31
58695502270000,0.69,5.48,8.35
58695552319000,0.8,5.52,8.28
58695602276000,0.72,5.52,8.31
58695652355000,0.76,5.48,8.31
58695702313000,0.61,5.37,8.35
58695752270000,0.69,5.37,8.35
58695802319000,0.57,5.33,8.35
58695852306000,0.34,5.28,8.43
58695902294000,0.34,5.24,8.5
58695952313000,0.31,5.18,8.54
58696002514000,0.19,5.05,8.58
58696052349000,0.11,5.01,8.66
58696102276000,0.08,5.01,8.58
58696152294000,0.11,5.13,8.69
58696202343000,0.19,5.01,8.77
58696252300000,0.11,4.82,8.66
58696302319000,-0.04,4.75,8.58
58696352306000,-0.08,4.86,8.73
58696402294000,-0.19,4.6,8.96
58696452313000,-0.08,4.67,8.89
58696502300000,-0.27,4.86,9.43
58696552319000,-0.57,4.63,9.47
58696602306000,-0.95,4.56,9.62
58696652294000,-0.53,4.4,9.51
58696702313000,-0.19,3.76,9.15
58696752300000,0.04,3.64,8.96
58696802319000,0.31,3.57,9.11
58696852337000,0.5,3.41,9.04
58696902294000,0.57,3.49,8.96
58696952313000,0.89,4.06,8.69
58697002300000,0.89,4.48,8.39
58697052319000,1.12,4.99,8.24
58697102306000,1.42,5.09,8.28
58697152294000,1.23,4.48,8.81
58697202313000,0.38,4.29,9.08
58697252300000,-0.11,4.71,9.53
58697302288000,-0.65,4.71,9.34
58697352306000,-1.31,4.14,9.43
58697402294000,-2.03,3.6,9.62
58697452313000,-1.5,3.45,9.51
58697502300000,-0.95,3.72,9.72
58697552319000,-0.42,3.6,9.34
58697602306000,-0.08,3.91,9.04
58697652294000,-0.11,4.14,9.28
58697702313000,-0.15,4.02,9.19
58697752270000,-0.08,3.99,9.19
58697802288000,-0.19,3.99,9.3
58697852306000,-0.38,3.95,9.28
58697902294000,-0.34,3.99,9.34
58697952313000,-0.23,3.95,9.3
58698002758000,-0.23,3.99,9.28
58698052319000,-0.15,4.14,9.28
58698102276000,-0.19,4.14,9.28
58698152325000,-0.15,4.06,9.23
58698202282000,-0.15,4.02,9.28
58698252300000,-0.23,3.95,9.3
58698302319000,-0.27,3.99,9.38
58698352276000,-0.27,3.99,9.3
58698402294000,-0.3,4.02,9.34
58698452282000,-0.23,4.02,9.34
58698502300000,-0.15,3.99,9.28
58698552319000,-0.23,3.95,9.3
58698602306000,-0.19,3.99,9.3
58698652264000,-0.23,4.02,9.3
58698702343000,-0.19,3.99,9.28
58698752300000,-0.15,4.02,9.28
58698802319000,-0.27,3.99,9.3
58698852306000,-0.23,3.99,9.3
58698902294000,-0.23,4.1,9.34
58698952313000,-0.15,4.02,9.3
58699002270000,-0.15,4.02,9.34
58699052319000,-0.3,3.99,9.34
58699102306000,-0.27,4.02,9.38
58699152264000,-0.15,4.02,9.28
58699202282000,-0.15,4.02,9.23
58699252270000,-0.23,4.02,9.3
58699302288000,-0.27,3.99,9.3
58699352306000,-0.19,4.06,9.28
58699402294000,-0.3,4.02,9.3
58699452313000,-0.11,4.1,9.23
58699502270000,-0.15,4.1,9.23
58699552319000,-0.23,4.02,9.28
58699602276000,-0.27,4.02,9.3
58699652264000,-0.27,3.99,9.3
58699702282000,-0.27,3.99,9.34
58699752331000,-0.15,4.06,9.28
58699802288000,-0.19,4.06,9.34
58699852306000,-0.23,3.99,9.34
58699902294000,-0.27,3.95,9.28
58699952313000,-0.19,4.02,9.23
58700002636000,-0.15,4.1,9.28
58700052288000,-0.15,4.06,9.28
58700102276000,-0.15,4.1,9.3
58700152294000,-0.23,4.02,9.23
58700202313000,-0.27,3.99,9.34
58700252270000,-0.23,4.02,9.34
58700302288000,-0.27,4.02,9.28
58700352306000,-0.23,3.99,9.28
58700352306000,-0.23,3.99,9.28
58700422344000,-0.27,3.95,9.28
58700472271000,-0.23,3.99,9.28
58700522320000,-0.27,3.99,9.28
58700583050000,-0.27,3.99,9.3
58700632305000,-0.19,4.02,9.3
58700682324000,-0.19,4.06,9.28
58700732342000,-0.15,4.1,9.23
58700782360000,-0.19,4.06,9.3
58700832317000,-0.19,4.02,9.3
58700882305000,-0.19,4.02,9.28
58700882305000,-0.19,4.02,9.28
58700982311000,-0.19,4.06,9.23
58701032269000,-0.19,3.99,9.28
58701082348000,-0.19,4.1,9.23
58701132305000,-0.19,4.14,9.19
58701182293000,-0.08,4.1,9.19
58701232311000,-0.15,4.02,9.19
58701282238000,-0.27,3.99,9.3
58701332348000,-0.15,4.06,9.28
58701382305000,-0.19,4.1,9.28
58701432324000,-0.15,4.14,9.28
58701482311000,-0.15,4.1,9.23
58701532482000,-0.19,4.1,9.28
58701582348000,-0.27,3.99,9.3
58701632275000,-0.19,3.99,9.3
58701682324000,-0.11,4.1,9.15
58701732311000,-0.04,4.18,9.15
58701782299000,-0.08,4.14,9.15
58701832317000,-0.04,4.14,9.11
58701882305000,-0.11,4.14,9.11
58701932324000,-0.08,4.18,9.19
58701982342000,-0.15,4.06,9.19
58702032299000,-0.11,4.1,9.19
58702082378000,-0.08,4.14,9.15
58702132336000,-0.04,4.1,9.19
58702182293000,-0.08,4.14,9.19
58702232311000,-0.11,4.1,9.19
58702282330000,-0.15,4.02,9.28
58702332317000,-0.15,4.02,9.23
58702382305000,-0.11,4.1,9.23
58702432293000,-0.11,4.06,9.23
58702482311000,-0.15,4.06,9.28
58702532299000,-0.08,4.1,9.19
58702632336000,-0.08,4.1,9.19
58702682293000,-0.04,4.1,9.28
58702732647000,-0.08,4.06,9.19
58702782299000,-0.08,3.99,9.23
58702832317000,-0.08,4.02,9.19
58702882305000,-0.08,4.06,9.28
58702932324000,-0.04,3.95,9.3
58703002331000,-0.11,3.95,9.3
58703052288000,-0.11,3.99,9.34
58703152264000,-0.11,4.06,9.3
58703202282000,-0.23,4.06,9.3
58703252270000,-0.19,4.06,9.3
58703302319000,-0.15,3.99,9.23
58703352276000,-0.04,4.02,9.23
58703502300000,0.04,4.06,9.19
58703552288000,0.04,4.1,9.19
58703602306000,-0.08,4.1,9.19
58703702313000,-0.04,4.18,9.15
58703802288000,0.08,4.06,9.11
58703902264000,-0.11,4.06,9.28
58703952282000,-0.15,4.06,9.3
58704002667000,-0.15,4.1,9.23
58704052288000,-0.15,4.1,9.28
58704102306000,-0.08,4.14,9.28
58704152325000,-0.08,4.06,9.23
58704202313000,-0.19,3.95,9.38
58704252300000,-0.3,3.76,9.38
58704302349000,-0.42,3.76,9.38
58704352306000,-0.38,3.76,9.43
58704402294000,-0.3,3.76,9.38
58704452313000,-0.38,3.79,9.43
58704502300000,-0.3,3.79,9.34
58704552349000,-0.27,3.83,9.43
58704602276000,-0.3,3.87,9.43
58704652294000,-0.42,3.76,9.43
58704702313000,-0.27,3.83,9.38
58704752300000,-0.23,3.83,9.34
58704802319000,-0.27,3.87,9.38
58704852337000,-0.3,3.95,9.38
58704902355000,-0.38,3.83,9.47
58704952343000,-0.42,3.79,9.38
58705002331000,-0.42,3.87,9.43
58705052319000,-0.34,3.79,9.34
58705102276000,-0.27,3.79,9.38
58705152264000,-0.27,3.83,9.3
58705202313000,-0.3,3.79,9.38
58705252331000,-0.27,3.83,9.43
58705302349000,-0.3,3.79,9.38
58705352306000,-0.27,3.83,9.34
58705402264000,-0.3,3.83,9.34
58705452313000,-0.34,3.83,9.43
58705502300000,-0.42,3.76,9.43
58705552319000,-0.34,3.79,9.43
58705602306000,-0.3,3.79,9.38
58705652264000,-0.3,3.83,9.38
58705702282000,-0.3,3.83,9.34
58705752300000,-0.27,3.87,9.38
58705752300000,-0.27,3.87,9.38
58705852306000,-0.3,3.83,9.38
58705902294000,-0.34,3.79,9.43
58705952343000,-0.3,3.83,9.38
58706002483000,-0.3,3.79,9.38
58706052288000,-0.3,3.83,9.34
58706102276000,-0.23,3.87,9.34
58706152264000,-0.23,3.87,9.38
58706202313000,-0.27,3.91,9.38
58706252270000,-0.3,3.87,9.38
58706302258000,-0.3,3.83,9.38
58706352276000,-0.3,3.79,9.38
58706402294000,-0.34,3.87,9.3
58706452313000,-0.23,3.87,9.38
58706502270000,-0.27,3.91,9.38
58706552319000,-0.3,3.95,9.34
58706602276000,-0.27,3.87,9.34
58706652660000,-0.23,3.87,9.3
58706702282000,-0.3,3.87,9.38
58706752270000,-0.3,3.87,9.34
58706802288000,-0.3,3.87,9.38
58706852306000,-0.27,3.91,9.34
58706902355000,-0.19,3.87,9.34
58706952282000,-0.19,3.87,9.38
58707002270000,-0.27,3.87,9.38
58707052319000,-0.3,3.91,9.34
58707102306000,-0.34,3.87,9.38
58707152264000,-0.34,3.83,9.34
58707202282000,-0.27,3.87,9.34
58707252300000,-0.19,3.91,9.3
58707302288000,-0.15,3.95,9.3
58707352276000,-0.15,3.99,9.28
58707402294000,-0.11,4.02,9.3
58707452282000,-0.15,4.02,9.3
58707502270000,-0.11,4.02,9.28
58707502270000,-0.11,4.02,9.28
58707602306000,-0.08,4.06,9.19
58707752270000,0.08,4.21,9.15
58707802319000,0.04,4.18,9.19
58707852306000,0.11,4.21,9.08
58707902264000,0.11,4.29,9.08
58707952282000,0.11,4.25,9.08
58708002789000,0.23,4.33,9.04
58708002789000,0.23,4.33,9.04
58708072338000,0.19,4.29,9.08
58708122295000,0.04,4.21,9.19
58708232281000,-0.04,4.1,9.19
58708282299000,0.04,4.21,9.19
58708332317000,0.04,4.14,9.15
58708382275000,0.08,4.14,9.15
58708432324000,0.04,4.1,9.23
58708482311000,-0.08,4.1,9.23
58708532269000,-0.04,4.18,9.23
58708582317000,-0.04,4.1,9.28
58708632336000,0.04,4.14,9.23
58708682293000,0.08,4.14,9.15
58708732281000,0.04,4.14,9.15
58708832317000,-0.04,4.14,9.23
58708832317000,-0.04,4.14,9.23
58708982311000,0.08,4.21,9.15
58708982311000,0.08,4.21,9.15
58709082317000,0.04,4.21,9.11
58709132305000,0.04,4.18,9.23
58709182293000,0.08,4.18,9.15
58709232342000,0.04,4.21,9.19
58709332348000,-0.08,4.14,9.28
58709432293000,0.08,4.18,9.15
58709482311000,0.08,4.14,9.08
58709532269000,0.04,4.14,9.11
58709582348000,-0.04,4.18,9.19
58709632336000,-0.08,4.14,9.23
58709782330000,0.04,4.14,9.11
58709982403000,0.04,4.14,9.23
58710082440000,-0.04,4.1,9.11
58710182293000,-0.04,4.1,9.19
58710232311000,-0.04,4.06,9.15
58710342297000,0.08,4.18,9.11
58710392346000,0.04,4.14,9.23
58710442303000,-0.04,4.06,9.23
58710442303000,-0.04,4.06,9.23
58710542339000,0.04,4.1,9.23
58710592297000,0.04,4.14,9.19
58710652325000,0.04,4.14,9.15
58710652325000,0.04,4.14,9.15
58710752300000,0.11,4.21,9.15
58710802258000,0.08,4.18,9.15
58710852306000,0.04,4.14,9.15
58711002300000,0.08,4.14,9.11
58711052349000,0.04,4.18,9.15
58711102337000,0.11,4.21,9.11
58711152325000,0.08,4.18,9.15
58711302349000,0.04,4.1,9.23
58711352306000,0.08,4.14,9.15
58711402264000,0.04,4.14,9.23
58711452313000,0.08,4.18,9.15
58711502270000,0.08,4.25,9.11
58711552349000,0.11,4.33,9.04
58711602276000,0.11,4.37,9.11
58711652294000,0.19,4.4,9.04
58711702313000,0.31,4.48,8.96
58711752300000,0.46,4.56,8.92
58711802319000,0.53,4.6,8.85
58711852306000,0.57,4.63,8.89
58711902325000,0.72,4.75,8.81
58711952313000,0.76,4.82,8.73
58712002575000,0.89,4.9,8.77
58712052319000,0.89,4.99,8.62
58712102306000,1.12,5.05,8.54
58712152294000,1.14,5.01,8.62
58712202282000,1.14,4.94,8.54
58712252300000,1.08,5.05,8.62
58712302288000,0.84,4.99,8.62
58712352276000,0.99,5.05,8.62
58712402294000,1.08,5.09,8.54
58712452282000,1.08,5.01,8.58
58712502300000,1.12,5.05,8.58
58712552319000,0.99,5.05,8.62
58712602276000,0.93,5.05,8.62
58712652294000,0.89,5.01,8.66
58712702313000,0.89,5.05,8.58
58712752300000,0.99,5.01,8.62
58712802288000,0.99,5.01,8.58
58712852276000,0.99,5.05,8.58
58712902264000,1.04,5.05,8.58
58712952313000,0.99,4.99,8.62
58713002300000,0.89,5.01,8.66
58713052319000,0.93,5.01,8.58
58713102306000,0.95,4.99,8.62
58713152264000,0.93,4.94,8.62
58713202313000,0.93,4.99,8.66
58713252270000,0.84,4.9,8.66
58713302288000,0.84,4.94,8.69
58713352276000,0.8,4.94,8.66
58713402294000,0.84,4.94,8.73
58713452282000,0.84,4.94,8.62
58713502331000,0.89,4.99,8.62
58713552319000,0.95,4.94,8.54
58713602306000,0.89,4.99,8.58
58713652294000,0.84,4.94,8.66
58713702313000,0.72,4.86,8.69
58713752270000,0.69,4.86,8.69
58713802319000,0.8,4.9,8.62
58713852306000,0.72,4.86,8.66
58713902294000,0.84,4.94,8.62
58713952252000,0.84,4.99,8.62
58714002544000,0.8,4.99,8.62
58714052319000,0.72,4.86,8.62
58714102276000,0.76,4.9,8.62
58714152264000,0.76,4.86,8.66
58714202282000,0.76,4.99,8.62
58714252300000,0.69,4.9,8.66
58714302288000,0.76,4.9,8.69
58714352276000,0.69,4.9,8.58
58714402294000,0.8,4.94,8.69
58714452313000,0.69,4.9,8.73
58714502300000,0.57,4.86,8.69
58714552319000,0.57,4.82,8.73
58714602306000,0.61,4.82,8.69
58714652264000,0.61,4.82,8.73
58714702282000,0.69,4.82,8.73
58714752300000,0.65,4.82,8.77
58714802319000,0.61,4.79,8.69
58714852306000,0.53,4.75,8.77
58714902294000,0.5,4.75,8.85
58714952313000,0.57,4.82,8.69
58715002300000,0.69,4.86,8.66
58715052288000,0.69,4.9,8.66
58715102306000,0.57,4.86,8.69
58715152264000,0.57,4.9,8.62
58715202313000,0.65,4.79,8.73
58715252270000,0.65,4.86,8.73
58715302319000,0.42,4.75,8.69
58715352276000,0.34,4.75,8.77
58715402264000,0.38,4.75,8.81
58715452282000,0.34,4.75,8.81
58715502300000,0.27,4.6,8.89
58715502300000,0.27,4.6,8.89
58715602276000,0.15,4.6,8.92
58715652264000,0.19,4.56,8.92
58715652264000,0.19,4.56,8.92
58715722332000,0.23,4.63,8.85
58715772289000,0.19,4.67,8.89
58715822338000,0.42,4.63,8.89
58715882305000,0.23,4.63,8.92
58715932324000,0.08,4.67,9.0
58715982342000,0.19,4.63,8.77
58716032299000,0.5,4.75,8.77
58716082317000,0.61,4.75,8.73
58716132305000,0.53,4.71,8.73
58716182293000,0.31,4.71,8.85
58716232311000,0.31,4.75,8.77
58716282330000,0.5,4.9,8.73
58716332317000,0.53,4.94,8.73
58716382336000,0.61,4.9,8.66
58716432324000,0.65,4.82,8.77
58716482281000,0.5,4.82,8.77
58716532299000,0.42,4.82,8.73
58716582317000,0.46,4.82,8.69
58716632336000,0.5,4.79,8.77
58716682293000,0.46,4.79,8.73
58716732311000,0.46,4.79,8.77
58716782299000,0.38,4.79,8.81
58716832348000,0.46,4.75,8.73
58716882305000,0.53,4.79,8.73
58716882305000,0.53,4.79,8.73
58716982311000,0.5,4.79,8.77
58717032421000,0.42,4.79,8.77
58717082348000,0.46,4.82,8.81
58717132336000,0.42,4.79,8.73
58717182293000,0.5,4.82,8.73
58717232311000,0.57,4.79,8.73
58717282330000,0.53,4.82,8.81
58717332348000,0.38,4.86,8.77
58717382305000,0.38,4.82,8.77
58717432324000,0.57,4.79,8.73
58717482372000,0.5,4.71,8.77
58717532330000,0.38,4.75,8.69
58717582378000,0.42,4.82,8.73
58717632305000,0.57,4.82,8.73
58717682293000,0.61,4.82,8.77
58717732311000,0.5,4.75,8.77
58717782330000,0.38,4.82,8.81
58717832317000,0.34,4.79,8.81
58717882336000,0.19,4.63,8.92
58717932324000,0.34,4.71,8.85
58717982342000,0.53,4.9,8.66
58718032299000,0.61,4.82,8.66
58718082348000,0.5,4.71,8.77
58718132305000,0.5,4.67,8.73
58718182293000,0.38,4.67,8.85
58718232342000,0.27,4.75,8.85
58718282330000,0.31,4.71,8.77
58718332348000,0.38,4.63,8.81
58718382336000,0.34,4.71,8.92
58718432293000,0.31,4.56,8.92
58718482342000,0.34,4.6,8.85
58718552349000,0.34,4.6,8.85
58718602276000,0.31,4.6,8.92
58718652294000,0.31,4.52,9.0
58718702252000,0.31,4.6,8.96
58718752239000,0.31,4.56,8.96
58718802319000,0.42,4.4,8.81
58718852306000,0.57,4.44,8.92
58718902264000,0.34,4.44,8.92
58718952313000,-0.11,4.29,9.08
58719002300000,-0.42,4.06,9.3
58719052319000,-0.34,4.02,9.47
58719102306000,-0.04,4.14,9.15
58719152294000,-0.08,4.18,9.23
58719202282000,-0.08,4.02,9.23
58719252270000,-0.04,3.99,9.23
58719302319000,-0.38,3.83,9.34
58719352306000,-0.46,3.72,9.43
58719402386000,-0.38,3.83,9.47
58719452313000,-0.19,3.87,9.34
58719502331000,-0.19,3.95,9.28
58719552319000,-0.11,3.87,9.28
58719602306000,-0.19,3.83,9.34
58719652294000,-0.5,3.68,9.47
58719702282000,-0.53,3.68,9.47
58719752300000,-0.46,3.72,9.38
58719802319000,-0.42,3.79,9.43
58719852276000,-0.34,3.79,9.47
58719902294000,-0.46,3.68,9.47
58719952282000,-0.46,3.57,9.51
58720002514000,-0.34,3.68,9.47
58720052319000,-0.38,3.76,9.38
58720102306000,-0.5,3.68,9.47
58720152264000,-0.38,3.68,9.43
58720202313000,-0.42,3.6,9.53
58720252300000,-0.46,3.68,9.51
58720302319000,-0.38,3.76,9.43
58720352276000,-0.27,3.76,9.38
58720402294000,-0.23,3.68,9.34
58720452282000,-0.19,3.83,9.34
58720502300000,-0.08,3.91,9.3
58720552319000,-0.08,3.95,9.28
58720602306000,-0.15,3.91,9.28
58720652264000,-0.19,3.91,9.3
58720702282000,-0.19,3.95,9.38
58720752300000,-0.19,3.99,9.3
58720802319000,-0.19,3.95,9.38
58720852367000,-0.08,3.99,9.3
58720902294000,-0.23,3.91,9.34
58720902294000,-0.23,3.91,9.34
58721002300000,-0.15,3.95,9.28
58721052349000,-0.11,3.87,9.3
58721102337000,-0.08,3.91,9.34
58721152294000,-0.19,3.83,9.38
58721202343000,-0.34,3.76,9.43
58721252270000,-0.34,3.72,9.47
58721302349000,-0.27,3.79,9.47
58721352306000,-0.27,3.76,9.34
58721402294000,-0.38,3.53,9.47
58721452313000,-0.23,3.72,9.28
58721502300000,-0.34,3.57,9.43
58721552380000,-0.57,3.45,9.77
58721602306000,-0.42,3.45,9.43
58721652294000,-0.38,3.64,9.43
58721702923000,-0.3,3.72,9.51
58721752667000,-0.38,3.68,9.47
58721802349000,-0.46,3.6,9.53
58721852306000,-0.3,3.49,9.38
58721902294000,-0.34,3.57,9.47
58721952343000,-0.3,3.64,9.43
58722002575000,-0.23,3.64,9.47
58722052319000,-0.34,3.6,9.51
58722102276000,-0.34,3.57,9.47
58722152294000,-0.3,3.64,9.51
58722202282000,-0.34,3.64,9.47
58722252331000,-0.3,3.6,9.51
58722302288000,-0.38,3.53,9.51
58722352306000,-0.3,3.6,9.47
58722402294000,-0.34,3.64,9.38
58722452282000,-0.34,3.68,9.38
58722502270000,-0.3,3.68,9.47
58722552319000,-0.3,3.57,9.34
58722602306000,-0.42,3.45,9.51
58722652264000,-0.53,3.53,9.51
58722702282000,-0.5,3.53,9.51
58722752300000,-0.38,3.6,9.43
58722802288000,-0.38,3.6,9.53
58722852306000,-0.42,3.57,9.51
58722902294000,-0.46,3.53,9.47
58722952343000,-0.5,3.49,9.51
58723002270000,-0.46,3.57,9.51
58723052319000,-0.53,3.49,9.43
58723102306000,-0.57,3.57,9.47
58723152264000,-0.61,3.57,9.51
58723202313000,-0.5,3.53,9.51
58723252300000,-0.46,3.49,9.53
58723302319000,-0.38,3.64,9.47
58723352276000,-0.46,3.64,9.47
58723402325000,-0.5,3.6,9.51
58723452282000,-0.46,3.49,9.51
58723502270000,-0.42,3.49,9.47
58723552319000,-0.5,3.53,9.51
58723552319000,-0.5,3.53,9.51
58723622326000,-0.57,3.45,9.51
58723672314000,-0.53,3.49,9.58
58723722241000,-0.53,3.57,9.53
58723782269000,-0.5,3.57,9.47
58723832348000,-0.42,3.6,9.43
58723882305000,-0.42,3.68,9.51
58723932324000,-0.38,3.6,9.43
58723982342000,-0.38,3.57,9.47
58723982342000,-0.38,3.57,9.47
58724082317000,-0.38,3.64,9.38
58724132336000,-0.46,3.68,9.47
58724182324000,-0.3,3.72,9.51
58724232311000,-0.3,3.72,9.47
58724282330000,-0.23,3.83,9.38
58724332348000,-0.5,3.87,9.47
58724382305000,-0.5,3.87,9.51
58724432324000,-0.27,3.99,9.38
58724482342000,-0.34,4.1,9.34
58724532330000,-0.11,4.25,9.23
58724582348000,0.08,4.44,9.08
58724632336000,0.84,4.6,8.73
58724682324000,0.93,4.86,8.62
58724732342000,0.8,5.05,8.47
58724782360000,1.23,5.24,8.43
58724832348000,1.5,5.48,8.31
58724882305000,1.57,5.48,8.16
58724932324000,1.23,5.33,8.39
58724982342000,0.89,5.24,8.54
58725032299000,0.8,5.24,8.5
58725082440000,0.76,5.28,8.58
58725132336000,0.72,5.22,8.62
58725182324000,0.69,5.13,8.5
58725232342000,0.72,5.18,8.5
58725282238000,0.69,5.18,8.58
58725342236000,0.61,5.09,8.54
58725392315000,0.57,5.09,8.69
58725442303000,0.38,4.99,8.69
58725492321000,0.34,5.01,8.66
58725542309000,0.42,5.09,8.69
58725592327000,0.61,5.05,8.66
58725642346000,0.65,5.05,8.62
58725692303000,0.57,5.05,8.66
58725742291000,0.5,5.05,8.62
58725792309000,0.5,5.09,8.66
58725842297000,0.57,5.09,8.62
58725842297000,0.57,5.09,8.62
58725942303000,0.57,5.05,8.66
58725992260000,0.5,5.05,8.66
58726042309000,0.53,5.09,8.69
58726092327000,0.5,5.13,8.66
58726142315000,0.5,5.05,8.69
58726192333000,0.61,5.09,8.69
58726252361000,0.53,5.09,8.69
58726302258000,0.42,5.09,8.62
58726352306000,0.53,5.05,8.62
58726402233000,0.61,5.09,8.62
58726452282000,0.61,5.05,8.58
58726502300000,0.53,5.09,8.62
58726552319000,0.42,5.01,8.66
58726602306000,0.57,5.01,8.62
58726652264000,0.53,5.01,8.62
58726702313000,0.46,5.05,8.66
58726752300000,0.5,5.09,8.66
58726802319000,0.53,4.99,8.69
58726852276000,0.53,5.01,8.69
58726902264000,0.53,5.01,8.66
58726952282000,0.53,5.05,8.62
58726952282000,0.53,5.05,8.62
58727052319000,0.5,5.05,8.69
58727102306000,0.53,5.01,8.66
58727152264000,0.5,5.05,8.66
58727202282000,0.57,5.05,8.58
58727252270000,0.5,5.05,8.69
58727302288000,0.5,5.05,8.73
58727352306000,0.46,4.99,8.62
58727402294000,0.5,5.05,8.69
58727452313000,0.53,5.05,8.62
58727502270000,0.53,5.01,8.66
58727552319000,0.42,4.99,8.69
58727602276000,0.53,5.01,8.69
58727652264000,0.38,5.01,8.66
58727702282000,0.46,5.01,8.66
58727752300000,0.53,5.05,8.62
58727802288000,0.53,4.99,8.62
58727852306000,0.46,4.99,8.73
58727902325000,0.46,5.01,8.66
58727952282000,0.5,5.05,8.66
58728002697000,0.5,4.99,8.66
58728052288000,0.5,4.99,8.69
58728102306000,0.46,5.01,8.73
58728152294000,0.42,5.01,8.66
58728202282000,0.53,5.01,8.66
58728252270000,0.5,5.01,8.69
58728302319000,0.46,5.01,8.69
58728352276000,0.5,5.01,8.66
58728402294000,0.53,5.05,8.69
58728452313000,0.5,5.01,8.66
58728502270000,0.46,5.01,8.69
58728552471000,0.46,4.99,8.77
58728602673000,0.42,4.99,8.73
58728652264000,0.46,5.01,8.73
58728702282000,0.5,5.01,8.69
58728752270000,0.53,4.99,8.69
58728802319000,0.46,4.99,8.81
58728852276000,0.34,4.99,8.66
58728902294000,0.5,4.99,8.69
58728902294000,0.5,4.99,8.69
58729002270000,0.42,4.94,8.69
58729052319000,0.46,5.01,8.73
58729102276000,0.42,4.94,8.73
58729152264000,0.46,4.94,8.73
58729202282000,0.61,5.01,8.73
58729252270000,0.5,5.01,8.69
58729302319000,0.42,4.94,8.73
58729352276000,0.46,4.94,8.69
58729402264000,0.5,4.94,8.69
58729452313000,0.46,4.99,8.69
58729452313000,0.46,4.99,8.69
58729552319000,0.42,4.9,8.77
58729602276000,0.42,4.94,8.73
58729652264000,0.57,4.99,8.73
58729702282000,0.53,4.99,8.69
58729752300000,0.5,4.94,8.77
58729802319000,0.42,4.86,8.77
58729852276000,0.42,4.86,8.73
58729852276000,0.42,4.86,8.73
58729952282000,0.46,4.86,8.77
58730002575000,0.42,4.9,8.81
58730052563000,0.46,4.94,8.77
58730102306000,0.5,4.9,8.77
58730152264000,0.42,4.9,8.73
58730202313000,0.34,4.86,8.77
58730252300000,0.46,4.94,8.69
58730302319000,0.53,4.94,8.77
58730352306000,0.46,4.9,8.73
58730402294000,0.42,4.9,8.81
58730452313000,0.42,4.94,8.77
58730502270000,0.42,4.9,8.73
58730552319000,0.46,4.9,8.77
58730602276000,0.46,4.94,8.77
58730652264000,0.38,4.86,8.77
58730702282000,0.42,4.86,8.73
58730752300000,0.46,4.94,8.77
58730802288000,0.5,4.94,8.73
58730852276000,0.42,4.86,8.73
58730902294000,0.46,4.9,8.73
58730952313000,0.42,4.86,8.73
58731002300000,0.46,4.9,8.77
58731052319000,0.42,4.9,8.73
58731102306000,0.42,4.86,8.81
58731152264000,0.42,4.86,8.73
58731202282000,0.42,4.9,8.73
58731252300000,0.46,4.94,8.69
58731252300000,0.46,4.94,8.69
58731322582000,0.42,4.86,8.81
58731372265000,0.34,4.86,8.77
58731422344000,0.46,4.94,8.73
58731482281000,0.46,4.86,8.69
58731532330000,0.38,4.82,8.81
58731582317000,0.38,4.9,8.77
58731632305000,0.38,4.9,8.81
58731682324000,0.42,4.86,8.69
58731682324000,0.42,4.86,8.69
58731782299000,0.38,4.9,8.69
58731832348000,0.46,4.94,8.73
58731882305000,0.38,4.86,8.73
58731932293000,0.38,4.82,8.69
58731982342000,0.31,4.9,8.73
58732032299000,0.38,4.9,8.69
58732082348000,0.42,4.94,8.77
58732132427000,0.5,4.9,8.66
58732182293000,0.38,4.9,8.77
58732232311000,0.34,4.9,8.77
58732282299000,0.38,4.9,8.69
58732332317000,0.42,4.9,8.73
58732382305000,0.42,4.86,8.69
58732432293000,0.38,4.86,8.73
58732482342000,0.38,4.9,8.77
58732532299000,0.38,4.94,8.66
58732582378000,0.34,4.86,8.77
58732632305000,0.38,4.86,8.81
58732682293000,0.38,4.94,8.77
58732732311000,0.34,4.86,8.77
58732782299000,0.34,4.75,8.81
58732832348000,0.31,4.67,8.85
58732882305000,0.23,4.67,8.89
58732932293000,0.19,4.71,8.89
58732982403000,0.15,4.67,8.85
58733032330000,0.23,4.63,8.92
58733082317000,0.23,4.63,8.85
58733132336000,0.15,4.67,8.81
58733182354000,0.15,4.71,8.85
58733232342000,0.23,4.63,8.89
58733282330000,0.15,4.6,8.85
58733332348000,0.11,4.6,8.96
58733382366000,0.04,4.56,8.92
58733432293000,0.04,4.52,8.96
58733482372000,0.04,4.6,8.92
58733532299000,0.04,4.63,8.92
58733582348000,0.11,4.67,8.96
58733632305000,0.19,4.67,8.96
58733682354000,0.15,4.6,8.85
58733732372000,0.04,4.52,8.96
58733832378000,0.04,4.44,9.04
58733882336000,0.08,4.6,9.0
58733932293000,0.04,4.6,9.0
58734032360000,0.04,4.33,8.96
58734132336000,0.04,4.48,8.92
58734182293000,0.04,4.52,9.0
58734252361000,0.04,4.48,9.0
58734452313000,0.04,4.56,8.96
58734552319000,0.04,4.44,8.96
58734702313000,0.04,4.56,8.96
58734752300000,0.08,4.56,8.96
58734852306000,0.08,4.48,8.96
58734952282000,0.04,4.48,8.96
58735002361000,0.08,4.56,9.0
58735052319000,0.04,4.48,8.96
58735102276000,0.04,4.48,9.0
58735152264000,0.04,4.44,9.0
58735202282000,0.08,4.44,8.96
58735252331000,0.11,4.56,8.89
58735252331000,0.11,4.56,8.89
58735312328000,0.11,4.48,8.96
58735362316000,0.11,4.44,8.96
58735412304000,0.08,4.48,8.96
58735462322000,0.04,4.48,9.04
58735512371000,0.08,4.56,8.96
58735562328000,0.19,4.56,8.92
58735612377000,0.15,4.48,8.96
58735662457000,0.04,4.44,9.0
58735712292000,0.11,4.44,9.0
58735762341000,0.23,4.56,8.96
58735812298000,0.19,4.56,8.96
58735862316000,0.11,4.56,8.96
58735912304000,0.11,4.48,8.96
58735962322000,0.11,4.37,9.0
58736012280000,0.04,4.4,9.0
58736062328000,0.11,4.44,9.0
58736112316000,0.08,4.44,9.0
58736162304000,0.08,4.44,9.04
58736212322000,0.04,4.44,9.0
58736262341000,0.04,4.4,9.04
58736312298000,0.08,4.4,9.04
58736362316000,0.08,4.4,9.0
58736412304000,0.08,4.44,8.96
58736462292000,0.15,4.48,8.96
58736512310000,0.04,4.4,8.96
58736562328000,0.04,4.44,9.0
58736612316000,0.08,4.48,9.0
58736662335000,0.11,4.44,9.04
58736712292000,0.11,4.44,8.96
58736762310000,0.08,4.44,9.0
58736812298000,0.04,4.4,9.0
58736862347000,0.04,4.4,8.96
58736912335000,0.08,4.44,8.92
58736962322000,0.08,4.44,9.04
58737012249000,0.08,4.44,9.0
58737062298000,0.11,4.44,9.0
58737112316000,0.08,4.44,8.96
58737162304000,0.08,4.44,9.0
58737212292000,0.11,4.44,8.96
58737262310000,0.11,4.48,8.92
58737312328000,0.08,4.52,8.96
58737362347000,0.11,4.48,9.0
58737362347000,0.11,4.48,9.0
58737462322000,0.08,4.4,8.96
58737512310000,0.11,4.52,8.96
58737562328000,0.04,4.4,9.0
58737612347000,0.08,4.48,9.04
58737662304000,0.11,4.48,8.89
58737712719000,0.15,4.48,9.04
58737762371000,0.08,4.4,9.0
58737812298000,0.04,4.4,9.04
58737862316000,0.08,4.44,9.04
58737912335000,0.11,4.48,8.96
58737962353000,0.15,4.52,8.92
58738012646000,0.11,4.52,8.96
58738062328000,0.11,4.48,9.04
58738112316000,0.08,4.48,9.08
58738162335000,0.11,4.4,9.0
58738212322000,0.15,4.44,8.96
58738262310000,0.19,4.44,9.0
58738312298000,0.11,4.4,9.0
58738362347000,0.08,4.44,9.08
58738412335000,0.04,4.25,9.11
58738462322000,0.08,4.37,9.15
58738512310000,0.19,4.37,8.92
58738562328000,0.15,4.44,9.04
58738612316000,0.23,4.44,9.0
58738662335000,0.08,4.37,9.15
58738712292000,0.11,4.37,9.08
58738762341000,0.15,4.48,9.04
58738812298000,0.15,4.44,9.04
58738862316000,0.15,4.4,9.04
58738912273000,0.15,4.37,9.04
58738962292000,0.11,4.37,9.08
58739012310000,0.11,4.4,9.08
58739062328000,0.19,4.4,9.04
58739112316000,0.19,4.44,9.04
58739162304000,0.15,4.4,9.04
58739212353000,0.08,4.33,9.11
58739262341000,0.15,4.37,9.04
58739322277000,0.15,4.48,9.04
58739382305000,0.23,4.44,9.0
58739432324000,0.11,4.37,9.08
58739482311000,0.11,4.4,9.0
58739532330000,0.19,4.44,9.04
58739582317000,0.19,4.44,9.0
58739632305000,0.11,4.37,9.0
58739682324000,0.15,4.4,9.04
58739732311000,0.19,4.4,9.0
58739782299000,0.15,4.4,8.96
58739832348000,0.19,4.37,9.08
58739882305000,0.15,4.37,9.04
58739932293000,0.15,4.44,9.0
58739982342000,0.15,4.4,9.04
58740032299000,0.11,4.4,9.04
58740082317000,0.19,4.37,9.04
58740132336000,0.11,4.4,9.08
58740182293000,0.11,4.33,9.04
58740232342000,0.15,4.4,9.04
58740282238000,0.19,4.4,9.08
58740332317000,0.15,4.4,9.08
58740382336000,0.15,4.37,9.04
58740432293000,0.08,4.37,9.08
58740482311000,0.15,4.37,9.04
58740532299000,0.23,4.4,9.04
58740582317000,0.15,4.37,9.04
58740632336000,0.19,4.4,9.08
58740682293000,0.08,4.4,9.11
58740782330000,0.11,4.37,9.04
58740832317000,0.15,4.37,9.08
58740882336000,0.11,4.4,9.04
58740932293000,0.19,4.4,9.08
58740982311000,0.11,4.4,9.08
58741032360000,0.04,4.29,9.15
58741082317000,-0.04,4.29,9.15
58741132336000,0.04,4.37,9.08
58741132336000,0.04,4.37,9.08
58741232311000,0.08,4.33,9.08
58741282177000,0.08,4.33,9.04
58741332317000,0.08,4.37,9.08
58741382305000,0.08,4.4,9.04
58741432293000,0.08,4.37,9.11
58741482342000,0.04,4.4,9.08
58741582348000,0.04,4.4,9.08
58741632305000,0.04,4.4,9.11
58741682293000,0.04,4.37,9.08
58741682293000,0.04,4.37,9.08
58741782269000,0.04,4.37,9.11
58741882305000,0.04,4.4,9.11
58741932263000,0.04,4.4,9.08
58741982311000,0.11,4.4,9.08
58742032330000,0.08,4.44,9.08
58742082317000,0.08,4.33,9.15
58742252331000,0.04,4.37,9.08
58742302227000,0.04,4.33,9.08
58742452282000,0.08,4.33,9.11
58742552288000,0.04,4.33,9.08
58742602276000,0.04,4.33,9.11
58742652264000,0.04,4.33,9.08
58742702313000,-0.04,4.25,9.15
58742752300000,0.04,4.29,9.11
58742802288000,0.08,4.37,9.11
58742852306000,0.11,4.44,9.04
58742902264000,0.11,4.4,9.04
58742952282000,0.11,4.37,9.08
58743002300000,0.04,4.33,9.11
58743052319000,0.11,4.4,9.04
58743102306000,0.15,4.44,9.08
58743152294000,0.11,4.4,9.04
58743202313000,0.04,4.33,9.11
58743302319000,0.08,4.29,9.08
58743352276000,0.08,4.29,9.11
58743402264000,0.08,4.37,9.0
58743452282000,0.08,4.37,9.11
58743552319000,0.04,4.29,9.11
58743602306000,0.04,4.25,9.08
58743652264000,0.04,4.4,9.08
58743702282000,0.15,4.37,9.08
58743752270000,0.15,4.4,9.04
58743802319000,0.04,4.37,9.0
58743902660000,-0.11,4.14,9.19
58743952282000,-0.11,4.18,9.23
58744002544000,-0.04,4.29,9.15
58744052319000,0.04,4.37,9.08
58744202313000,-0.04,4.25,9.11
58744252300000,0.04,4.33,9.08
58744302319000,0.08,4.37,9.04
58744552288000,-0.04,4.29,9.19
58744602276000,-0.04,4.29,9.08
58744702313000,-0.04,4.33,9.11
58744702313000,-0.04,4.33,9.11
58744802319000,0.04,4.29,9.04
58744852276000,0.04,4.37,9.11
58744852276000,0.04,4.37,9.11
58744852276000,0.04,4.37,9.11
58744962292000,-0.04,4.29,9.15
58745012249000,-0.08,4.29,9.19
58745162335000,-0.04,4.29,9.15
58745212292000,-0.04,4.25,9.15
58745362316000,0.04,4.25,9.19
58745512341000,-0.04,4.25,9.19
58745562298000,-0.04,4.21,9.11
58745612347000,-0.11,4.06,9.23
58745662304000,-0.15,4.18,9.23
58745712322000,-0.11,4.21,9.19
58745812298000,0.04,4.29,9.11
58745962322000,-0.04,4.25,9.15
58746012280000,-0.04,4.33,9.19
58746062298000,-0.04,4.37,9.15
58746112347000,0.04,4.33,9.11
58746162304000,0.04,4.29,9.11
58746162304000,0.04,4.29,9.11
58746262310000,0.04,4.33,9.11
58746312328000,-0.04,4.25,9.15
58746362316000,-0.04,4.29,9.19
58746512310000,-0.04,4.29,9.19
58746662335000,0.04,4.25,9.11
58746712322000,0.04,4.21,9.15
58746762341000,-0.04,4.25,9.19
58746812298000,-0.08,4.14,9.19
58746862316000,-0.15,4.14,9.28
58746912304000,-0.11,4.14,9.23
58747012341000,0.04,4.29,9.08
58747112316000,-0.04,4.29,9.19
58747162304000,-0.04,4.29,9.11
58747222332000,-0.04,4.33,9.15
58747282269000,-0.04,4.29,9.15
58747332348000,-0.08,4.33,9.11
58747382305000,-0.08,4.25,9.15
58747432354000,-0.08,4.25,9.19
58747482311000,-0.04,4.25,9.15
58747532299000,-0.04,4.29,9.23
58747632305000,-0.04,4.29,9.19
58747682263000,-0.04,4.29,9.15
58747732342000,0.04,4.37,9.11
58747832317000,0.04,4.29,9.15
58748032330000,-0.08,4.25,9.19
58748082317000,-0.08,4.29,9.19
58748132305000,0.04,4.29,9.11
58748182324000,0.08,4.33,9.08
58748232342000,0.04,4.33,9.15
58748282330000,-0.11,4.18,9.19
58748332317000,-0.15,4.18,9.19
58748382305000,-0.04,4.25,9.19
58748432293000,-0.04,4.33,9.11
58748482311000,0.04,4.33,9.11
58748482311000,0.04,4.33,9.11
58748582317000,-0.04,4.29,9.15
58748632336000,-0.04,4.33,9.11
58748682293000,0.04,4.33,9.11
58748732311000,-0.04,4.29,9.11
58748932324000,-0.04,4.29,9.19
58748982342000,0.04,4.4,9.15
58749082348000,0.04,4.33,9.11
58749132305000,0.04,4.33,9.15
58749182293000,0.04,4.33,9.11
58749282299000,-0.08,4.29,9.15
58749332348000,-0.04,4.33,9.19
58749482372000,-0.11,4.21,9.28
58749582348000,0.04,4.33,9.08
58749632336000,0.04,4.33,9.04
58749732342000,-0.11,4.18,9.28
58749782848000,-0.08,4.18,9.19
58749832317000,-0.08,4.29,9.15
58749882305000,-0.04,4.25,9.15
58750102276000,-0.04,4.33,9.11
58750362347000,-0.04,4.33,9.15
58750512310000,-0.04,4.33,9.11
58750562328000,-0.04,4.29,9.19
58750612316000,-0.04,4.21,9.15
58750662304000,-0.04,4.29,9.11
58750712383000,-0.08,4.29,9.11
58750762310000,-0.04,4.33,9.11
58750812298000,-0.04,4.29,9.19
58750862347000,-0.08,4.25,9.15
58750962353000,-0.04,4.25,9.11
58751012249000,-0.04,4.29,9.11
58751062359000,-0.04,4.33,9.19
58751262310000,-0.04,4.33,9.11
58751312298000,-0.08,4.29,9.11
58751362316000,-0.04,4.29,9.08
58751412304000,-0.08,4.29,9.11
58751512310000,-0.08,4.33,9.15
58751662335000,-0.04,4.33,9.15
58751712322000,-0.11,4.29,9.19
58751762341000,-0.04,4.33,9.15
58751862316000,-0.08,4.37,9.15
58751912335000,-0.11,4.4,9.19
58751962322000,-0.04,4.4,9.08
58752012249000,-0.04,4.4,9.11
58752062298000,-0.04,4.4,9.08
58752112347000,-0.08,4.44,9.11
58752162365000,-0.11,4.4,9.15
58752212353000,-0.15,4.37,9.19
58752262310000,-0.15,4.4,9.0
58752312328000,-0.11,4.4,9.08
58752362316000,-0.11,4.33,9.11
58752412335000,-0.11,4.44,9.19
58752462322000,-0.19,4.29,9.23
58752512310000,-0.15,4.25,9.23
58752562328000,-0.08,4.29,9.15
58752612316000,-0.08,4.37,9.11
58752712292000,-0.08,4.37,9.15
58752762310000,-0.15,4.37,9.19
58752812328000,-0.04,4.52,9.08
58752862347000,0.04,4.44,9.0
58752912335000,-0.08,4.37,9.11
58752962353000,-0.11,4.33,9.15
58753012280000,-0.04,4.37,9.11
58753112316000,-0.04,4.37,9.19
58753162335000,-0.08,4.33,9.15
58753212322000,-0.04,4.37,9.11
58753212322000,-0.04,4.37,9.11
58753312634000,-0.08,4.29,9.11
58753362316000,-0.15,4.29,9.23
58753412304000,-0.15,4.21,9.19
58753462292000,-0.23,4.21,9.28
58753512341000,-0.15,4.29,9.11
58753562328000,-0.04,4.33,9.15
58753612316000,-0.08,4.33,9.19
58753662304000,-0.08,4.29,9.11
58753712292000,-0.04,4.29,9.11
58753762310000,-0.08,4.33,9.11
58753812298000,-0.04,4.37,9.11
58753862316000,-0.08,4.29,9.11
58753912304000,-0.11,4.29,9.15
58753962353000,-0.15,4.21,9.23
58754012280000,-0.19,4.21,9.28
58754062328000,-0.11,4.37,9.08
58754162304000,0.04,4.48,9.04
58754212292000,0.04,4.37,9.08
58754262341000,-0.04,4.25,9.11
58754312298000,-0.11,4.25,9.23
58754362316000,-0.08,4.29,9.23
58754412304000,-0.08,4.33,9.11
58754462322000,-0.11,4.25,9.19
58754512341000,-0.11,4.29,9.15
58754562298000,-0.04,4.25,9.15
58754612347000,0.04,4.33,9.11
58754712322000,-0.11,4.14,9.28
58754762341000,-0.27,4.06,9.3
58754762341000,-0.27,4.06,9.3
58754862347000,-0.11,4.18,9.19
58754912335000,-0.04,4.33,9.15
58754962292000,-0.04,4.29,9.11
58755012402000,-0.08,4.21,9.23
58755062328000,-0.04,4.25,9.19
58755122326000,-0.15,4.33,9.23
58755182446000,-0.11,4.29,9.19
58755232311000,-0.08,4.25,9.19
58755287060000,-0.11,4.21,9.15
58755342266000,-0.04,4.29,9.15
58755392284000,-0.08,4.29,9.15
58755442303000,-0.08,4.33,9.11
58755492291000,-0.08,4.29,9.19
58755542339000,-0.11,4.25,9.28
58755592297000,-0.11,4.21,9.23
58755642315000,-0.15,4.21,9.19
58755692333000,-0.08,4.25,9.15
58755742321000,-0.04,4.37,9.11
58755792309000,-0.04,4.25,9.19
58755842327000,-0.11,4.14,9.23
58755892376000,-0.15,4.06,9.28
58755942303000,-0.15,4.14,9.19
58755992291000,-0.11,4.14,9.28
58756042339000,-0.08,4.18,9.23
58756092297000,-0.08,4.25,9.15
58756092297000,-0.08,4.25,9.15
58756192333000,-0.04,4.21,9.11
58756242291000,-0.04,4.25,9.19
58756242291000,-0.04,4.25,9.19
58756342297000,-0.08,4.29,9.15
58756392315000,-0.04,4.21,9.15
58756442303000,-0.04,4.25,9.11
58756492291000,-0.08,4.29,9.15
58756542309000,-0.08,4.33,9.11
58756592297000,-0.04,4.33,9.15
58756642284000,-0.04,4.29,9.15
58756792309000,-0.04,4.29,9.11
58756842297000,-0.04,4.33,9.15
58756892315000,-0.08,4.33,9.19
58756942272000,-0.08,4.25,9.19
58756992321000,0.11,4.33,8.96
58757042339000,0.23,4.29,9.0
58757092327000,0.11,4.25,9.19
58757142346000,-0.11,4.1,9.34
58757192333000,-0.46,3.99,9.38
58757242321000,-0.23,4.14,9.34
58757342358000,0.11,4.4,9.04
58757392284000,0.11,4.29,9.04
58757442364000,0.04,4.18,9.19
58757542309000,-0.08,4.25,9.11
58757592297000,-0.08,4.29,9.15
58757742352000,-0.04,4.25,9.15
58757792370000,-0.11,4.29,9.15
58757852306000,-0.04,4.29,9.15
58758002270000,-0.08,4.25,9.15
58758052319000,-0.04,4.29,9.19
58758102306000,-0.04,4.37,9.11
58758152264000,-0.04,4.33,9.11
58758252300000,-0.04,4.25,9.11
58758302288000,-0.04,4.29,9.15
58758352276000,-0.04,4.25,9.11
58758402264000,-0.04,4.21,9.15
58758452343000,-0.08,4.18,9.23
58758502270000,-0.11,4.25,9.23
58758552288000,-0.08,4.25,9.15
58758602306000,-0.04,4.29,9.15
58758652294000,-0.08,4.18,9.23
58758702282000,-0.11,4.21,9.23
58758752270000,-0.15,4.21,9.3
58758802319000,-0.08,4.25,9.11
58758852276000,-0.08,4.25,9.15
58758902294000,-0.04,4.29,9.19
58758952313000,-0.15,4.25,9.15
58759002270000,-0.15,4.25,9.23
58759052319000,-0.08,4.33,9.15
58759052319000,-0.08,4.33,9.15
58759152294000,-0.11,4.29,9.23
58759202587000,-0.11,4.29,9.19
58759352306000,-0.04,4.21,9.15
58759402294000,-0.23,4.21,9.3
58759452313000,-0.38,4.18,9.3
58759502300000,-0.23,4.29,9.23
58759552319000,-0.04,4.33,9.15
58759602276000,-0.04,4.33,9.11
58759652264000,-0.08,4.33,9.11
58759702313000,-0.15,4.21,9.19
58759752300000,-0.19,4.29,9.19
58759802319000,-0.11,4.33,9.15
58759852306000,-0.15,4.29,9.19
58759902294000,-0.19,4.25,9.28
58759952282000,-0.23,4.14,9.28
58760002728000,-0.23,4.21,9.23
58760052319000,-0.11,4.18,9.15
58760102306000,-0.11,4.14,9.28
58760152294000,-0.08,4.25,9.23
58760202313000,0.04,4.14,9.11
58760252300000,-0.19,4.1,9.3
58760252300000,-0.19,4.1,9.3
58760312328000,-0.27,4.14,9.34
58760362347000,-0.23,4.25,9.3
58760412335000,-0.19,4.14,9.3
58760462322000,-0.15,4.18,9.19
58760512341000,-0.08,4.37,9.11
58760562298000,-0.04,4.37,9.15
58760612316000,-0.04,4.29,9.15
58760662335000,-0.08,4.18,9.28
58760712292000,-0.27,4.18,9.3
58760712292000,-0.27,4.18,9.3
58760812298000,-0.23,4.25,9.34
58760862316000,-0.23,4.14,9.28
58760912304000,-0.19,4.14,9.23
58760962322000,-0.19,4.21,9.23
58761012280000,-0.08,4.25,9.19
58761062298000,-0.15,4.25,9.19
58761112316000,-0.19,4.25,9.23
58761112316000,-0.19,4.25,9.23
58761212292000,-0.19,4.21,9.28
58761212292000,-0.19,4.21,9.28
58761312328000,-0.23,4.18,9.23
58761362347000,-0.15,4.25,9.19
58761412304000,-0.19,4.25,9.19
58761462292000,-0.15,4.25,9.23
58761512341000,-0.23,4.21,9.28
58761562328000,-0.23,4.25,9.28
58761612408000,-0.19,4.18,9.28
58761662335000,-0.15,4.25,9.19
58761712292000,-0.15,4.29,9.23
58761762310000,-0.23,4.25,9.23
58761812328000,-0.23,4.21,9.28
58761862316000,-0.15,4.21,9.28
58761912304000,-0.15,4.29,9.19
58761962322000,-0.11,4.29,9.11
58762012249000,-0.11,4.29,9.19
58762062298000,-0.15,4.29,9.19
58762112347000,-0.23,4.25,9.23
58762162304000,-0.23,4.18,9.23
58762212292000,-0.27,4.18,9.3
58762262341000,-0.19,4.25,9.23
58762312298000,-0.19,4.29,9.15
58762362316000,-0.19,4.25,9.19
58762412304000,-0.19,4.21,9.23
58762412304000,-0.19,4.21,9.23
58762512310000,-0.19,4.18,9.28
58762562298000,-0.15,4.25,9.28
58762612347000,-0.11,4.29,9.23
58762662304000,-0.08,4.29,9.19
58762712292000,-0.11,4.21,9.19
58762762341000,-0.15,4.21,9.28
58762812328000,-0.19,4.14,9.23
58762862347000,-0.23,4.06,9.3
58762922283000,-0.23,4.02,9.28
58762982281000,-0.19,4.14,9.28
58763032330000,-0.11,4.21,9.23
58763082317000,-0.11,4.25,9.19
58763132305000,-0.08,4.21,9.19
58763182293000,-0.04,4.18,9.19
58763232342000,-0.08,4.18,9.23
58763282299000,-0.19,4.18,9.3
58763332348000,-0.15,4.21,9.28
58763382336000,-0.11,4.25,9.23
58763432324000,-0.08,4.14,9.19
58763482342000,-0.11,4.18,9.23
58763532330000,-0.15,4.14,9.28
58763582317000,-0.19,4.14,9.23
58763632336000,-0.08,4.25,9.3
58763682293000,-0.04,4.25,9.19
58763732342000,-0.08,4.18,9.19
58763782299000,-0.04,4.18,9.23
58763832348000,-0.11,4.14,9.3
58763882336000,-0.15,4.21,9.23
58763932324000,-0.19,4.18,9.23
58763982342000,-0.15,4.14,9.28
58764032299000,-0.15,4.21,9.19
58764082317000,-0.11,4.25,9.19
58764132336000,-0.08,4.21,9.28
58764182293000,-0.15,4.1,9.28
58764232342000,-0.27,4.06,9.34
58764282330000,-0.19,4.14,9.3
58764332348000,-0.11,4.21,9.23
58764382305000,-0.11,4.21,9.19
58764432293000,-0.15,4.14,9.19
58764482342000,-0.23,4.06,9.3
58764532299000,-0.23,4.14,9.34
58764582317000,-0.19,4.14,9.23
58764632305000,-0.19,4.14,9.28
58764682324000,-0.15,4.18,9.23
58764732342000,-0.11,4.21,9.19
58764782299000,-0.08,4.25,9.19
58764832348000,-0.19,4.14,9.28
58764832348000,-0.19,4.14,9.28
58764932293000,-0.15,4.18,9.23
58764982342000,-0.08,4.33,9.11
58765032330000,-0.11,4.29,9.15
58765082867000,-0.19,4.18,9.28
58765132305000,-0.23,4.18,9.34
58765182324000,-0.08,4.21,9.23
58765232342000,-0.04,4.33,9.15
58765282238000,-0.08,4.25,9.15
58765332348000,-0.15,4.18,9.23
58765382305000,-0.15,4.21,9.28
58765452343000,-0.11,4.21,9.23
58765452343000,-0.11,4.21,9.23
58765552319000,-0.15,4.21,9.28
58765602276000,-0.11,4.25,9.19
58765652264000,-0.08,4.18,9.19
58765702282000,-0.08,4.18,9.23
58765752300000,-0.11,4.21,9.19
58765802319000,-0.08,4.29,9.15
58765852276000,-0.11,4.14,9.15
58765902294000,-0.19,4.18,9.23
58765952282000,-0.11,4.18,9.28
58766002422000,-0.11,4.18,9.19
58766002422000,-0.11,4.18,9.19
58766102306000,-0.11,4.21,9.28
58766152294000,-0.04,4.33,9.19
58766252300000,-0.08,4.25,9.11
58766302288000,-0.08,4.37,9.11
58766352306000,-0.04,4.4,9.15
58766402294000,-0.15,4.21,9.19
58766452313000,-0.23,4.21,9.23
58766502300000,-0.15,4.33,9.23
58766552288000,-0.15,4.37,9.23
58766602306000,-0.11,4.44,9.11
58766702313000,-0.04,4.37,9.15
58766752300000,-0.19,4.25,9.23
58766802319000,-0.11,4.21,9.19
58766902294000,-0.08,4.33,9.15
58766952313000,-0.11,4.33,9.04
58767002300000,-0.04,4.44,9.04
58767052319000,0.11,4.48,8.96
58767102306000,-0.04,4.33,9.08
58767152325000,-0.38,4.18,9.28
58767202313000,-0.42,4.29,9.23
58767252300000,-0.38,4.37,9.28
58767302288000,-0.11,4.37,9.15
58767352276000,0.08,4.37,9.04
58767402294000,0.04,4.4,9.08
58767452374000,-0.08,4.37,9.11
58767502270000,-0.04,4.37,9.11
58767552319000,-0.08,4.29,9.19
58767602306000,-0.08,4.44,9.11
58767652264000,-0.08,4.37,9.19
58767702313000,-0.04,4.4,9.11
58767752300000,0.11,4.44,9.04
58767802319000,-0.11,4.37,9.08
58767852306000,-0.3,4.33,9.11
58767902294000,-0.34,4.29,9.19
58767952282000,-0.11,4.29,9.15
58768002606000,-0.08,4.33,9.19
58768052319000,-0.08,4.4,9.11
58768102276000,-0.04,4.4,9.11
58768152264000,-0.04,4.37,9.08
58768202313000,0.08,4.37,9.08
58768252300000,-0.19,4.25,9.28
58768302319000,-0.15,4.37,9.23
58768352276000,0.04,4.37,9.11
58768402264000,-0.08,4.25,9.11
58768452313000,-0.11,4.29,9.15
58768502270000,-0.15,4.29,9.19
58768552319000,-0.23,4.18,9.28
58768602306000,-0.11,4.29,9.19
58768652294000,0.31,4.4,9.04
58768702313000,0.19,4.33,9.08
58768752300000,-0.08,4.37,9.15
58768802319000,-0.3,4.18,9.28
58768852306000,-0.42,4.06,9.34
58768902294000,-0.19,4.14,9.3
58768952313000,0.08,4.29,9.15
58769002300000,0.11,4.29,9.04
58769052319000,-0.08,4.25,9.15
58769102306000,-0.23,4.18,9.3
58769152264000,-0.38,4.14,9.3
58769202313000,-0.15,4.21,9.19
58769252300000,0.11,4.29,9.08
58769352337000,-0.15,4.21,9.23
58769402294000,-0.34,4.1,9.28
58769452313000,-0.3,4.14,9.34
58769502300000,-0.04,4.25,9.19
58769552319000,0.04,4.29,9.11
58769602306000,-0.08,4.25,9.23
58769652294000,-0.19,4.18,9.28
58769652294000,-0.19,4.18,9.28
58769752300000,-0.11,4.21,9.15
58769802349000,0.04,4.33,9.11
58769852306000,-0.04,4.29,9.19
58769852306000,-0.04,4.29,9.19
58769911816000,-0.11,4.18,9.28
58769972363000,-0.19,4.21,9.28
58770022350000,-0.15,4.21,9.28
58770072308000,-0.08,4.21,9.23
58770132244000,-0.08,4.18,9.23
58770182293000,-0.08,4.21,9.28
58770232342000,-0.11,4.25,9.19
58770282238000,-0.15,4.25,9.23
58770332317000,-0.11,4.25,9.23
58770382305000,-0.08,4.18,9.23
58770432324000,-0.08,4.21,9.15
58770500286000,-0.08,4.25,9.23
58770552319000,-0.11,4.21,9.28
58770602306000,-0.08,4.21,9.19
58770652264000,-0.04,4.29,9.19
58770702282000,-0.08,4.25,9.19
58770752270000,-0.08,4.21,9.23
58770802319000,-0.19,4.18,9.28
58770852306000,-0.11,4.21,9.23
58770902294000,-0.04,4.25,9.19
58770952282000,-0.04,4.25,9.23
58771002270000,-0.08,4.25,9.23
58771002270000,-0.08,4.25,9.23
58771102276000,-0.08,4.25,9.19
58771152264000,-0.08,4.25,9.28
58771202282000,-0.11,4.25,9.28
58771302288000,0.04,4.25,9.15
58771352276000,0.04,4.21,9.23
58771402264000,-0.15,4.21,9.28
58771452282000,-0.15,4.25,9.3
58771502331000,-0.04,4.18,9.23
58771552288000,-0.04,4.21,9.11
58771702343000,-0.08,4.33,9.15
58771752270000,-0.08,4.21,9.23
58771802319000,-0.04,4.18,9.28
58771852306000,-0.08,4.21,9.15
58771902264000,-0.08,4.21,9.23
58771952313000,-0.04,4.25,9.19
58772002606000,-0.04,4.21,9.28
58772052288000,-0.08,4.18,9.28
58772102306000,-0.04,4.25,9.28
58772152294000,-0.04,4.29,9.23
58772202282000,-0.04,4.29,9.19
58772252270000,-0.04,4.21,9.15
58772302288000,-0.08,4.21,9.23
58772352306000,-0.04,4.25,9.11
58772402294000,0.08,4.21,9.19
58772452313000,-0.19,4.18,9.34
58772502300000,-0.23,4.21,9.28
58772552319000,-0.04,4.29,9.15
58772602306000,0.04,4.33,9.08
58772652294000,-0.08,4.25,9.23
58772702313000,-0.19,4.1,9.34
58772752270000,-0.19,4.18,9.3
58772802319000,-0.11,4.21,9.23
58772852306000,-0.08,4.25,9.19
58772902264000,-0.04,4.25,9.23
58772952282000,-0.04,4.25,9.15
58773002270000,-0.08,4.25,9.23
58773052288000,-0.11,4.25,9.28
58773102337000,-0.11,4.29,9.19
58773152264000,-0.11,4.25,9.15
58773152264000,-0.11,4.25,9.15
58773252270000,-0.11,4.25,9.23
58773302288000,-0.11,4.29,9.15
58773352306000,-0.08,4.25,9.23
58773402294000,-0.11,4.21,9.19
58773452282000,-0.11,4.25,9.15
58773502270000,-0.15,4.29,9.15
58773552319000,-0.08,4.25,9.19
58773602337000,-0.15,4.21,9.28
58773652294000,-0.11,4.25,9.23
58773702313000,-0.11,4.29,9.23
58773752270000,-0.08,4.29,9.19
58773802319000,-0.11,4.25,9.19
58773852276000,-0.11,4.25,9.23
58773902294000,-0.15,4.21,9.23
58773952282000,-0.11,4.21,9.15
58774002544000,-0.08,4.25,9.19
58774052288000,-0.08,4.25,9.23
58774102337000,-0.15,4.21,9.19
58774152264000,-0.11,4.21,9.28
58774202343000,-0.15,4.18,9.19
58774252270000,-0.08,4.25,9.19
58774302288000,-0.11,4.25,9.15
58774352276000,-0.11,4.21,9.23
58774402264000,-0.08,4.21,9.28
58774452282000,-0.08,4.21,9.19
58774502575000,-0.08,4.21,9.28
58774552288000,-0.08,4.21,9.19
58774602306000,-0.11,4.25,9.19
58774652264000,-0.11,4.29,9.19
58774802288000,-0.04,4.21,9.19
58774852306000,-0.04,4.25,9.11
58774902264000,-0.04,4.29,9.23
58774952313000,-0.11,4.21,9.28
58775002300000,-0.08,4.18,9.23
58775052319000,-0.11,4.14,9.28
58775102276000,-0.11,4.14,9.23
58775152294000,-0.08,4.21,9.19
58775202313000,-0.04,4.25,9.15
58775252300000,-0.08,4.21,9.23
58775302288000,-0.08,4.18,9.28
58775352306000,-0.08,4.18,9.23
58775402264000,-0.04,4.21,9.23
58775452282000,-0.04,4.21,9.19
58775502270000,-0.11,4.21,9.23
58775552288000,-0.11,4.18,9.19
58775602306000,-0.04,4.21,9.19
58775652264000,-0.04,4.25,9.23
58775702282000,-0.08,4.21,9.23
58775752270000,-0.04,4.21,9.28
58775802319000,-0.11,4.18,9.3
58775852276000,-0.11,4.21,9.23
58775902264000,-0.11,4.21,9.28
58775952313000,-0.04,4.25,9.19
58775952313000,-0.04,4.25,9.19
58776102276000,-0.04,4.21,9.23
58776152264000,-0.11,4.21,9.28
58776202313000,-0.08,4.25,9.23
58776252300000,-0.04,4.18,9.19
58776302288000,-0.11,4.18,9.15
58776352276000,-0.08,4.21,9.15
58776402294000,-0.11,4.18,9.19
58776452282000,-0.08,4.18,9.19
58776502300000,-0.04,4.25,9.15
58776552288000,-0.08,4.21,9.15
58776602276000,-0.08,4.21,9.28
58776652264000,-0.08,4.18,9.23
58776702313000,-0.19,4.1,9.38
58776752270000,-0.23,4.1,9.34
58776802319000,-0.15,4.18,9.28
58776852306000,-0.08,4.25,9.15
58776902294000,-0.04,4.25,9.23
58776952282000,-0.08,4.25,9.19
58777002300000,-0.04,4.25,9.15
58777052288000,-0.08,4.37,9.15
58777152264000,-0.08,4.33,9.15
58777202343000,-0.11,4.25,9.19
58777252270000,-0.08,4.29,9.19
58777302288000,-0.08,4.25,9.23
58777352276000,-0.08,4.29,9.28
58777402264000,-0.08,4.33,9.15
58777452282000,-0.04,4.33,9.15
58777502300000,-0.08,4.21,9.19
58777552319000,-0.15,4.18,9.23
58777602306000,-0.11,4.21,9.23
58777652294000,-0.08,4.29,9.15
58777702282000,-0.04,4.29,9.15
58777752300000,-0.08,4.21,9.19
58777802319000,-0.11,4.25,9.23
58777852306000,-0.08,4.18,9.15
58777902294000,-0.11,4.21,9.23
58777952282000,-0.11,4.21,9.19
58778002483000,-0.11,4.21,9.28
58778052319000,-0.11,4.21,9.23
58778102306000,-0.08,4.25,9.19
58778212261000,-0.04,4.25,9.15
58778262341000,-0.08,4.33,9.15
58778312328000,-0.04,4.21,9.19
58778362377000,-0.11,4.06,9.28
58778412304000,-0.15,4.14,9.28
58778462322000,-0.11,4.21,9.23
58778512310000,-0.08,4.25,9.23
58778562298000,-0.04,4.21,9.23
58778612316000,-0.04,4.21,9.19
58778662335000,-0.11,4.14,9.3
58778712322000,-0.08,4.18,9.19
58778762310000,-0.11,4.18,9.28
58778812328000,-0.08,4.14,9.28
58778862316000,-0.08,4.18,9.28
58778862316000,-0.08,4.18,9.28
58778962292000,-0.11,4.18,9.19
58779012310000,-0.11,4.18,9.28
58779062420000,-0.11,4.18,9.19
58779112347000,-0.08,4.18,9.23
58779162304000,-0.04,4.18,9.19
58779212353000,-0.08,4.18,9.3
58779262341000,-0.19,4.1,9.3
58779312328000,-0.11,4.14,9.28
58779362347000,-0.04,4.25,9.15
58779412335000,-0.04,4.21,9.23
58779462353000,-0.11,4.14,9.28
58779512310000,-0.15,4.14,9.23
58779562298000,-0.15,4.14,9.28
58779612347000,-0.11,4.14,9.15
58779662304000,-0.08,4.14,9.28
58779662304000,-0.08,4.14,9.28
58779762310000,-0.11,4.14,9.23
58779812389000,-0.11,4.18,9.23
58779862652000,-0.08,4.18,9.23
58779912335000,-0.04,4.21,9.3
58779962322000,-0.15,4.25,9.3
58780012280000,-0.11,4.37,9.3
58780062328000,-0.15,4.18,9.23
58780112347000,0.19,4.33,9.0
58780162335000,0.5,3.95,8.89
58780212322000,0.23,3.99,9.04
58780262310000,0.19,4.06,9.11
58780312328000,0.11,4.06,9.15
58780362347000,-0.04,3.99,9.3
58780412304000,-0.15,4.06,9.3
58780462322000,-0.53,4.1,9.51
58780512371000,-0.84,3.95,9.47
58780562298000,-0.95,3.72,9.47
58780612347000,-0.72,3.76,9.47
58780662335000,-0.76,3.87,9.43
58780712322000,-0.61,3.99,9.43
58780822125000,-0.23,3.99,9.43
58780822125000,-0.23,3.99,9.43
58780872265000,-0.34,3.95,9.51
58780922436000,-0.23,3.91,9.3
58780972302000,-0.34,3.57,9.34
58781022350000,-0.42,3.3,9.43
58781082256000,-0.46,3.17,9.43
58781132336000,-0.72,3.15,9.81
58781182324000,-0.57,3.21,9.66
58781232342000,-0.72,3.49,9.58
58781282238000,-0.65,3.64,9.62
58781332317000,-0.53,3.64,9.47
58781382275000,-0.42,3.64,9.47
58781432324000,-0.5,3.68,9.51
58781482342000,-0.38,3.79,9.43
58781532299000,-0.38,3.76,9.47
58781582317000,-0.38,3.83,9.51
58781632305000,-0.38,3.83,9.47
58781682324000,-0.3,3.83,9.43
58781732311000,-0.3,3.76,9.3
58781782330000,-0.34,3.64,9.47
58781832378000,-0.38,3.68,9.43
58781882336000,-0.46,3.72,9.47
58781932293000,-0.42,3.83,9.47
58781982342000,-0.38,3.87,9.47
58782032330000,-0.3,3.83,9.43
58782082287000,-0.34,3.87,9.43
58782132336000,-0.3,3.83,9.38
58782182324000,-0.38,3.72,9.47
58782232342000,-0.3,3.64,9.43
58782282299000,-0.38,3.72,9.43
58782332348000,-0.42,3.79,9.47
58782382336000,-0.34,3.91,9.38
58782432324000,-0.3,3.99,9.43
58782482311000,-0.3,4.06,9.43
58782532330000,-0.38,4.18,9.53
58782582287000,-0.04,4.52,9.53
58782632336000,0.23,4.33,9.23
58782682324000,0.15,3.91,8.81
58782782330000,0.23,3.3,9.04
58782832348000,0.11,3.06,9.11
58782882336000,-0.99,2.53,10.61
58782932324000,-0.34,3.64,9.7
58782982342000,-0.04,3.72,9.34
58783032330000,-0.42,3.68,9.58
58783082348000,-0.89,4.02,9.43
58783132336000,-0.91,3.91,9.38
58783182324000,-1.12,3.57,9.34
58783232342000,-1.46,3.38,9.53
58783282330000,-1.8,3.34,9.62
58783332378000,-1.92,3.26,9.7
58783382336000,-1.65,3.41,9.38
58783432324000,-1.95,2.98,9.58
58783482342000,-2.18,2.96,9.72
58783532330000,-1.65,3.76,9.62
58783592236000,-0.76,3.76,9.34
58783642315000,-0.53,3.76,9.43
58783692333000,-0.42,3.83,9.28
58783742352000,-0.84,3.91,9.19
58783792309000,-0.76,4.14,9.19
58783842327000,-0.76,3.91,9.34
58783892346000,-1.31,3.79,9.43
58783942303000,-1.5,3.57,9.43
58783992291000,-1.65,3.41,9.47
58784042339000,-1.69,3.34,9.62
58784092297000,-1.5,3.38,9.53
58784142346000,-1.18,3.49,9.47
58784192303000,-1.04,3.57,9.47
58784242321000,-0.99,3.6,9.38
58784292309000,-1.14,3.6,9.43
58784342327000,-1.27,3.57,9.53
58784392315000,-1.42,3.49,9.47
58784442272000,-1.42,3.49,9.51
58784492291000,-1.33,3.57,9.51
58784542309000,-1.27,3.57,9.43
58784592297000,-1.23,3.53,9.47
58784642315000,-1.27,3.53,9.51
58784642315000,-1.27,3.53,9.51
58784742260000,-1.27,3.49,9.51
58784792309000,-1.31,3.53,9.47
58784842297000,-1.31,3.57,9.43
58784892346000,-1.27,3.53,9.47
58784892346000,-1.27,3.53,9.47
58784992291000,-1.31,3.49,9.43
58785042339000,-1.27,3.53,9.51
58785092480000,-1.27,3.53,9.47
58785142315000,-1.31,3.53,9.43
58785142315000,-1.31,3.53,9.43
58785242291000,-1.27,3.57,9.43
58785302258000,-1.27,3.53,9.47
58785302258000,-1.27,3.53,9.47
58785402264000,-1.27,3.6,9.43
58785452313000,-1.31,3.53,9.51
58785502270000,-1.27,3.57,9.51
58785552319000,-1.33,3.53,9.47
58785602306000,-1.33,3.49,9.43
58785652294000,-1.31,3.53,9.47
58785702282000,-1.31,3.57,9.43
58785752270000,-1.31,3.57,9.51
58785802319000,-1.42,3.53,9.47
58785802319000,-1.42,3.53,9.47
58785872326000,-1.33,3.57,9.38
58785922314000,-1.5,3.53,9.51
58785972332000,-1.46,3.53,9.43
58786032269000,-1.46,3.53,9.47
58786082317000,-1.33,3.57,9.51
58786132305000,-1.33,3.49,9.47
58786182293000,-1.27,3.49,9.43
58786232342000,-1.38,3.45,9.38
58786282452000,-1.46,3.57,9.43
58786332317000,-1.57,3.45,9.43
58786382366000,-2.07,3.34,9.47
58786432324000,-1.99,3.53,9.38
58786482342000,-1.61,3.49,9.43
58786532330000,-1.5,3.64,9.51
58786582317000,-1.23,3.53,9.43
58786632305000,-1.23,3.41,9.43
58786682293000,-1.14,3.41,9.51
58786732342000,-1.18,3.45,9.47
58786782299000,-1.27,3.49,9.47
58786832348000,-1.33,3.57,9.43
58786882336000,-1.42,3.53,9.43
58786882336000,-1.42,3.53,9.43
58786982311000,-1.5,3.45,9.47
58787032299000,-1.46,3.49,9.47
58787082287000,-1.5,3.53,9.47
58787132336000,-1.38,3.49,9.43
58787182293000,-1.33,3.53,9.43
58787232311000,-1.31,3.45,9.43
58787282299000,-1.31,3.49,9.47
58787332317000,-1.31,3.49,9.43
58787382305000,-1.31,3.49,9.47
58787432263000,-1.33,3.49,9.47
58787482281000,-1.33,3.49,9.43
58787532330000,-1.42,3.49,9.47
58787582287000,-1.38,3.49,9.43
58787632305000,-1.42,3.49,9.51
58787682293000,-1.33,3.49,9.43
58787732342000,-1.31,3.45,9.51
58787782299000,-1.31,3.49,9.47
58787832317000,-1.38,3.49,9.43
58787882336000,-1.31,3.53,9.51
58787932324000,-1.33,3.49,9.43
58787932324000,-1.33,3.49,9.43
58788032269000,-1.33,3.49,9.51
58788082287000,-1.31,3.49,9.43
58788132305000,-1.38,3.53,9.43
58788182354000,-1.33,3.49,9.47
58788232342000,-1.31,3.53,9.51
58788282330000,-1.38,3.49,9.47
58788332317000,-1.38,3.45,9.43
58788382305000,-1.38,3.49,9.47
58788432293000,-1.38,3.53,9.47
58788482342000,-1.31,3.49,9.47
58788552288000,-1.31,3.49,9.47
58788602276000,-1.38,3.45,9.51
58788652325000,-1.38,3.53,9.47
58788702221000,-1.31,3.53,9.47
58788702221000,-1.31,3.53,9.47
58788802288000,-1.33,3.49,9.47
58788852276000,-1.33,3.49,9.43
58788852276000,-1.33,3.49,9.43
58788952282000,-1.33,3.53,9.38
58789002270000,-1.33,3.45,9.47
58789052288000,-1.31,3.53,9.47
58789102306000,-1.38,3.53,9.53
58789152264000,-1.33,3.53,9.47
58789202313000,-1.31,3.57,9.47
58789252300000,-1.27,3.53,9.38
58789302288000,-1.31,3.53,9.47
58789352306000,-1.33,3.49,9.51
58789402264000,-1.33,3.53,9.43
58789452313000,-1.38,3.49,9.51
58789502270000,-1.33,3.49,9.47
58789552288000,-1.38,3.49,9.47
58789602306000,-1.33,3.45,9.47
58789652264000,-1.31,3.53,9.47
58789702282000,-1.33,3.53,9.47
58789752300000,-1.33,3.49,9.47
58789802532000,-1.33,3.49,9.43
58789852276000,-1.33,3.49,9.47
58789852276000,-1.33,3.49,9.47
58789952282000,-1.31,3.53,9.43
58790002422000,-1.33,3.53,9.43
58790052288000,-1.33,3.53,9.47
58790102276000,-1.33,3.53,9.51
58790152264000,-1.33,3.49,9.47
58790202282000,-1.31,3.49,9.47
58790252270000,-1.31,3.57,9.51
58790252270000,-1.31,3.57,9.51
58790352276000,-1.33,3.49,9.51
58790402264000,-1.33,3.49,9.47
58790452313000,-1.31,3.53,9.47
58790502270000,-1.31,3.53,9.43
58790552258000,-1.31,3.53,9.47
58790602306000,-1.33,3.49,9.47
58790652264000,-1.33,3.49,9.43
58790702282000,-1.38,3.49,9.47
58790752300000,-1.31,3.57,9.43
58790752300000,-1.31,3.57,9.43
58790852276000,-1.27,3.53,9.51
58790902294000,-1.33,3.49,9.51
58790952282000,-1.33,3.53,9.38
58791002331000,-1.31,3.49,9.43
58791052288000,-1.31,3.53,9.47
58791102306000,-1.31,3.53,9.43
58791152294000,-1.38,3.49,9.47
58791202282000,-1.33,3.53,9.47
58791252239000,-1.33,3.53,9.51
58791302288000,-1.33,3.49,9.47
58791352276000,-1.31,3.53,9.47
58791352276000,-1.31,3.53,9.47
58791452282000,-1.33,3.49,9.47
58791502270000,-1.33,3.53,9.51
58791552288000,-1.33,3.49,9.47
58791602337000,-1.31,3.53,9.43
58791652233000,-1.31,3.53,9.38
58791702282000,-1.33,3.53,9.47
58791752300000,-1.31,3.57,9.51
58791802319000,-1.33,3.53,9.47
58791852276000,-1.31,3.53,9.47
58791902294000,-1.27,3.6,9.51
58791952282000,-1.31,3.53,9.51
58792002575000,-1.31,3.53,9.47
58792052288000,-1.33,3.53,9.51
58792102306000,-1.31,3.53,9.51
58792152264000,-1.31,3.53,9.47
58792202343000,-1.27,3.6,9.43
58792252300000,-1.38,3.53,9.47
58792302319000,-1.33,3.49,9.51
58792352306000,-1.31,3.49,9.43
58792402264000,-1.31,3.53,9.43
58792452282000,-1.33,3.53,9.43
58792502300000,-1.31,3.57,9.43
58792552288000,-1.33,3.53,9.43
58792602306000,-1.33,3.49,9.47
58792652264000,-1.33,3.57,9.47
58792702313000,-1.27,3.57,9.43
58792752300000,-1.33,3.49,9.47
58792802288000,-1.33,3.49,9.43
58792852276000,-1.33,3.53,9.43
58792902264000,-1.33,3.57,9.47
58792952282000,-1.33,3.57,9.51
58793002300000,-1.33,3.64,9.53
58793052319000,-1.27,3.72,9.08
58793102306000,-1.61,3.64,9.53
58793152264000,-1.5,3.38,9.53
58793202313000,-1.42,3.41,9.58
58793252300000,-1.46,3.49,9.51
58793302319000,-1.38,3.6,9.43
58793352337000,-1.69,3.64,9.7
58793402294000,-1.73,3.26,9.89
58793452313000,-1.38,3.02,9.53
58793502300000,-1.08,3.21,9.51
58793552319000,-0.3,3.72,9.15
58793552319000,-0.3,3.72,9.15
58793622295000,-0.3,3.64,9.11
58793672314000,-0.57,4.37,9.34
58793722332000,-1.04,4.25,9.81
58793782269000,-1.12,3.53,9.3
58793832348000,-0.91,2.87,9.51
58793882336000,-1.12,2.68,9.7
58793932324000,-1.18,2.96,9.72
58793982342000,-1.53,3.15,9.77
58794032330000,-1.31,3.06,9.62
58794082317000,-0.65,3.26,9.53
58794132336000,-0.84,3.45,9.81
58794182293000,-0.76,3.3,9.11
58794232342000,-0.91,3.72,9.58
58794282330000,-2.03,4.33,11.14
58794332348000,-1.33,3.99,11.96
58794382336000,0.72,6.7,10.46
58794432324000,1.23,5.9,9.53
58794482311000,1.23,6.36,8.54
58794532360000,0.93,6.28,8.16
58794582348000,1.12,7.12,7.82
58794632336000,0.99,8.08,6.93
58794682324000,0.76,7.89,6.44
58794732342000,0.69,6.78,5.05
58794782330000,1.14,5.79,4.75
58794832348000,2.6,7.67,4.02
58794882336000,-0.34,8.96,4.14
58794882336000,-0.34,8.96,4.14
58794984173000,0.61,8.96,3.34
58795042278000,1.5,9.23,3.76
58795092602000,0.99,9.89,3.95
58795142346000,2.11,9.47,3.45
58795192364000,2.49,9.58,3.49
58795242321000,0.72,8.66,4.18
58795292339000,0.34,7.63,4.06
58795342327000,1.92,7.89,2.79
58795392346000,1.33,8.01,3.21
58795442333000,0.31,9.04,3.64
58795492321000,1.04,9.72,3.53
58795542339000,2.07,9.96,3.99
58795592297000,1.31,9.34,3.21
58795642346000,0.65,9.08,2.49
58795692364000,0.93,9.34,3.38
58795742291000,0.93,9.77,3.6
58795792309000,0.72,9.77,3.76
58795842358000,0.93,9.38,3.68
58795892346000,1.12,9.15,3.72
58795942333000,1.04,9.08,3.45
58795992291000,0.93,8.92,3.76
58796042400000,0.69,9.3,4.1
58796092266000,0.69,9.43,4.18
58796142346000,0.72,9.34,3.87
58796192333000,0.76,9.34,3.87
58796242321000,0.69,9.15,3.68
58796292339000,0.89,9.23,3.53
58796342327000,0.69,9.28,3.41
58796392284000,0.42,9.38,3.95
58796452313000,0.42,9.38,3.95
58796502209000,0.42,9.3,3.95
58796552319000,0.57,9.3,3.79
58796602245000,0.57,9.28,3.76
58796652294000,0.46,9.23,3.68
58796702282000,0.53,9.3,3.68
58796752300000,0.65,9.34,3.64
58796802319000,0.57,9.43,3.64
58796852306000,0.53,9.51,3.83
58796902294000,0.61,9.34,3.79
58796952313000,0.5,9.08,3.79
58797002300000,0.76,9.15,3.49
58797052319000,0.72,9.15,3.76
58797102306000,0.38,9.11,4.18
58797152294000,0.42,9.08,3.87
58797202313000,0.61,8.89,3.06
58797252300000,1.08,8.96,2.76
58797302319000,1.12,9.81,2.87
58797352306000,1.33,11.56,3.6
58797402264000,1.23,10.99,3.6
58797452313000,0.11,8.5,2.72
58797502300000,-1.88,11.03,2.64
58797552319000,-2.41,9.0,1.54
58797602306000,-2.98,10.12,0.46
58797652294000,-1.92,10.08,2.76
58797702313000,-1.95,9.34,0.84
58797752300000,-2.34,9.04,1.27
58797802319000,-2.96,9.47,1.31
58797852306000,-3.02,9.38,1.69
58797902264000,-2.22,9.38,0.69
58797952313000,-2.14,9.3,1.08
58798002483000,-4.02,9.19,0.99
58798002483000,-4.02,9.19,0.99
58798062359000,-3.49,9.62,1.38
58798112408000,-1.65,9.47,1.14
58798162335000,-1.33,9.51,1.38
58798212322000,-2.64,9.66,0.95
58798262341000,-3.36,9.3,0.8
58798312328000,-2.49,9.19,0.5
58798362316000,-1.99,9.19,1.46
58798412335000,-3.3,10.12,0.38
58798462322000,-2.72,10.19,-0.95
58798512341000,-1.27,11.3,-0.72
58798562328000,-2.56,10.61,-1.12
58798612347000,-1.42,9.58,0.15
58798662335000,-2.22,8.47,0.65
58798712322000,-2.41,9.7,1.12
58798762341000,-1.88,11.26,0.69
58798812328000,-0.11,10.88,1.88
58798862347000,-0.19,9.43,2.83
58798912335000,-0.04,8.5,2.15
58798962353000,0.08,8.2,2.45
58799012280000,0.15,8.39,2.45
58799062328000,-0.04,9.15,2.03
58799112347000,0.38,10.42,2.07
58799162335000,1.8,10.95,1.5
58799212536000,0.61,9.96,7.89
58799262341000,-2.41,9.47,-0.15
58799312328000,-1.46,11.3,2.07
58799362347000,4.21,12.72,1.65
58799412335000,0.23,7.82,2.22
58799462322000,-2.56,10.95,0.31
58799512341000,-0.99,9.3,-2.34
58799562328000,-2.96,10.23,-1.23
58799612347000,-3.34,9.7,0.76
58799662335000,-2.53,9.23,-0.04
58799712292000,-1.46,9.04,-0.04
58799762341000,-2.03,9.28,-0.95
58799812328000,-2.87,10.53,1.14
58799862347000,-3.72,9.34,0.69
58799912335000,-2.91,9.51,-0.76
58799962353000,-2.64,9.62,0.5
58800012280000,-3.17,9.53,0.23
58800062328000,-3.26,9.38,-0.04
58800112347000,-1.65,9.43,0.15
58800162335000,-2.56,9.04,-0.15
58800212322000,-3.36,9.34,0.84
58800262310000,-3.26,8.89,0.99
58800312328000,-4.59,9.51,0.76
58800362347000,-4.75,11.35,-0.3
58800412365000,-4.18,10.76,-0.99
58800462322000,0.84,11.41,-0.19
58800512341000,0.08,7.74,-0.23
58800562328000,-1.33,11.37,0.93
58800612347000,-1.38,10.84,-1.04
58800662335000,-4.14,10.42,2.03
58800712322000,-2.14,10.27,2.49
58800762310000,0.27,7.44,2.49
58800812328000,-1.14,7.74,2.37
58800862347000,-0.5,7.67,3.34
58800912335000,-0.84,7.89,4.06
58800962322000,-0.69,8.31,5.41
58801012280000,-2.68,11.54,6.32
58801062328000,-1.61,9.38,5.6
58801112347000,-1.27,9.43,3.99
58801162335000,1.12,14.63,1.08
58801212322000,0.84,7.78,0.15
58801262310000,-1.5,10.5,-2.72
58801312328000,-2.49,9.77,1.27
58801362347000,-2.11,9.66,1.33
58801412335000,-1.8,8.96,0.19
58801462292000,-1.12,9.58,0.19
58801522320000,-2.98,9.34,2.03
58801582348000,-2.49,9.77,-0.5
58801632336000,-1.65,9.23,1.12
58801682873000,-2.49,9.15,1.04
58801732342000,-3.79,9.89,-0.04
58801782330000,-2.72,9.7,0.38
58801832653000,-1.73,10.23,1.27
58801882366000,-3.91,10.53,0.15
58801932324000,-5.9,12.15,-1.12
58801982372000,-1.23,12.07,-0.57
58802032360000,3.68,8.16,0.27
58802082348000,0.11,10.65,0.69
58802132397000,-5.13,13.72,2.37
58802182324000,-1.18,8.5,3.99
58802232342000,0.61,6.24,3.06
58802282330000,-0.38,6.21,2.98
58802332348000,0.23,6.13,3.45
58802382336000,-0.46,8.24,4.29
58802432324000,-0.95,12.6,6.51
58802482342000,-2.41,8.12,4.44
58802532330000,-2.07,13.18,3.6
58802582348000,2.87,10.15,1.08
58802632336000,-0.95,10.19,-1.69
58802682324000,-2.45,9.34,0.27
58802732342000,-2.53,10.15,1.76
58802782330000,-2.37,9.7,1.61
58802832348000,-2.22,8.89,0.8
58802882336000,-2.75,9.11,0.8
58802932324000,-3.02,9.7,1.04
58802982342000,-2.3,9.38,0.99
58803032330000,-2.75,10.04,-0.89
58803082348000,-2.03,10.0,0.72
58803132336000,-1.5,9.7,0.72
58803182324000,-1.14,9.66,0.15
58803232342000,-2.14,10.0,-0.15
58803282330000,-1.53,9.72,0.8
58803332348000,-1.42,9.77,0.34
58803382336000,-2.34,10.04,0.19
58803432324000,-1.73,9.85,0.38
58803482342000,-1.46,9.89,0.5
58803532330000,-1.84,9.85,0.46
58803582348000,-1.73,9.77,0.42
58803632336000,-1.57,9.81,0.19
58803682354000,-1.42,9.85,0.15
58803732342000,-1.46,9.81,0.15
58803782330000,-1.5,9.85,0.31
58803832348000,-1.57,9.81,0.38
58803882366000,-1.88,9.81,0.46
58803932354000,-1.76,9.89,0.46
58803982372000,-1.73,9.81,0.38
58804052380000,-1.73,9.89,0.34
58804102276000,-1.61,9.81,0.23
58804152325000,-1.65,9.89,0.19
58804202313000,-1.61,9.85,0.23
58804252300000,-1.61,9.77,0.15
58804302319000,-1.61,9.81,0.19
58804352306000,-1.69,9.77,0.15
58804402294000,-1.69,9.81,0.19
58804452313000,-1.61,9.77,0.23
58804502300000,-1.61,9.92,0.19
58804552319000,-1.57,9.81,0.19
58804602337000,-1.61,9.85,0.15
58804652294000,-1.57,9.81,0.15
58804702313000,-1.46,9.89,0.15
58804752270000,-1.5,9.89,0.15
58804802319000,-1.61,9.89,0.11
58804852306000,-1.5,9.85,0.27
58804902294000,-1.5,9.89,0.23
58804952282000,-1.5,9.85,0.23
58805002300000,-1.38,9.81,0.31
58805052319000,-1.38,9.77,0.38
58805102551000,-1.42,9.89,0.5
58805152294000,-1.31,9.92,0.69
58805202252000,-1.18,9.72,0.8
58805252300000,-1.04,9.7,1.18
58805252300000,-1.04,9.7,1.18
58805312359000,-0.84,9.38,1.92
58805362347000,-1.5,10.12,1.69
58805412365000,-1.12,9.89,3.15
58805462322000,-0.69,9.66,2.53
58805512341000,-0.53,9.62,2.22
58805562359000,-0.65,9.58,1.76
58805612347000,-0.57,9.7,1.76
58805662335000,-0.76,10.04,2.15
58805712322000,-1.04,10.08,2.03
58805762371000,-1.12,9.92,1.99
58805812328000,-0.99,9.81,1.92
58805862347000,-0.95,9.77,1.8
58805912335000,-1.31,9.81,1.57
58805962353000,-0.99,9.72,1.95
58806012310000,-0.76,9.62,1.84
58806062328000,-1.08,9.53,1.88
58806112377000,-1.27,9.77,1.8
58806162335000,-1.04,9.96,1.8
58806212322000,-0.84,10.0,1.69
58806262371000,-1.04,9.85,1.65
58806312328000,-1.18,9.77,1.54
58806362377000,-1.14,9.72,1.46
58806412335000,-1.38,10.19,1.57
58806462353000,-1.23,9.85,1.73
58806512341000,-1.23,9.62,1.31
58806562328000,-1.38,9.77,1.08
58806612377000,-1.31,9.81,1.46
58806662335000,-1.38,9.77,1.14
58806712414000,-1.33,9.81,1.23
58806762341000,-1.33,9.77,1.31
58806812359000,-1.33,9.72,1.18
58806862347000,-1.33,9.85,1.27
58806912335000,-1.42,9.81,1.23
58806962353000,-1.42,9.89,1.18
58807012310000,-1.38,9.85,1.12
58807062359000,-1.31,9.81,1.08
58807112347000,-1.27,9.81,1.18
58807162426000,-1.38,9.81,1.14
58807212322000,-1.38,9.81,1.18
58807262341000,-1.42,9.89,1.23
58807312328000,-1.31,9.92,1.14
58807362347000,-1.14,9.96,1.12
58807412365000,-1.12,9.96,1.08
58807462322000,-0.89,9.96,0.93
58807512341000,-0.76,9.81,0.89
58807562328000,-0.76,10.08,0.5
58807612377000,-1.04,10.04,0.84
58807662365000,-1.23,9.7,0.89
58807712383000,-1.5,10.0,0.8
58807762371000,-1.31,10.04,0.95
58807812328000,-1.08,10.04,1.38
58807862347000,-1.04,9.89,1.54
58807912396000,-1.27,9.77,1.12
58807962353000,-0.76,9.81,1.23
58808012341000,-0.04,10.04,1.61
58808112408000,0.31,9.7,0.93
58808162396000,0.11,9.72,0.69
58808212383000,0.23,9.77,0.65
58808262371000,0.27,9.89,0.8
58808312359000,0.27,10.19,0.65
58808362377000,0.15,10.08,0.53
58808412396000,0.27,9.92,0.38
58808462353000,0.27,9.89,0.31
58808512341000,-0.04,9.96,0.5
58808562359000,0.11,10.12,0.42
58808612347000,0.19,10.08,0.42
58808662365000,0.19,10.0,0.31
58808712383000,0.08,9.85,0.53
58808762310000,-0.04,9.85,0.53
58808862347000,0.08,10.04,0.69
58808912335000,0.04,9.92,0.72
58808962353000,0.08,9.81,0.69
58809012280000,-0.08,9.89,0.89
58809062328000,-0.08,9.92,0.84
58809122326000,-0.11,10.04,0.89
58809232342000,0.19,10.04,1.54
58809282330000,-0.15,9.72,0.93
58809332348000,-0.11,9.89,1.99
58809382336000,0.53,9.51,1.73
58809432324000,-0.15,9.7,1.84
58809532360000,-0.42,9.81,3.21
58809582348000,-0.84,10.0,1.69
58809632336000,-1.04,10.12,1.12
58809682324000,-0.08,9.81,1.65
58809732342000,-0.08,9.7,1.5
58809782330000,-0.72,9.77,0.95
58809832378000,-0.84,9.96,1.61
58809882336000,-0.65,10.0,1.61
58809932324000,-0.42,9.92,1.54
58809982372000,-0.61,9.85,1.57
58810032330000,-0.76,9.89,1.57
58810082317000,-0.76,9.85,1.57
58810132366000,-0.69,9.77,1.76
58810182354000,-0.84,9.7,1.8
58810232342000,-0.89,9.72,1.88
58810282269000,-0.89,9.81,1.8
58810332348000,-0.8,9.89,1.95
58810382305000,-0.8,9.81,1.95
58810432293000,-0.84,9.81,1.95
58810482372000,-0.76,9.77,1.99
58810532299000,-0.76,9.72,1.99
58810582348000,-0.8,9.7,1.95
58810632336000,-0.84,9.85,1.95
58810632336000,-0.84,9.85,1.95
58810732342000,-0.8,9.72,2.03
58810782330000,-0.72,9.81,1.95
58810832378000,-0.8,9.77,1.95
58810882305000,-0.8,9.77,1.99
58810932324000,-0.84,9.77,2.03
58810982311000,-0.76,9.77,1.95
58811032299000,-0.84,9.77,1.88
58811082317000,-0.76,9.77,1.95
58811132305000,-0.8,9.81,1.95
58811182690000,-0.72,9.85,1.92
58811232342000,-0.76,9.77,1.95
58811282238000,-0.89,9.72,1.99
58811332317000,-0.89,9.72,1.92
58811382336000,-0.84,9.81,1.95
58811432293000,-0.8,9.81,1.99
58811482311000,-0.84,9.77,1.99
58811532330000,-0.89,9.81,1.92
58811582317000,-0.89,9.77,1.95
58811632305000,-0.84,9.77,1.99
58811682263000,-0.84,9.81,1.99
58811752300000,-0.89,9.77,1.99
58811802258000,-0.89,9.77,2.03
58811852306000,-0.91,9.77,2.07
58811902233000,-0.91,9.81,1.99
58811952282000,-0.91,9.81,2.03
58812002483000,-0.95,9.81,2.03
58812052288000,-0.95,9.89,1.99
58812102306000,-0.91,9.89,1.95
58812152264000,-0.8,9.58,1.95
58812202313000,-0.76,9.47,1.84
58812252300000,-0.72,9.43,1.99
58812302319000,-0.99,9.58,2.34
58812352306000,-0.76,9.96,2.3
58812402264000,-0.8,9.96,2.22
58812452313000,-0.89,10.04,2.18
58812502300000,-0.72,9.89,2.26
58812552288000,-0.72,9.7,2.22
58812602337000,-1.08,9.66,2.18
58812652294000,-0.91,9.72,2.11
58812702313000,-0.69,9.51,2.45
58812752300000,-0.95,9.77,2.79
58812802319000,-0.89,9.81,2.53
58812852306000,-0.91,9.43,2.41
58812902325000,-0.5,9.19,1.92
58812952313000,-0.76,9.47,1.99
58813002300000,-1.04,9.77,1.69
58813052319000,-0.72,10.31,1.12
58813102337000,-0.89,10.57,1.46
58813152294000,-1.5,10.15,1.88
58813202313000,-1.18,9.62,0.93
58813252300000,-1.65,9.7,1.27
58813302349000,-2.03,10.31,0.15
58813352306000,-1.99,9.89,0.93
58813402294000,-1.04,9.47,0.27
58813452313000,-1.38,9.7,0.31
58813502300000,-1.88,9.47,0.53
58813552349000,-1.76,9.51,0.61
58813602459000,-2.37,9.92,0.69
58813652264000,-2.45,9.92,0.5
58813702313000,-2.96,10.15,1.08
58813752300000,-3.17,9.7,0.46
58813802319000,-2.53,9.38,0.23
58813852306000,-2.11,9.58,0.65
58813902294000,-2.6,9.53,0.38
58813952313000,-2.64,9.53,0.15
58814002544000,-2.11,9.47,0.11
58814052319000,-1.88,9.53,-0.38
58814152294000,-1.14,9.89,0.46
58814202313000,-0.27,8.85,1.33
58814252300000,-2.41,9.43,3.3
58814302319000,-3.53,10.27,3.72
58814352306000,-0.15,10.04,3.38
58814402325000,-0.53,9.23,3.26
58814452313000,-0.91,8.66,3.53
58814502300000,-2.53,9.47,5.05
58814552319000,-1.57,9.23,5.22
58814602337000,0.69,8.12,3.6
58814652264000,0.69,8.2,2.87
58814702313000,0.27,9.58,3.45
58814752300000,1.42,9.81,3.3
58814802319000,0.8,10.04,3.41
58814852306000,0.04,13.06,2.76
58814902294000,-1.95,7.74,4.86
58814952313000,-1.5,10.42,-0.53
58815002300000,-0.69,9.58,-0.08
58815052319000,-1.42,9.28,-0.42
58815102612000,-1.31,10.8,-1.14
58815152294000,-3.34,9.96,2.45
58815202313000,-3.17,9.11,0.46
58815252300000,-1.84,9.51,0.34
58815302319000,-1.18,9.81,1.38
58815352306000,-1.95,9.77,1.73
58815402294000,-2.75,9.58,1.14
58815452343000,-2.34,9.53,1.42
58815502300000,-2.07,9.72,1.88
58815552319000,-2.26,9.66,1.99
58815602306000,-3.02,9.3,2.22
58815652294000,-2.75,9.7,0.04
58815702313000,-2.03,11.88,-1.92
58815752300000,-0.19,11.54,-0.84
58815802319000,-0.46,8.85,0.65
58815852306000,-2.26,7.86,1.08
58815852306000,-2.26,7.86,1.08
58815912304000,-1.73,10.99,1.69
58815962322000,-1.33,10.99,1.73
58816012280000,-1.73,10.0,2.72
58816062328000,-1.08,9.28,2.41
58816112591000,0.08,8.31,2.76
58816162335000,0.04,9.11,2.96
58816262310000,-0.04,8.81,3.11
58816312328000,-0.38,7.97,3.53
58816362347000,-1.23,8.35,2.98
58816412335000,-0.34,11.75,2.87
58816462322000,0.42,11.5,2.26
58816512341000,-0.8,10.27,0.31
58816562328000,-2.53,10.19,-0.08
58816612347000,-1.73,9.53,0.38
58816662335000,-2.26,9.08,-0.23
58816712322000,-0.61,9.0,-1.99
58816762341000,0.15,11.88,0.76
58816822369000,-4.33,9.53,2.18
58816882305000,-2.6,9.77,-0.91
58816932324000,-1.99,9.62,0.53
58816982342000,-1.42,9.89,1.23
58817032330000,-1.92,9.96,0.5
58817082378000,-2.45,9.85,0.04
58817132305000,-2.3,9.85,0.34
58817182324000,-1.73,9.53,0.31
58817232311000,-2.3,9.89,0.31
58817282330000,-1.88,9.77,0.15
58817332317000,-1.88,9.58,0.34
58817382336000,-2.14,9.92,1.46
58817432293000,-1.95,9.92,0.93
58817482342000,-1.99,9.66,0.5
58817532330000,-1.53,9.58,0.19
58817582348000,-1.04,9.23,0.89
58817632336000,-0.57,9.38,1.5
58817682293000,-0.53,11.92,1.73
58817732342000,-1.73,11.41,2.96
58817782330000,-1.57,10.34,3.57
58817832348000,-0.76,9.15,2.37
58817882336000,-0.46,8.12,1.65
58817932324000,-0.3,8.69,2.96
58817982342000,-1.18,9.04,3.64
58818032299000,-1.18,8.81,4.02
58818082348000,-0.84,8.89,3.95
58818132336000,-1.04,9.11,4.1
58818182324000,-1.27,8.73,4.25
58818232342000,-0.95,8.77,4.37
58818282330000,-0.57,8.5,4.44
58818332348000,-0.5,12.79,2.64
58818382366000,-1.18,12.07,1.57
58818432324000,-0.42,6.63,-1.31
58818482342000,-1.65,11.07,-0.53
58818532330000,-2.26,9.43,0.93
58818582348000,-1.23,10.23,0.72
58818632366000,-2.68,9.96,0.89
58818682324000,-2.91,9.23,0.38
58818732311000,-1.73,9.28,0.38
58818782330000,-1.38,9.58,0.27
58818832348000,-1.65,9.81,0.65
58818882336000,-2.79,9.72,1.33
58818932324000,-3.15,9.58,1.04
58818982342000,-2.64,9.81,0.69
58819032330000,-1.33,10.34,-0.08
58819082378000,-1.8,10.08,-0.84
58819132336000,-1.76,10.38,-0.72
58819182324000,-1.99,9.77,0.53
58819232342000,-1.61,9.51,0.57
58819282330000,-0.15,9.34,2.11
58819402325000,-1.88,10.08,4.02
58819402325000,-1.88,10.08,4.02
58819452282000,-0.57,8.2,2.15
58819502331000,-0.61,7.63,2.18
58819552288000,-1.14,8.96,2.96
58819602306000,-2.22,10.92,2.79
58819652294000,-1.38,10.15,1.14
58819702313000,0.23,10.46,-0.27
58819752331000,-0.04,10.12,0.27
58819852306000,-1.95,9.0,1.31
58819902294000,-3.06,9.43,-0.04
58819952313000,-2.3,10.23,0.93
58820002667000,-1.95,9.47,0.76
58820052319000,-2.11,9.92,0.08
58820102306000,-2.87,9.96,1.8
58820152294000,-3.57,9.34,1.38
58820202313000,-3.15,9.43,-0.34
58820252300000,-2.68,9.28,0.19
58820302319000,-3.15,9.15,0.27
58820352276000,-3.15,9.47,-0.27
58820402294000,-3.06,9.58,-0.04
58820452282000,-2.75,9.58,-0.3
58820502300000,-2.26,9.53,-0.23
58820552319000,-2.91,9.72,0.19
58820602337000,-3.91,10.73,-0.19
58820652294000,-3.26,10.0,0.57
58820702343000,-1.5,9.23,1.31
58820752300000,-0.91,9.7,2.11
58820802319000,-3.15,13.14,1.73
58820852306000,-3.06,10.57,2.91
58820902294000,-1.57,8.39,1.33
58820952313000,-1.14,7.16,1.88
58821002300000,-0.3,8.35,2.76
58821052349000,-0.5,8.62,2.87
58821102306000,-0.15,8.2,2.96
58821152294000,0.42,8.2,4.4
58821202313000,-2.45,9.15,6.47
58821252300000,-5.05,10.92,6.28
58821302319000,-0.91,6.85,5.63
58821352306000,0.61,11.6,2.56
58821402294000,1.12,18.35,1.54
58821452313000,-0.42,3.17,-1.69
58821502300000,-3.06,9.28,-3.76
58821552319000,-4.14,11.65,1.73
58821602337000,1.31,9.7,0.8
58821652294000,-1.76,8.08,1.23
58821702313000,-3.6,9.0,0.27
58821752300000,-1.57,8.73,0.89
58821802319000,-1.23,9.08,0.89
58821852306000,-2.41,9.58,0.93
58821902294000,-3.3,9.92,0.38
58822002544000,-5.6,11.3,0.84
58822052319000,-5.24,12.68,-0.23
58822102306000,-3.21,11.65,-1.27
58822152294000,3.57,9.43,-0.38
58822202343000,0.72,10.95,-0.5
58822252331000,-5.01,12.76,1.99
58822302319000,-1.84,8.81,2.03
58822352306000,1.57,5.71,2.72
58822402294000,0.34,5.6,2.76
58822452343000,-0.04,5.22,3.64
58822502331000,-0.57,7.35,5.6
58822552349000,-1.5,12.26,8.2
58822652294000,-0.23,11.03,3.64
58822702343000,4.25,13.63,-0.23
58822752300000,-2.79,7.89,-1.08
58822802319000,-3.83,12.07,-1.92
58822852367000,-1.46,11.6,2.76
58822902325000,-2.11,8.58,0.53
58822952892000,-0.91,7.5,2.45
58823002331000,-2.37,8.28,1.04
58823052380000,-3.49,7.89,2.22
58823102306000,-2.98,8.08,0.89
58823152294000,-3.64,8.58,1.65
58823202313000,-4.4,10.5,2.15
58823252331000,-2.96,9.3,2.45
58823302319000,-3.98,11.07,2.22
58823352306000,-3.64,9.66,1.54
58823402325000,-3.57,9.04,1.57
58823452313000,-3.6,8.31,0.93
58823552319000,-1.53,12.34,-0.04
58823602306000,5.28,16.09,6.59
58823652294000,4.21,9.11,3.3
58823702221000,2.56,8.2,2.07
58823752300000,2.41,7.31,2.26
58823802319000,-0.19,7.63,3.57
58823852306000,0.89,7.4,3.17
58823902294000,1.33,8.12,3.21
58823952313000,1.54,5.37,2.49
58824002636000,1.18,7.12,4.52
58824052319000,0.46,7.74,4.75
58824102306000,1.08,7.4,6.59
58824152325000,0.89,8.31,6.21
58824202313000,2.07,8.81,8.16
58824252300000,2.79,9.43,9.92
58824302319000,3.02,8.01,9.81
58824352306000,2.56,5.37,10.5
58824402294000,0.34,2.87,9.92
58824402294000,0.34,2.87,9.92
58824472332000,-1.33,1.23,10.12
58824522289000,-1.27,2.03,10.19
58824572369000,-1.53,3.11,10.0
58824632305000,-1.57,3.83,9.72
58824682324000,-1.18,3.79,9.3
58824732342000,-0.72,3.91,9.53
58824782330000,-0.11,3.83,9.3
58824832348000,-0.08,3.64,9.34
58824882336000,-0.23,3.41,9.53
58824932324000,-0.46,3.38,9.62
58824982342000,-0.5,3.26,9.62
58825032330000,-0.46,3.21,9.53
58825082317000,-0.46,3.45,9.51
58825132336000,-0.23,3.79,9.47
58825182293000,-0.23,4.14,9.19
58825232342000,-0.04,4.4,8.92
58825282269000,-0.08,4.33,9.04
58825382336000,-0.04,4.02,9.23
58825432324000,-0.15,3.91,9.34
58825482311000,-0.3,3.91,9.43
58825532330000,-0.34,3.76,9.47
58825582317000,-0.34,3.76,9.34
58825632336000,-0.38,3.64,9.47
58825682293000,-0.3,3.68,9.47
58825732311000,-0.27,3.53,9.47
58825782299000,-0.27,3.57,9.43
58825832348000,-0.34,3.6,9.51
58825882305000,-0.27,3.6,9.47
58825932324000,-0.34,3.57,9.47
58825982342000,-0.3,3.57,9.43
58826032330000,-0.34,3.53,9.47
58826082317000,-0.23,3.64,9.47
58826132305000,-0.23,3.64,9.43
58826182293000,-0.3,3.72,9.43
58826232342000,-0.27,3.79,9.47
58826282238000,-0.34,3.72,9.43
58826332348000,-0.27,3.72,9.47
58826382305000,-0.27,3.68,9.47
58826432293000,-0.19,3.68,9.43
58826482647000,-0.15,3.72,9.38
58826532330000,-0.19,3.91,9.34
58826582317000,-0.23,3.91,9.3
58826632336000,-0.15,3.83,9.34
58826682324000,-0.19,3.76,9.47
58826732342000,-0.27,3.83,9.38
58826782299000,-0.23,3.87,9.38
58826832317000,-0.27,3.87,9.38
58826882336000,-0.15,3.95,9.34
58826932293000,-0.15,3.95,9.28
58826982342000,-0.11,3.95,9.34
58827052319000,-0.08,3.95,9.28
58827102245000,-0.08,4.02,9.23
58827152294000,-0.08,3.99,9.28
58827202221000,-0.08,3.91,9.28
58827252270000,-0.15,3.91,9.28
58827252270000,-0.15,3.91,9.28
58827252270000,-0.15,3.91,9.28
58827402264000,-0.11,3.99,9.28
58827452343000,-0.15,3.95,9.3
58827502270000,-0.11,3.95,9.3
58827552319000,-0.08,3.87,9.34
58827602276000,-0.19,3.87,9.3
58827652264000,-0.27,3.87,9.34
58827702282000,-0.23,3.79,9.34
58827752300000,-0.19,3.87,9.43
58827802319000,-0.3,3.99,9.38
58827802319000,-0.3,3.99,9.38
58827902294000,-0.04,4.02,9.3
58827952313000,0.11,4.14,9.15
58828002544000,0.15,4.14,9.04
58828052349000,0.27,4.25,9.08
58828102276000,0.27,4.21,9.0
58828152294000,0.38,4.33,8.92
58828202313000,0.53,4.52,8.92
58828252270000,0.38,4.52,8.89
58828302288000,0.31,4.52,8.92
58828352306000,0.42,4.44,9.0
58828402264000,0.42,4.4,9.0
58828452282000,0.27,4.4,9.0
58828502300000,0.23,4.33,9.0
58828552319000,0.15,4.21,9.15
58828602276000,0.08,4.18,9.15
58828652264000,0.08,4.25,9.15
58828702282000,0.15,4.25,9.15
58828752331000,0.23,4.29,9.08
58828802288000,0.31,4.29,9.11
58828852337000,0.27,4.25,8.96
58828902264000,0.31,4.25,8.96
58828952282000,0.15,4.25,9.08
58829052288000,0.04,4.29,9.15
58829102306000,0.19,4.33,9.08
58829152294000,0.15,4.21,9.04
58829202282000,0.19,4.21,9.11
58829252270000,0.19,4.14,9.11
58829352337000,-0.23,3.87,9.38
58829402264000,-0.3,3.83,9.38
58829452282000,-0.3,3.76,9.47
58829502270000,-0.23,3.76,9.43
58829552288000,-0.19,3.76,9.34
58829602306000,-0.15,3.76,9.38
58829652264000,-0.15,3.83,9.34
58829702282000,-0.19,3.83,9.47
58829752270000,-0.15,3.87,9.47
58829802319000,-0.34,3.95,9.47
58829852276000,-0.38,3.95,9.38
58829852276000,-0.38,3.95,9.38
58829911877000,-0.23,3.95,9.38
58829972363000,0.08,4.06,9.04
58830022411000,0.42,4.33,8.96
58830072369000,0.53,4.33,8.92
58830132305000,0.72,4.48,8.89
58830182324000,0.8,4.63,8.73
58830232311000,0.93,4.82,8.73
58830284680000,0.89,4.9,8.77
58830342266000,0.84,4.79,8.69
58830392315000,0.95,4.79,8.77
58830442303000,0.8,4.75,8.77
58830492321000,0.69,4.71,8.89
58830542339000,0.65,4.6,8.85
58830592327000,0.72,4.67,8.81
58830642315000,0.72,4.71,8.77
58830692303000,0.72,4.67,8.89
58830742291000,0.69,4.63,8.89
58830792339000,0.61,4.6,8.92
58830842327000,0.53,4.56,8.96
58830892346000,0.46,4.48,8.89
58830942333000,0.5,4.52,9.04
58830992291000,0.53,4.48,9.0
58831042309000,0.53,4.56,8.92
58831092266000,0.57,4.56,8.92
58831142315000,0.61,4.56,8.92
58831192669000,0.57,4.56,8.85
58831242291000,0.57,4.6,8.92
58831292217000,0.69,4.6,8.81
58831342297000,0.65,4.6,8.85
58831392315000,0.65,4.6,8.96
58831442333000,0.53,4.56,8.96
58831492260000,0.53,4.56,8.89
58831542339000,0.69,4.6,8.85
58831592297000,0.76,4.6,8.77
58831642346000,0.65,4.63,8.81
58831692333000,0.53,4.67,8.89
58831742291000,0.53,4.6,8.85
58831792309000,0.69,4.6,8.81
58831842266000,0.76,4.6,8.81
58831892315000,0.65,4.6,8.85
58831942303000,0.46,4.6,8.92
58831992291000,0.27,4.52,8.89
58832042309000,0.27,4.37,8.96
58832042309000,0.27,4.37,8.96
58832112286000,0.27,4.14,9.04
58832162274000,0.23,3.91,9.11
58832212322000,-0.11,3.87,9.43
58832262341000,-0.46,3.76,9.51
58832312389000,-0.42,3.64,9.51
58832362347000,-0.3,3.57,9.51
58832412304000,-0.19,3.64,9.51
58832462322000,-0.15,3.72,9.38
58832512310000,-0.15,3.6,9.38
58832562328000,-0.19,3.64,9.43
58832612316000,-0.27,3.64,9.43
58832662335000,-0.34,3.68,9.51
58832712292000,-0.3,3.68,9.43
58832762341000,-0.27,3.64,9.47
58832812389000,-0.34,3.57,9.43
58832862316000,-0.34,3.53,9.43
58832912335000,-0.42,3.57,9.51
58832962322000,-0.38,3.57,9.43
58833012280000,-0.34,3.6,9.47
58833062389000,-0.3,3.57,9.43
58833112347000,-0.23,3.6,9.47
58833162335000,-0.27,3.6,9.51
58833212292000,-0.27,3.64,9.47
58833262310000,-0.3,3.64,9.38
58833312298000,-0.3,3.6,9.47
58833362347000,-0.34,3.57,9.43
58833412304000,-0.34,3.6,9.51
58833462292000,-0.34,3.6,9.38
58833512341000,-0.27,3.68,9.47
58833562328000,-0.27,3.6,9.47
58833612316000,-0.27,3.64,9.51
58833662335000,-0.27,3.64,9.43
58833712505000,-0.3,3.6,9.51
58833762310000,-0.34,3.6,9.51
58833812328000,-0.27,3.6,9.47
58833862316000,-0.27,3.68,9.47
58833912304000,-0.27,3.64,9.43
58833962353000,-0.3,3.6,9.43
58834012249000,-0.3,3.6,9.47
58834062328000,-0.23,3.68,9.47
58834112316000,-0.3,3.64,9.47
58834162335000,-0.34,3.64,9.47
58834212353000,-0.38,3.6,9.53
58834262310000,-0.3,3.6,9.43
58834312298000,-0.3,3.72,9.47
58834362347000,-0.27,3.79,9.43
58834412304000,-0.27,3.68,9.34
58834462322000,-0.42,3.64,9.47
58834512310000,-0.34,3.76,9.47
58834562328000,-0.23,3.91,9.38
58834612347000,-0.19,3.95,9.34
58834722180000,-0.08,3.91,9.3
58834722180000,-0.08,3.91,9.3
58834822369000,-0.08,3.95,9.28
58834872265000,-0.08,3.95,9.3
58834922314000,-0.11,3.95,9.3
58834982311000,-0.04,3.99,9.23
58835032330000,0.04,4.06,9.11
58835082317000,0.04,4.1,9.19
58835132336000,0.08,4.14,9.15
58835182293000,0.08,4.14,9.11
58835232342000,0.04,4.1,9.19
58835282208000,0.04,4.06,9.19
58835332287000,0.04,4.1,9.19
58835482342000,0.04,4.06,9.15
58835832348000,-0.04,4.02,9.23
58835982342000,-0.08,4.06,9.23
58836032299000,-0.04,4.02,9.23
58836132305000,-0.04,4.06,9.23
58836182293000,0.04,4.06,9.19
58836282299000,-0.04,4.02,9.19
58836332378000,-0.08,3.99,9.28
58836382336000,-0.04,4.06,9.19
58836532299000,-0.04,3.99,9.23
58836582348000,-0.08,4.02,9.28
58836632305000,-0.04,4.02,9.19
58836732372000,-0.08,3.99,9.28
58836782299000,-0.04,3.99,9.23
58836832317000,-0.04,4.02,9.19
58836882275000,-0.04,4.02,9.23
58836932293000,-0.04,3.99,9.28
58836982311000,-0.04,4.02,9.23
58837082378000,-0.08,4.02,9.3
58837132305000,-0.08,3.99,9.23
58837182293000,-0.04,4.02,9.23
58837182293000,-0.04,4.02,9.23
58837332317000,-0.04,4.02,9.23
58837382275000,-0.04,4.02,9.28
58837432324000,-0.08,3.95,9.23
58837532299000,-0.04,3.99,9.28
58837582317000,-0.04,4.06,9.23
58837632336000,-0.08,3.99,9.28
58837682324000,-0.11,3.95,9.23
58837732311000,-0.08,3.95,9.28
58837782299000,-0.08,3.99,9.3
58837832317000,-0.08,3.99,9.23
58838132336000,-0.04,3.95,9.28
58838182293000,-0.08,3.91,9.3
58838232311000,-0.08,3.87,9.34
58838282299000,-0.11,3.87,9.3
58838332348000,-0.19,3.79,9.43
58838382336000,-0.27,3.76,9.38
58838432324000,-0.3,3.76,9.38
58838482311000,-0.3,3.76,9.43
58838532330000,-0.27,3.68,9.38
58838582317000,-0.27,3.64,9.43
58838632336000,-0.3,3.6,9.38
58838682324000,-0.42,3.72,9.47
58838732342000,-0.46,3.68,9.38
58838782299000,-0.46,3.72,9.43
58838832317000,-0.38,3.72,9.38
58838882336000,-0.3,3.76,9.43
58838932293000,-0.3,3.83,9.34
58838982342000,-0.34,3.79,9.38
58839032269000,-0.27,3.79,9.38
58839082348000,-0.23,3.79,9.34
58839132336000,-0.27,3.83,9.38
58839182324000,-0.23,3.79,9.3
58839232342000,-0.3,3.76,9.43
58839282299000,-0.3,3.83,9.34
58839332348000,-0.27,3.91,9.38
58839382336000,-0.15,4.02,9.34
58839432324000,-0.04,4.02,9.34
58839482311000,-0.04,4.18,9.19
58839582348000,0.31,4.4,8.89
58839632366000,0.89,4.52,8.85
58839682324000,1.31,4.67,8.69
58839750378000,1.31,4.79,8.62
58839802258000,0.95,4.86,8.62
58839852306000,0.76,4.75,8.66
58839902294000,0.93,4.86,8.66
58839952313000,0.89,4.82,8.73
58840002880000,0.8,4.82,8.77
58840052288000,0.8,4.75,8.81
58840102276000,0.84,4.71,8.81
58840152294000,0.76,4.67,8.89
58840202313000,0.8,4.75,8.77
58840252300000,0.72,4.82,8.73
58840302319000,0.76,4.75,8.89
58840352306000,0.8,4.71,8.77
58840402294000,0.76,4.67,8.81
58840452313000,0.8,4.75,8.73
58840502270000,0.72,4.75,8.81
58840552319000,0.69,4.67,8.81
58840602337000,0.57,4.63,8.85
58840652294000,0.76,4.63,8.81
58840702313000,0.84,4.67,8.77
58840752270000,0.8,4.67,8.73
58840802319000,0.76,4.71,8.77
58840852306000,0.69,4.75,8.73
58840902294000,0.69,4.71,8.77
58840952313000,0.8,4.75,8.81
58841002300000,0.69,4.63,8.77
58841052288000,0.69,4.67,8.73
58841102306000,0.53,4.6,8.81
58841152294000,0.38,4.4,8.96
58841202343000,0.19,4.21,9.11
58841252300000,-0.08,4.02,9.28
58841302319000,-0.19,3.91,9.34
58841352306000,-0.23,3.79,9.43
58841402294000,-0.34,3.76,9.53
58841452313000,-0.38,3.72,9.51
58841502270000,-0.3,3.68,9.51
58841552288000,-0.15,3.68,9.43
58841602276000,-0.15,3.68,9.34
58841652294000,-0.19,3.68,9.38
58841702282000,-0.19,3.64,9.43
58841752300000,-0.15,3.68,9.38
58841802349000,-0.15,3.64,9.43
58841852337000,-0.19,3.68,9.38
58841902294000,-0.15,3.76,9.38
58841952313000,-0.11,3.72,9.38
58842002483000,-0.15,3.72,9.34
58842052349000,-0.15,3.79,9.43
58842102337000,-0.15,3.76,9.34
58842152294000,-0.19,3.87,9.43
58842202343000,-0.11,3.99,9.3
58842252300000,-0.08,3.99,9.28
58842302319000,0.11,4.14,9.19
58842352306000,0.38,4.25,9.0
58842402264000,0.61,4.25,9.0
58842452343000,0.57,4.29,8.85
58842502270000,0.5,4.29,8.89
58842552410000,0.57,4.44,8.92
58842602337000,0.38,4.48,9.0
58842652233000,0.31,4.52,8.96
58842702313000,0.42,4.44,8.89
58842752300000,0.42,4.37,8.96
58842802380000,0.31,4.29,9.08
58842852306000,0.04,4.29,9.11
58842902294000,0.04,4.33,9.04
58842952313000,0.15,4.25,9.15
58843002300000,0.04,4.25,9.15
58843052319000,0.15,4.44,8.96
58843102337000,0.23,4.4,9.04
58843152294000,0.15,4.33,8.96
58843202313000,0.11,4.33,9.04
58843252300000,0.08,4.25,9.11
58843302380000,0.04,4.33,9.08
58843352306000,0.08,4.29,9.11
58843402355000,0.04,4.29,9.08
58843502331000,0.15,4.33,8.92
58843552319000,0.19,4.4,8.96
58843602276000,0.08,4.4,9.0
58843652294000,-0.08,4.29,9.11
58843702313000,-0.08,4.21,9.15
58843802319000,0.11,4.29,9.0
58843852337000,0.08,4.33,9.04
58843902294000,0.04,4.29,9.11
58844002544000,0.04,4.06,9.08
58844052319000,-0.08,3.99,9.23
58844102276000,-0.11,4.06,9.23
58844152294000,-0.11,4.18,9.23
58844252300000,0.08,4.14,9.15
58844352337000,-0.11,3.99,9.28
58844402264000,-0.11,3.95,9.28
58844452313000,-0.19,3.87,9.38
58844502300000,-0.23,3.83,9.34
58844552288000,-0.19,3.83,9.3
58844602337000,-0.15,3.91,9.38
58844652325000,-0.19,3.87,9.3
58844702313000,-0.15,3.91,9.34
58844752300000,-0.08,3.95,9.28
58844802319000,-0.11,3.99,9.38
58844852306000,-0.08,3.87,9.3
58844902264000,-0.08,3.87,9.28
58844952313000,-0.11,3.79,9.3
58844952313000,-0.11,3.79,9.3
58845054028000,-0.19,3.76,9.43
58845054028000,-0.19,3.76,9.43
58845112255000,-0.23,3.72,9.43
58845162304000,-0.19,3.76,9.43
58845162304000,-0.19,3.76,9.43
58845262280000,-0.27,3.76,9.47
58845312389000,-0.23,3.72,9.43
58845362347000,-0.15,3.76,9.34
58845412335000,-0.11,3.72,9.38
58845462292000,-0.15,3.72,9.47
58845512310000,-0.19,3.68,9.47
58845562298000,-0.23,3.57,9.47
58845612347000,-0.27,3.6,9.51
58845662304000,-0.27,3.64,9.47
58845712292000,-0.27,3.72,9.47
58845762310000,-0.27,3.76,9.53
58845812328000,-0.3,4.02,9.66
58845862347000,-0.42,3.83,9.7
58845912335000,-0.46,3.99,10.57
58845962353000,0.8,3.3,8.58
58846012280000,0.76,3.06,8.66
58846062328000,1.14,3.45,8.81
58846112347000,1.18,3.49,9.3
58846162335000,0.8,3.57,9.85
58846212322000,-0.08,3.68,9.66
58846262310000,0.76,3.68,9.19
58846312389000,0.72,4.14,9.85
58846362347000,0.31,4.52,9.89
58846412335000,0.19,3.99,9.23
58846462322000,0.23,4.21,9.43
58846512371000,0.31,3.87,8.66
58846562328000,0.53,3.38,8.73
58846612347000,0.95,2.64,9.0
58846662335000,1.04,2.07,9.3
58846712322000,0.23,0.76,10.69
58846762341000,-0.04,1.08,11.5
58846812328000,0.99,0.95,10.08
58846862347000,1.8,2.53,9.04
58846912335000,1.54,3.17,8.81
58846962353000,0.65,2.83,9.23
58847012310000,-1.08,2.79,10.19
58847062389000,-1.38,2.56,10.08
58847112347000,-1.65,3.68,9.81
58847162335000,-1.23,4.29,9.11
58847212322000,-1.8,3.91,9.23
58847262341000,-2.53,3.15,9.53
58847312328000,-1.18,3.64,9.62
58847362316000,-0.57,3.76,9.62
58847412335000,-1.42,3.11,9.3
58847462322000,-1.04,3.49,9.34
58847512341000,-1.33,4.29,9.7
58847562328000,-0.8,3.6,8.92
58847632305000,-1.46,3.76,9.58
58847682293000,-1.46,3.53,9.34
58847732342000,-1.33,3.68,9.38
58847782330000,-1.14,3.72,9.43
58847832317000,-1.08,3.72,9.53
58847882336000,-0.72,3.91,9.3
58847932293000,-1.23,3.87,9.3
58847982342000,-0.76,3.6,9.47
58848032330000,-0.46,3.68,9.34
58848082378000,-0.76,3.79,9.23
58848132305000,-1.04,3.99,9.38
58848182293000,-1.08,3.99,9.34
58848232342000,-1.04,3.79,9.3
58848282330000,-1.14,3.64,9.38
58848332317000,-0.61,3.91,9.38
58848382336000,-0.69,3.79,9.34
58848432293000,-0.89,3.79,9.34
58848482311000,-0.84,3.76,9.34
58848532299000,-0.89,3.76,9.38
58848582348000,-0.99,3.72,9.43
58848632305000,-0.95,3.79,9.38
58848682324000,-0.76,3.72,9.43
58848732342000,-0.84,3.76,9.34
58848782330000,-0.89,3.79,9.3
58848832317000,-0.89,3.76,9.34
58848882305000,-0.91,3.79,9.34
58848932293000,-0.72,3.79,9.38
58848982342000,-0.8,3.76,9.43
58849032299000,-0.84,3.72,9.43
58849082317000,-0.84,3.79,9.43
58849132305000,-1.04,3.68,9.43
58849182324000,-0.84,3.72,9.38
58849232342000,-1.04,3.79,9.34
58849282299000,-0.76,3.79,9.34
58849332348000,-0.72,3.76,9.38
58849382305000,-0.8,3.76,9.38
58849432293000,-0.91,3.79,9.38
58849482342000,-0.89,3.72,9.43
58849482342000,-0.89,3.72,9.43
58849582317000,-0.84,3.79,9.38
58849632305000,-0.89,3.79,9.34
58849682324000,-0.84,3.83,9.38
58849732311000,-0.84,3.76,9.38
58849782299000,-0.84,3.76,9.34
58849832348000,-0.91,3.79,9.38
58849882305000,-0.89,3.79,9.34
58849932293000,-0.84,3.76,9.34
58849982342000,-0.89,3.79,9.38
58850032604000,-0.89,3.76,9.3
58850082317000,-0.89,3.72,9.34
58850132305000,-0.8,3.76,9.34
58850182324000,-0.89,3.83,9.38
58850252300000,-0.89,3.79,9.38
58850302258000,-0.84,3.76,9.38
58850352306000,-0.84,3.79,9.3
58850402233000,-0.91,3.79,9.38
58850452282000,-0.8,3.79,9.34
58850502300000,-0.84,3.72,9.43
58850552288000,-0.89,3.76,9.43
58850602306000,-0.89,3.79,9.34
58850652264000,-0.89,3.79,9.38
58850652264000,-0.89,3.79,9.38
58850752270000,-0.89,3.83,9.34
58850802288000,-0.89,3.76,9.34
58850852276000,-0.89,3.76,9.47
58850902294000,-0.84,3.87,9.34
58850952282000,-0.84,3.79,9.38
58851002331000,-0.91,3.72,9.34
58851052288000,-0.91,3.76,9.43
58851102306000,-0.84,3.79,9.38
58851152264000,-0.91,3.79,9.38
58851202313000,-0.95,3.83,9.38
58851252270000,-0.91,3.83,9.38
58851302319000,-0.84,3.83,9.34
58851352306000,-0.89,3.87,9.34
58851402264000,-0.91,3.87,9.38
58851452313000,-0.91,3.83,9.34
58851502300000,-0.89,3.79,9.38
58851552288000,-0.91,3.76,9.38
58851602276000,-0.91,3.79,9.38
58851652294000,-0.95,3.79,9.34
58851702282000,-0.95,3.79,9.38
58851752270000,-0.95,3.87,9.38
58851802319000,-0.95,3.83,9.38
58851852306000,-0.91,3.76,9.3
58851902294000,-0.95,3.83,9.34
58851952313000,-1.04,3.79,9.3
58852002483000,-0.91,3.79,9.43
58852052319000,-0.95,3.83,9.28
58852102276000,-0.95,3.87,9.34
58852152264000,-0.95,3.83,9.3
58852202313000,-0.95,3.79,9.34
58852252270000,-0.95,3.83,9.34
58852302288000,-0.95,3.79,9.3
58852352306000,-0.99,3.72,9.34
58852402294000,-1.04,3.79,9.3
58852452282000,-0.99,3.79,9.34
58852452282000,-0.99,3.79,9.34
58852552288000,-0.91,3.83,9.34
58852602276000,-0.91,3.83,9.3
58852652294000,-1.04,3.83,9.34
58852702282000,-0.95,3.83,9.3
58852752239000,-0.89,3.83,9.3
58852802288000,-0.95,3.91,9.3
58852852276000,-1.04,3.91,9.34
58852902294000,-0.99,3.79,9.34
58852952282000,-0.99,3.79,9.3
58853002300000,-0.95,3.83,9.34
58853052288000,-0.95,3.87,9.3
58853102276000,-1.08,3.79,9.3
58853152294000,-0.95,3.83,9.34
58853202282000,-0.99,3.83,9.34
58853252270000,-0.99,3.79,9.34
58853302288000,-0.95,3.79,9.38
58853352306000,-0.99,3.83,9.3
58853402264000,-0.95,3.83,9.3
58853452282000,-0.99,3.83,9.34
58853452282000,-0.99,3.83,9.34
58853552807000,-0.99,3.79,9.34
58853602276000,-0.99,3.83,9.34
58853652294000,-0.99,3.87,9.3
58853702282000,-0.95,3.87,9.34
58853752270000,-0.89,3.83,9.34
58853802319000,-0.99,3.91,9.43
58853852306000,-1.27,3.76,9.3
58853902294000,-1.23,3.76,9.34
58853952282000,-0.89,3.79,9.34
58854002544000,-0.76,4.02,9.28
58854052319000,-0.91,4.06,9.23
58854102306000,-1.12,4.1,9.19
58854152294000,-1.12,3.91,9.28
58854202313000,-1.04,3.87,9.34
58854252270000,-1.14,3.91,9.34
58854302319000,-1.12,3.95,9.38
58854352306000,-0.89,3.83,9.3
58854402264000,-0.89,3.79,9.23
58854452313000,-0.91,3.72,9.28
58854502300000,-0.99,3.64,9.38
58854552288000,-0.99,3.6,9.34
58854602276000,-0.91,3.6,9.28
58854652294000,-0.95,3.53,9.19
58854702313000,-0.99,3.6,9.34
58854752331000,-1.33,4.21,9.81
58854802319000,-0.8,4.1,9.23
58854852337000,-0.76,3.87,9.0
58854902294000,-1.18,3.87,9.51
58854952313000,-1.12,3.83,9.34
58855002300000,-0.95,3.95,9.23
58855052319000,-0.91,3.91,9.3
58855102306000,-0.99,3.87,9.28
58855152294000,-1.08,3.87,9.34
58855202282000,-1.04,3.87,9.3
58855252270000,-1.04,3.87,9.28
58855252270000,-1.04,3.87,9.28
58855252270000,-1.04,3.87,9.28
58855372265000,-1.08,3.87,9.3
58855422314000,-0.99,3.87,9.3
58855482281000,-0.95,3.87,9.28
58855532330000,-1.08,3.83,9.34
58855582348000,-1.04,3.87,9.28
58855632305000,-0.99,3.87,9.34
58855682293000,-0.99,3.87,9.3
58855732281000,-1.04,3.87,9.3
58855782299000,-1.04,3.87,9.34
58855832317000,-0.99,3.87,9.28
58855882336000,-1.04,3.83,9.3
58855932293000,-0.99,3.87,9.3
58855982342000,-0.99,3.91,9.34
58856032299000,-0.99,3.91,9.3
58856082317000,-0.99,3.83,9.34
58856132275000,-0.99,3.91,9.34
58856182293000,-0.99,3.91,9.28
58856232311000,-0.99,3.87,9.3
58856282299000,-0.99,3.83,9.3
58856332348000,-0.95,3.87,9.34
58856382305000,-0.95,3.87,9.3
58856432293000,-0.99,3.87,9.34
58856482342000,-0.95,3.91,9.3
58856532299000,-1.04,3.91,9.3
58856582348000,-1.04,3.76,9.34
58856632336000,-0.84,3.91,9.43
58856682324000,-0.91,4.02,9.23
58856732342000,-1.04,3.95,9.3
58856782330000,-0.99,3.83,9.38
58856832317000,-0.99,3.79,9.34
58856882336000,-0.95,3.87,9.3
58856882336000,-0.95,3.87,9.3
58856982342000,-0.99,3.87,9.28
58857032299000,-1.04,3.87,9.28
58857082562000,-0.95,3.87,9.3
58857132305000,-0.99,3.83,9.3
58857132305000,-0.99,3.83,9.3
58857232311000,-0.99,3.87,9.34
58857282269000,-0.95,3.87,9.34
58857332317000,-0.99,3.87,9.3
58857382275000,-0.99,3.91,9.3
58857432293000,-0.99,3.83,9.28
58857482311000,-1.04,3.83,9.34
58857532299000,-0.95,3.83,9.34
58857582317000,-0.99,3.83,9.3
58857632305000,-0.99,3.87,9.28
58857682293000,-1.04,3.87,9.3
58857732342000,-0.99,3.87,9.3
58857802349000,-0.99,3.87,9.3
58857852245000,-1.04,3.87,9.34
58857902325000,-0.99,3.87,9.3
58857952252000,-0.99,3.83,9.34
58858002453000,-0.99,3.91,9.28
58858052319000,-0.95,3.87,9.3
58858102276000,-0.95,3.83,9.3
58858152294000,-0.99,3.91,9.28
58858202282000,-0.95,3.91,9.34
58858252270000,-0.95,3.83,9.3
58858302288000,-0.95,3.87,9.34
58858352276000,-0.99,3.79,9.34
58858402294000,-0.95,3.87,9.3
58858452282000,-0.99,3.87,9.3
58858502270000,-0.95,3.83,9.3
58858552288000,-1.04,3.83,9.34
