timestamp,accX,accY,accZ
3147192272000,-1.18,9.81,0.7218784
3147242168000,-0.91,9.81,0.84446156
3147292309000,-0.99,9.89,0.6946377
3147342205000,-0.89,9.77,0.84446156
3147392315000,-0.91,9.77,0.88532263
3147442211000,-0.72,9.77,1.0760075
3147492260000,-0.65,9.85,0.9942854
3147542217000,-0.61,9.81,1.0760075
3147592266000,-0.8,9.7,0.95342433
3147642223000,-0.99,9.85,0.92618364
3147692272000,-1.31,9.89,0.7218784
3147742199000,-1.42,9.72,0.6946377
3147792278000,-1.33,9.89,0.84446156
3147842266000,-1.57,9.92,0.6537767
3147892254000,-1.61,9.81,0.6537767
3147942364000,-1.57,9.77,0.61291564
3147992260000,-1.57,9.96,0.46309182
3148042217000,-1.33,9.72,0.38136974
3148092266000,-1.23,9.53,0.7218784
3148142254000,-1.27,9.85,1.0760075
3148192272000,-1.27,9.89,0.6946377
3148242199000,-1.53,9.92,0.7627395
3148292309000,-1.65,9.62,0.7218784
3148342205000,-1.65,9.72,0.6946377
3148392284000,-1.61,9.77,0.88532263
3148442211000,-1.53,9.77,0.7218784
3148492260000,-1.42,9.72,0.92618364
3148542217000,-1.27,9.7,0.84446156
3148592266000,-1.69,9.81,0.6537767
3148642223000,-1.61,9.81,0.6946377
3148692272000,-1.69,9.72,0.61291564
3148742199000,-1.73,9.58,0.50395286
3148792309000,-1.88,9.72,0.5720546
3148842205000,-1.92,9.92,0.6537767
3148892254000,-1.88,9.72,0.61291564
3148942272000,-1.76,9.7,0.6537767
3148992229000,-1.84,9.7,0.6537767
3149042248000,-1.88,9.81,0.7218784
3149042248000,-1.88,9.81,0.7218784
3149162243000,-1.73,9.72,0.6537767
3149162243000,-1.73,9.72,0.6537767
3149262341000,-1.8,9.62,0.6946377
3149312267000,-1.8,9.81,0.84446156
3149312267000,-1.8,9.81,0.84446156
3149372509000,-1.76,9.81,0.84446156
3149423016000,-1.57,9.77,0.7627395
3149472515000,-1.76,9.77,0.88532263
3149523022000,-1.57,9.66,0.8036005
3149572552000,-1.76,9.77,0.9942854
3149623028000,-1.5,9.66,0.8036005
3149672527000,-1.61,9.81,0.9942854
3149723522000,-1.42,9.7,0.92618364
3149772533000,-1.53,9.77,0.9942854
3149823009000,-1.53,9.81,1.0351465
3149872448000,-1.57,9.81,1.0351465
3149922985000,-1.38,9.72,1.1168685
3149972485000,-1.42,9.62,0.9942854
3150023022000,-1.38,9.7,1.0351465
3150072491000,-1.53,9.72,1.0351465
3150122997000,-1.46,9.77,1.0760075
3150172466000,-1.33,9.7,1.1168685
3150222973000,-1.46,9.81,1.1441092
3150272472000,-1.18,9.7,1.2258313
3150322948000,-1.27,9.7,1.1849703
3150372417000,-1.31,9.81,1.2258313
3150422924000,-1.23,9.72,1.1849703
3150472393000,-1.27,9.72,1.1849703
3150522930000,-1.38,9.72,1.1168685
3150572430000,-1.46,9.81,0.9942854
3150622936000,-1.5,9.62,0.92618364
3150672497000,-1.46,9.58,1.1168685
3150722973000,-1.46,9.77,1.2258313
3150772503000,-1.14,9.72,1.334794
3150822979000,-1.14,9.92,1.4165162
3150872509000,-1.33,9.85,1.2666923
3150933361000,-1.61,9.72,0.8036005
3150982281000,-1.99,9.7,0.50395286
3151032330000,-1.8,9.62,0.61291564
3151092236000,-1.38,9.77,1.1168685
3151142254000,-1.33,9.85,1.334794
3151192272000,-1.53,10.08,0.9942854
3151242260000,-1.57,9.81,0.61291564
3151292278000,-1.42,9.51,0.7627395
3151342205000,-1.33,9.66,1.0351465
3151392284000,-1.27,9.72,1.2258313
3151442211000,-1.42,9.81,0.9942854
3151492260000,-1.76,9.92,0.7627395
3151542217000,-1.61,9.62,0.8036005
3151592266000,-1.38,9.58,1.0760075
3151642223000,-1.18,9.7,1.2258313
3151692333000,-1.12,9.85,1.1849703
3151742229000,-1.5,10.08,1.1168685
3151792278000,-1.57,9.85,0.92618364
3151842236000,-1.5,9.62,1.0351465
3151892223000,-1.31,9.43,1.0351465
3151942211000,-1.31,9.7,1.1441092
3151992290000,-1.5,9.85,0.9942854
3152042217000,-2.03,9.92,0.7218784
3152092297000,-1.8,9.7,0.7218784
3152142223000,-1.65,9.72,0.84446156
3152192272000,-1.46,9.7,0.88532263
3152242199000,-1.69,9.77,0.95342433
3152292278000,-1.73,9.81,0.92618364
3152342205000,-1.69,9.77,0.88532263
3152392284000,-1.61,9.7,0.84446156
3152442211000,-1.69,9.66,0.84446156
3152492260000,-1.73,9.77,0.88532263
3152542217000,-1.8,9.81,0.84446156
3152592266000,-1.69,9.72,0.84446156
3152642223000,-1.61,9.66,0.88532263
3152692272000,-1.65,9.77,0.9942854
3152742199000,-1.61,9.72,0.9942854
3152792309000,-1.65,9.7,0.95342433
3152852306000,-1.61,9.72,0.95342433
3152902569000,-1.61,9.7,0.9942854
3152952404000,-1.57,9.77,0.92618364
3153002209000,-1.57,9.7,0.9942854
3153052349000,-1.53,9.72,0.95342433
3153112255000,-1.57,9.7,0.9942854
3153162243000,-1.53,9.72,0.95342433
3153212231000,-1.65,9.72,0.92618364
3153262249000,-1.61,9.77,0.9942854
3153312237000,-1.57,9.7,0.9942854
3153362286000,-1.61,9.77,1.0351465
3153412273000,-1.65,9.72,0.92618364
3153462200000,-1.57,9.66,0.9942854
3153512249000,-1.57,9.81,0.9942854
3153562206000,-1.73,9.77,1.0351465
3153612255000,-1.73,9.72,0.95342433
3153662212000,-1.69,9.58,0.8036005
3153712231000,-1.57,9.66,0.84446156
3153762310000,-1.57,9.7,0.92618364
3153762310000,-1.57,9.7,0.92618364
3153823040000,-1.61,9.81,1.0760075
3153872356000,-1.65,9.77,0.92618364
3153922405000,-1.65,9.81,0.95342433
3153973095000,-1.8,9.72,0.88532263
3154032268000,-1.69,9.58,0.8036005
3154082256000,-1.73,9.72,0.8036005
3154132275000,-1.8,9.85,0.84446156
3154192242000,-1.76,9.7,0.7627395
3154242229000,-1.73,9.66,0.7627395
3154292339000,-1.76,9.77,0.84446156
3154352245000,-1.8,9.85,0.84446156
3154402233000,-1.92,9.66,0.7218784
3154452282000,-1.76,9.66,0.7218784
3154502270000,-1.65,9.66,0.7218784
3154552288000,-1.61,9.81,0.95342433
3154602245000,-1.73,9.85,0.7627395
3154652264000,-1.8,9.66,0.6946377
3154702221000,-1.8,9.7,0.6537767
3154752270000,-1.84,9.7,0.5720546
3154802227000,-1.76,9.7,0.8036005
3154852276000,-1.57,9.72,0.88532263
3154902264000,-1.61,9.89,0.95342433
3154952282000,-1.65,9.72,0.84446156
3155002239000,-1.76,9.7,0.6946377
3155052288000,-1.76,9.77,0.53119355
3155102215000,-1.69,9.77,0.6946377
3155152264000,-1.57,9.81,0.84446156
3155202221000,-1.65,9.81,0.88532263
3155252270000,-1.69,9.77,0.8036005
3155302257000,-1.69,9.72,0.7218784
3155352276000,-1.61,9.77,0.7627395
3155402203000,-1.69,9.77,0.8036005
3155452251000,-1.65,9.77,0.7627395
3155502209000,-1.69,9.72,0.84446156
3155552288000,-1.57,9.72,0.7627395
3155602245000,-1.61,9.77,0.92618364
3155652264000,-1.57,9.77,0.88532263
3155702251000,-1.53,9.85,0.92618364
3155752270000,-1.53,9.81,0.84446156
3155802227000,-1.5,9.77,0.95342433
3155852306000,-1.53,9.72,0.92618364
3155902203000,-1.53,9.72,0.88532263
3155952251000,-1.53,9.77,0.88532263
3156002209000,-1.53,9.81,0.92618364
3156052288000,-1.5,9.77,0.95342433
3156102215000,-1.57,9.77,0.92618364
3156152264000,-1.57,9.81,0.95342433
3156202251000,-1.53,9.81,0.92618364
3156252239000,-1.53,9.77,0.9942854
3156302257000,-1.53,9.72,1.0351465
3156352306000,-1.42,9.72,1.1168685
3156402203000,-1.38,9.72,1.1849703
3156452282000,-1.33,9.77,1.2258313
3156502209000,-1.33,9.72,1.1849703
3156552288000,-1.33,9.77,1.2258313
3156602215000,-1.31,9.7,1.1849703
3156652264000,-1.33,9.7,1.1441092
3156702221000,-1.33,9.66,1.1168685
3156752239000,-1.46,9.66,1.1168685
3156802257000,-1.42,9.72,1.1849703
3156852276000,-1.53,9.77,1.2258313
3156902233000,-1.5,9.62,1.1441092
3156952282000,-1.46,9.58,1.1168685
3157002270000,-1.65,9.77,1.1441092
3157052288000,-1.65,9.85,1.1849703
3157102215000,-1.69,9.81,1.1168685
3157152264000,-1.73,9.72,0.9942854
3157202221000,-1.61,9.66,1.0760075
3157252270000,-1.5,9.66,1.1168685
3157302257000,-1.53,9.7,1.1168685
3157352276000,-1.65,9.81,1.0351465
3157402203000,-1.65,9.85,0.88532263
3157452282000,-1.8,9.72,0.8036005
3157502209000,-1.76,9.66,0.8036005
3157552288000,-1.65,9.62,0.84446156
3157602245000,-1.53,9.72,0.9942854
3157652264000,-1.65,9.81,0.9942854
3157652264000,-1.65,9.81,0.9942854
3157752300000,-1.73,9.77,0.8036005
3157802227000,-1.69,9.7,0.84446156
3157852306000,-1.61,9.72,0.95342433
3157902294000,-1.53,9.72,0.95342433
3157952251000,-1.53,9.72,0.9942854
3158002239000,-1.61,9.85,0.95342433
3158052319000,-1.65,9.81,0.88532263
3158112225000,-1.65,9.7,0.88532263
3158162212000,-1.57,9.72,0.7627395
3158212292000,-1.46,9.66,0.84446156
3158262218000,-1.65,9.81,0.88532263
3158312267000,-1.57,9.77,0.88532263
3158362225000,-1.57,9.89,0.92618364
3158412273000,-1.53,9.72,0.88532263
3158462231000,-1.57,9.66,1.0760075
3158512249000,-1.42,9.72,1.1441092
3158562206000,-1.46,9.81,1.1168685
3158612255000,-1.5,9.7,1.1441092
3158662212000,-1.23,9.51,0.9942854
3158712261000,-1.42,9.81,0.84446156
3158762218000,-1.38,9.66,0.92618364
3158812267000,-1.8,9.72,0.7627395
3158812267000,-1.8,9.72,0.7627395
3158882336000,-2.07,9.72,0.6537767
3158932262000,-1.65,9.58,0.84446156
3158998791000,-1.61,9.7,0.92618364
3158998791000,-1.61,9.7,0.92618364
3158998791000,-1.61,9.7,0.92618364
3159152477000,-1.46,9.47,0.95342433
3159202282000,-1.46,9.62,0.84446156
3159252209000,-1.69,9.72,0.7627395
3159302288000,-1.73,9.92,0.92618364
3159352215000,-1.57,10.0,0.9942854
3159402264000,-1.65,9.81,0.9942854
3159452251000,-1.31,9.58,0.88532263
3159502270000,-1.53,9.7,0.95342433
3159552227000,-1.61,9.72,0.88532263
3159602276000,-1.57,9.72,1.0351465
3159652203000,-1.5,9.72,1.1441092
3159702282000,-1.46,9.81,1.1849703
3159752239000,-1.5,9.72,1.3075534
3159802319000,-1.57,9.66,1.1441092
3159852245000,-1.53,9.62,1.1441092
3159902233000,-1.69,9.72,1.1441092
3159952373000,-1.46,9.66,1.1849703
3160002270000,-1.57,9.72,1.0351465
3160052257000,-1.65,9.81,1.1168685
3160102306000,-1.5,9.77,1.1168685
3160152233000,-1.38,9.7,1.0760075
3160202251000,-1.53,9.7,1.0760075
3160252270000,-1.5,9.72,0.88532263
3160302288000,-1.53,9.72,0.95342433
3160302288000,-1.53,9.72,0.95342433
3160402233000,-1.53,9.72,0.92618364
3160452251000,-1.46,9.77,0.95342433
3160502270000,-1.5,9.85,1.0351465
3160552257000,-1.53,9.72,0.92618364
3160602245000,-1.53,9.72,0.8036005
3160652203000,-1.53,9.77,0.84446156
3160702251000,-1.57,9.77,0.84446156
3160752209000,-1.65,9.81,0.8036005
3160802288000,-1.53,9.7,0.84446156
3160852215000,-1.57,9.77,0.92618364
3160902233000,-1.38,9.72,0.95342433
3160952251000,-1.53,9.89,0.95342433
3161002239000,-1.57,9.89,0.95342433
3161052257000,-1.61,9.66,0.7218784
3161102276000,-1.65,9.62,0.7627395
3161152264000,-1.57,9.58,0.6946377
3161202343000,-1.8,9.77,0.88532263
3161252239000,-1.69,9.89,1.0351465
3161302288000,-1.23,9.66,1.1441092
3161352245000,-1.38,9.72,1.0760075
3161402264000,-1.69,9.77,0.9942854
3161452343000,-1.88,9.81,0.6537767
3161502300000,-1.69,9.89,0.88532263
3161552227000,-1.57,9.66,0.84446156
3161602276000,-1.31,9.47,0.95342433
3161652233000,-1.61,10.0,0.9942854
3161702282000,-1.84,10.08,0.9942854
3161752209000,-1.73,9.77,0.9942854
3161802288000,-1.31,9.38,1.1168685
3161852215000,-1.14,9.53,1.3075534
3161902233000,-2.26,9.77,0.8036005
3161952282000,-2.3,10.04,0.6946377
3162002270000,-1.65,9.81,0.88532263
3162052227000,-1.18,10.23,0.92618364
3162102306000,-0.57,8.96,1.0351465
3162152203000,-0.65,9.53,1.4165162
3162202282000,-1.5,9.96,1.4982382
3162252209000,-2.22,9.81,1.1849703
3162302319000,-1.92,9.81,0.95342433
3162352398000,-1.88,9.85,0.6946377
3162402264000,-1.65,9.72,0.6537767
3162452282000,-1.8,9.66,0.46309182
3162502270000,-1.76,9.53,0.5720546
3162552257000,-0.95,9.38,1.3075534
3162602276000,-0.91,10.0,1.6480621
3162652233000,-1.46,10.15,1.7297841
3162702282000,-1.46,9.7,1.334794
3162752239000,-1.61,9.7,0.7627395
3162802288000,-1.88,9.58,0.313268
3162852215000,-1.92,9.77,0.53119355
3162902386000,-1.84,10.04,0.8036005
3162952282000,-1.46,9.96,1.2258313
3163002270000,-0.84,9.81,0.9942854
3163052257000,-1.08,9.66,0.6537767
3163102276000,-1.88,9.72,0.5720546
3163152203000,-2.22,9.81,0.313268
3163202282000,-2.49,9.72,0.38136974
3163252209000,-2.14,9.89,0.53119355
3163302288000,-1.53,9.89,0.6537767
3163352215000,-1.33,9.81,0.84446156
3163402294000,-1.23,9.62,0.9942854
3163452526000,-1.38,9.72,1.1441092
3163502270000,-1.53,9.58,1.1168685
3163552227000,-1.73,9.89,0.9942854
3163602276000,-1.84,9.85,0.8036005
3163652233000,-1.69,9.66,0.84446156
3163702282000,-1.73,9.7,0.84446156
3163752209000,-1.53,9.77,0.88532263
3163802288000,-1.53,9.7,0.92618364
3163852245000,-1.61,9.85,0.88532263
3163902233000,-1.57,9.89,0.88532263
3163902233000,-1.57,9.89,0.88532263
3163972271000,-1.38,9.62,0.92618364
3164022594000,-1.23,9.66,1.0760075
3164073132000,-1.42,9.77,1.1168685
3164130382000,-1.53,9.72,1.0760075
3164182354000,-1.57,9.77,0.9942854
3164232281000,-1.69,9.81,0.95342433
3164282299000,-1.46,9.62,1.0760075
3164332317000,-1.38,9.66,1.2258313
3164382305000,-1.53,9.85,1.1849703
3164432262000,-1.57,9.7,0.9942854
3164482311000,-1.65,9.62,1.0351465
3164532268000,-1.5,9.7,1.0351465
3164582348000,-1.57,9.81,1.0760075
3164632244000,-1.65,9.81,1.0760075
3164682293000,-1.5,9.66,1.0760075
3164732281000,-1.46,9.7,0.95342433
3164782238000,-1.5,9.7,0.9942854
3164832256000,-1.5,9.7,1.0351465
3164882275000,-1.69,9.89,0.95342433
3164932262000,-1.53,9.81,1.0351465
3164982311000,-1.5,9.66,1.0760075
3165032238000,-1.53,9.62,0.9942854
3165082256000,-1.53,9.7,0.9942854
3165132244000,-1.57,9.77,0.9942854
3165182232000,-1.5,9.77,1.0351465
3165232220000,-1.5,9.77,0.9942854
3165282299000,-1.5,9.72,0.88532263
3165382122000,-1.73,9.81,0.88532263
3165382122000,-1.73,9.81,0.88532263
3165432384000,-1.65,9.72,0.88532263
3165482250000,-1.65,9.66,0.84446156
3165532238000,-1.65,9.7,0.84446156
3165582287000,-1.61,9.81,0.88532263
3165642223000,-1.69,9.81,0.8036005
3165692272000,-1.5,9.66,0.61291564
3165742321000,-1.27,9.47,0.8036005
3165792248000,-1.04,9.53,1.2258313
3165842297000,-1.33,9.92,1.4573772
3165892223000,-2.3,10.08,1.3075534
3165942272000,-2.49,9.7,0.7627395
3165992199000,-2.18,9.7,0.6537767
3166042278000,-1.8,9.72,0.7627395
3166092236000,-1.65,10.04,0.53119355
3166142284000,-1.53,9.81,0.19068487
3166192242000,-1.88,10.08,0.14982383
3166242290000,-1.84,9.89,0.313268
3166292217000,-1.23,9.28,0.6537767
3166342266000,-0.91,9.04,0.88532263
3166392223000,-0.95,9.34,0.9942854
3166442272000,-2.07,10.5,1.334794
3166492199000,-1.84,10.23,1.2258313
3166542278000,-1.76,9.66,1.1849703
3166592205000,-1.92,9.47,0.92618364
3166642315000,-1.8,9.51,0.7218784
3166692242000,-2.26,9.89,0.50395286
3166742260000,-2.03,9.92,0.53119355
3166792217000,-1.73,9.92,0.7627395
3166842297000,-2.03,9.96,0.5720546
3166892223000,-2.03,9.77,0.6537767
3166942272000,-1.99,9.51,0.6537767
3166992199000,-2.11,9.7,0.7627395
3167042278000,-1.88,9.58,1.0760075
3167092205000,-1.8,9.38,1.0760075
3167142315000,-1.84,9.34,1.1168685
3167192242000,-1.95,9.89,1.2666923
3167242260000,-1.61,10.08,1.2666923
3167292217000,-1.42,9.66,1.3075534
3167342266000,-1.84,9.53,1.1441092
3167392223000,-2.07,9.58,0.95342433
3167442272000,-2.22,9.62,0.88532263
3167492199000,-1.95,9.62,1.0760075
3167542278000,-1.46,9.53,1.0760075
3167592236000,-1.65,10.08,1.1849703
3167642315000,-1.88,9.89,0.9942854
3167692181000,-1.88,9.53,0.9942854
3167742260000,-1.8,9.58,0.95342433
3167792217000,-1.8,9.85,0.8036005
3167842266000,-1.65,9.89,0.88532263
3167892193000,-1.5,9.77,0.88532263
3167942333000,-1.5,9.7,0.53119355
3167992199000,-1.84,9.72,0.53119355
3168042278000,-1.76,9.66,0.61291564
3168092236000,-1.8,9.7,0.6946377
3168142315000,-1.92,10.04,0.88532263
3168192211000,-1.65,9.77,0.84446156
3168242290000,-1.84,9.72,0.88532263
3168292217000,-1.53,9.58,0.7627395
3168342266000,-1.5,9.7,0.95342433
3168392223000,-1.42,9.72,0.95342433
3168442272000,-1.65,9.85,0.92618364
3168492199000,-1.69,9.77,0.88532263
3168542309000,-1.73,9.81,0.95342433
3168592236000,-1.27,9.51,1.1168685
3168642284000,-1.46,9.77,1.2666923
3168692242000,-1.65,9.85,1.1441092
3168742290000,-1.57,9.7,1.1168685
3168792217000,-1.69,9.72,1.0351465
3168842266000,-1.57,9.72,1.0351465
3168892223000,-1.5,9.7,1.1168685
3168942303000,-1.5,9.53,1.1168685
3168992229000,-1.65,9.66,1.1849703
3168992229000,-1.65,9.66,1.1849703
3169092266000,-1.69,9.77,1.1849703
3169152538000,-1.73,9.85,1.0760075
3169202618000,-1.65,9.7,1.0760075
3169252331000,-1.5,9.66,1.0760075
3169302257000,-1.5,9.7,1.2666923
3169352276000,-1.57,9.81,0.95342433
3169402203000,-0.99,9.72,1.2258313
3169452251000,-1.69,9.89,1.334794
3169502239000,-1.46,9.66,1.2258313
3169552288000,-1.73,9.58,0.88532263
3169602276000,-1.61,9.53,0.95342433
3169652294000,-1.46,9.62,1.1849703
3169702221000,-1.8,9.81,1.1168685
3169752270000,-1.76,9.7,1.1441092
3169802257000,-1.65,9.62,1.1168685
3169852276000,-1.38,9.7,1.2666923
3169902233000,-1.27,9.72,1.1849703
3169952282000,-1.12,9.66,1.1849703
3170002209000,-1.33,9.66,1.0760075
3170052288000,-1.61,9.58,0.95342433
3170102215000,-1.92,9.89,0.88532263
3170152782000,-2.14,9.96,0.84446156
3170202251000,-1.84,9.7,0.7218784
3170252239000,-1.8,9.66,0.61291564
3170302257000,-1.84,9.72,0.6537767
3170352276000,-1.92,9.66,0.7627395
3170402325000,-1.84,9.7,0.84446156
3170452251000,-1.84,9.81,0.92618364
3170502209000,-1.73,10.08,0.84446156
3170552349000,-1.99,9.81,0.46309182
3170612255000,-1.61,9.62,0.5720546
3170662212000,-1.95,9.81,0.53119355
3170712231000,-2.03,9.72,0.7627395
3170762249000,-2.11,9.81,0.6946377
3170812267000,-2.14,9.47,0.53119355
3170862225000,-1.88,9.53,0.7218784
3170912243000,-1.69,9.77,0.92618364
3170962231000,-1.42,9.7,1.1441092
3171012279000,-1.61,9.72,1.1849703
3171062237000,-1.65,9.72,0.9942854
3171112286000,-1.46,9.58,0.95342433
3171162212000,-1.65,9.66,0.95342433
3171212261000,-1.73,9.77,0.95342433
3171262249000,-1.76,9.81,0.9942854
3171312267000,-1.76,9.66,1.0760075
3171362255000,-1.65,9.62,1.1168685
3171412243000,-1.8,9.66,0.9942854
3171462231000,-1.8,9.81,0.95342433
3171512249000,-1.76,9.81,0.92618364
3171562237000,-1.61,9.7,0.9942854
3171612286000,-1.57,9.58,0.95342433
3171612286000,-1.57,9.58,0.95342433
3171712231000,-1.57,9.77,1.1168685
3171762279000,-1.61,9.89,0.9942854
3171812237000,-1.61,9.77,0.95342433
3171862316000,-1.65,9.62,0.88532263
3171912334000,-1.65,9.7,0.88532263
3171962322000,-1.65,9.77,0.95342433
3172012218000,-1.65,9.72,1.1168685
3172012218000,-1.65,9.72,1.1168685
3172112286000,-1.65,9.66,1.0760075
3172112286000,-1.65,9.66,1.0760075
3172172466000,-1.65,9.7,1.0351465
3172222973000,-1.65,9.72,1.0351465
3172272564000,-1.57,9.66,1.0760075
3172323070000,-1.57,9.7,1.0760075
3172372662000,-1.53,9.66,1.1441092
3172422314000,-1.57,9.72,1.1849703
3172472576000,-1.61,9.72,1.1441092
3172523144000,-1.57,9.72,1.1168685
3172572674000,-1.57,9.7,1.0351465
3172622265000,-1.57,9.77,0.9942854
3172672558000,-1.57,9.72,0.9942854
3172723064000,-1.57,9.72,1.1168685
3172772594000,-1.5,9.77,1.1168685
3172823162000,-1.5,9.66,1.1441092
3172872692000,-1.53,9.7,1.0760075
3172922314000,-1.61,9.72,1.0760075
3172972546000,-1.61,9.77,1.0351465
3173023083000,-1.57,9.77,1.1441092
3173072582000,-1.53,9.7,1.0760075
3173123119000,-1.5,9.7,1.1441092
3173123119000,-1.5,9.7,1.1441092
3173222271000,-1.53,9.72,1.0760075
3173272533000,-1.57,9.72,1.1441092
3173323040000,-1.5,9.7,1.1168685
3173372570000,-1.46,9.7,1.1441092
3173423077000,-1.5,9.66,1.1168685
3173472546000,-1.53,9.72,1.1168685
3173523022000,-1.53,9.77,1.1168685
3173572613000,-1.46,9.7,1.1168685
3173623150000,-1.42,9.62,1.1168685
3173672680000,-1.5,9.72,1.1849703
3173722668000,-1.46,9.81,1.1849703
3173772259000,-1.61,9.72,0.9942854
3173822613000,-1.73,9.66,0.7627395
3173873119000,-1.88,9.62,0.6946377
3173922619000,-1.8,9.77,0.84446156
3173973125000,-1.73,9.89,0.9942854
3174022564000,-1.65,9.77,1.1849703
3174073101000,-1.38,9.7,1.1168685
3174122631000,-1.31,9.62,1.1849703
3174172283000,-1.14,9.58,1.3075534
3174222576000,-1.04,9.66,1.334794
3174273083000,-1.18,9.77,1.334794
3174322582000,-1.33,9.77,1.2258313
3174373119000,-1.57,9.72,0.9942854
3174422619000,-1.69,9.66,0.88532263
3174472301000,-1.76,9.72,0.92618364
3174522472000,-1.76,9.7,1.0351465
3174573009000,-1.65,9.66,0.88532263
3174622509000,-1.99,9.72,0.7218784
3174673016000,-2.11,9.81,0.6946377
3174722546000,-1.92,9.77,0.8036005
3174772991000,-1.76,9.66,0.8036005
3174822491000,-1.65,9.66,0.7218784
3174872997000,-1.8,9.77,0.88532263
3174872997000,-1.8,9.77,0.88532263
3174982342000,-1.84,9.81,0.88532263
3175032787000,-1.92,9.66,0.8036005
3175082226000,-1.92,9.77,0.7627395
3175132275000,-1.8,9.85,0.7218784
3175182232000,-1.99,9.85,0.5720546
3175232281000,-1.92,9.66,0.5720546
3175302257000,-1.84,9.77,0.7627395
3175352215000,-1.65,9.66,0.7627395
3175402264000,-1.8,9.7,0.92618364
3175452221000,-1.69,9.77,0.92618364
3175502300000,-1.95,9.92,0.95342433
3175552257000,-2.11,9.81,0.6537767
3175602276000,-2.11,9.72,0.61291564
3175652203000,-1.99,9.72,0.6537767
3175702282000,-1.92,9.62,0.7627395
3175752209000,-1.84,9.47,0.88532263
3175802349000,-1.76,9.53,0.95342433
3175852215000,-1.95,9.72,1.0351465
3175902264000,-1.95,9.77,0.7627395
3175952221000,-1.99,9.89,0.8036005
3176002270000,-1.46,11.92,-0.27240697
3176052227000,-1.8,8.24,0.7218784
3176102276000,-1.18,8.77,0.53119355
3176152233000,-1.95,9.66,1.1849703
3176202312000,-1.73,9.85,1.4165162
3176252239000,-1.73,9.72,1.3756552
3176302288000,-2.07,10.15,1.334794
3176352276000,-1.53,9.53,1.2258313
3176402264000,-1.73,9.47,1.1441092
3176452251000,-1.8,9.7,0.9942854
3176502270000,-1.84,9.81,0.95342433
3176552257000,-1.88,9.81,0.9942854
3176602276000,-1.69,9.77,0.84446156
3176652233000,-1.57,9.72,0.88532263
3176702312000,-1.5,9.58,0.92618364
3176752239000,-1.42,9.62,1.0760075
3176802319000,-1.42,9.89,1.2666923
3176862286000,-1.46,9.81,1.334794
3176912212000,-1.61,9.85,1.4165162
3176962231000,-1.5,9.62,1.2258313
3177012249000,-1.38,9.62,1.3756552
3177062237000,-1.31,9.53,1.3756552
3177112225000,-1.38,9.62,1.4982382
3177162273000,-1.46,9.7,1.5390993
3177212231000,-1.65,9.85,1.6480621
3177262249000,-1.5,10.0,1.607201
3177312206000,-1.5,9.81,1.4165162
3177362286000,-1.31,9.72,1.3075534
3177412212000,-1.38,9.51,0.9942854
3177462231000,-1.5,9.53,0.9942854
3177512218000,-1.69,9.53,0.7627395
3177562237000,-1.38,9.34,0.7218784
3177612225000,-1.14,9.53,0.9942854
3177662273000,-0.65,10.38,1.2666923
3177712200000,-0.34,9.51,1.2258313
3177762249000,-0.11,9.19,0.9942854
3177812237000,0.19,9.38,1.4573772
3177812237000,0.19,9.38,1.4573772
3177812237000,0.19,9.38,1.4573772
3177962200000,-0.46,10.34,2.070293
3178012218000,-0.61,9.77,1.5390993
3178062237000,-1.04,9.72,0.9942854
3178112316000,-0.8,9.0,1.0760075
3178162212000,-1.31,9.66,1.7570249
3178212261000,-1.5,9.62,1.607201
3178262249000,-1.88,9.92,1.6480621
3178312267000,-2.22,10.12,1.7978859
3178362225000,-1.95,9.85,2.8738933
3178412273000,-1.12,9.7,3.0645783
3178462200000,-0.84,9.47,2.2201166
3178512279000,-1.14,9.19,2.152015
3178562237000,-0.65,8.96,2.152015
3178612560000,0.04,9.34,2.6014864
3178662212000,1.65,9.04,2.9147544
3178712231000,1.99,9.66,3.173541
3178762218000,2.22,9.51,3.255263
3178812267000,1.27,8.77,2.5606253
3178862255000,1.04,8.77,2.3699405
3178912273000,0.46,9.62,2.1111538
3178962200000,0.19,10.27,2.3018389
3179012279000,0.69,10.95,2.7921712
3179062237000,1.31,12.03,4.2086873
3179112286000,0.42,9.53,3.405087
3179162212000,0.19,7.21,2.152015
3179262218000,-0.19,7.78,2.9147544
3179312237000,-0.19,7.74,2.7240696
3179362225000,-1.38,10.42,2.6423476
3179412273000,-1.65,11.56,4.099725
3179462200000,-0.15,8.96,2.6014864
3179512279000,-1.8,8.89,1.0760075
3179562267000,-1.61,11.5,3.5957718
3179612286000,0.89,10.42,2.9556155
3179662273000,-1.57,8.73,1.1849703
3179712231000,-1.61,9.38,1.6480621
3179762310000,-0.8,9.15,1.5390993
3179812267000,-2.18,10.15,1.4573772
3179862225000,-2.11,9.53,1.3756552
3179912243000,-0.91,9.72,1.2666923
3179962231000,-0.61,9.72,1.4982382
3180012249000,-0.23,9.53,1.1441092
3180062206000,-0.76,9.89,1.2666923
3180112255000,-1.18,9.66,0.6946377
3180162212000,-1.46,9.81,0.5720546
3180212231000,-1.31,9.92,0.50395286
3180262218000,-0.72,9.85,0.38136974
3180312298000,-0.57,9.89,0.23154591
3180362225000,-0.8,10.0,0.42223078
3180412243000,-1.31,9.96,0.5720546
3180462231000,-1.18,9.77,0.7218784
3180512310000,-0.61,9.7,0.6537767
3180562206000,-0.72,9.85,0.6537767
3180612255000,-0.89,10.08,0.84446156
3180662212000,-0.95,9.77,0.95342433
3180712231000,-0.61,9.51,0.92618364
3180762218000,-0.84,9.81,0.95342433
3180812237000,-1.14,9.81,0.88532263
3180862225000,-1.18,9.92,0.8036005
3180912273000,-1.33,9.72,0.88532263
3180962231000,-1.31,9.77,0.6946377
3181012249000,-1.53,9.81,0.88532263
3181062237000,-1.57,9.96,0.84446156
3181112255000,-1.8,9.89,0.92618364
3181162273000,-1.88,9.72,0.7627395
3181212231000,-1.73,9.7,0.84446156
3181262249000,-1.5,9.66,0.7218784
3181312237000,-1.53,9.92,0.92618364
3181362255000,-1.5,9.77,0.84446156
3181412243000,-1.27,9.81,1.0760075
3181462231000,-1.27,9.72,1.1168685
3181512249000,-1.23,9.77,1.1849703
3181562206000,-1.18,9.72,1.2258313
3181612286000,-1.18,9.77,1.334794
3181662212000,-1.31,9.72,1.2666923
3181712231000,-1.46,9.85,1.334794
3181762218000,-1.23,9.62,1.3075534
3181812237000,-1.31,9.7,1.4573772
3181862225000,-1.18,9.53,1.2666923
3181912640000,-1.27,9.81,1.4982382
3181962200000,-1.18,9.7,1.4982382
3182012279000,-1.33,9.89,1.607201
3182062237000,-1.27,9.7,1.4165162
3182112255000,-1.27,9.77,1.56634
3182162212000,-0.84,9.38,1.3756552
3182212231000,-0.84,9.7,1.607201
3182262218000,-0.72,9.3,1.2666923
3182312237000,-1.27,10.0,1.4165162
3182362225000,-0.89,9.81,1.56634
3182412243000,-0.89,9.58,1.4982382
3182462231000,-0.95,9.53,1.4573772
3182512249000,-1.38,9.85,1.3756552
3182562237000,-1.38,9.89,1.4165162
3182612286000,-1.46,9.96,1.6480621
3182662212000,-1.23,9.89,1.607201
3182712200000,-1.23,9.66,1.607201
3182762218000,-1.18,9.66,1.6480621
3182812237000,-1.46,9.66,1.56634
3182862286000,-1.46,9.58,1.3756552
3182912273000,-1.69,9.66,1.3756552
3182962414000,-1.57,9.47,1.334794
3182962414000,-1.57,9.47,1.334794
3183062206000,-1.38,9.62,1.56634
3183112316000,-1.5,9.7,1.4165162
3183112316000,-1.5,9.7,1.4165162
3183172619000,-1.76,9.81,1.2258313
3183223125000,-1.61,9.85,1.0351465
3183272686000,-1.38,9.81,0.9942854
3183322308000,-1.42,9.81,1.1441092
3183372662000,-1.33,9.7,1.1441092
3183422283000,-1.12,9.58,1.1441092
3183472546000,-1.23,9.7,1.1441092
3183523083000,-1.42,9.77,1.3075534
3183572552000,-1.23,9.62,1.1849703
3183623058000,-1.23,9.85,1.3075534
3183672558000,-1.31,9.81,1.2666923
3183723095000,-1.38,9.85,1.3756552
3183772625000,-1.18,9.62,1.2258313
3183822277000,-1.31,9.72,1.3756552
3183872570000,-1.46,9.7,1.3075534
3183923077000,-1.42,9.81,1.4982382
3183972607000,-1.27,9.62,1.4573772
3184023083000,-1.23,9.7,1.4165162
3184072643000,-1.27,9.81,1.4573772
3184072643000,-1.27,9.81,1.4573772
3184172527000,-1.27,9.7,1.334794
3184222240000,-1.14,9.66,1.3075534
3184272778000,-1.42,9.72,1.334794
3184322826000,-1.53,9.66,1.3075534
3184372295000,-1.53,9.77,1.3075534
3184422863000,-1.42,9.51,1.3756552
3184472424000,-1.53,9.7,1.4573772
3184522961000,-1.69,9.81,1.334794
3184572613000,-1.8,9.77,1.2666923
3184623028000,-1.76,9.66,1.0351465
3184672588000,-1.73,9.85,1.1168685
3184723705000,-1.46,9.53,1.0351465
3184772716000,-1.33,9.77,1.1441092
3184822277000,-1.12,9.53,1.2258313
3184872631000,-1.18,9.58,1.4165162
3184922283000,-1.5,10.0,1.4982382
3184972576000,-1.69,9.62,1.4165162
3185023083000,-1.46,9.72,1.4573772
3185072643000,-1.42,9.62,1.3075534
3185123180000,-1.23,9.66,1.4982382
3185172680000,-1.38,9.77,1.56634
3185222301000,-1.42,9.66,1.3075534
3185272655000,-1.69,9.85,1.3075534
3185322277000,-1.57,9.53,1.1441092
3185372570000,-1.61,9.72,1.2666923
3185423107000,-1.5,9.62,1.2258313
3185472607000,-1.46,9.77,1.334794
3185523083000,-1.53,9.7,1.334794
3185572582000,-1.42,9.66,1.334794
3185623089000,-1.42,9.7,1.4165162
3185672649000,-1.31,9.62,1.3756552
3185722271000,-1.46,9.7,1.3756552
3185772533000,-1.38,9.7,1.3756552
3185823070000,-1.53,9.72,1.4573772
3185872601000,-1.33,9.62,1.4165162
3185923077000,-1.42,9.72,1.56634
3185972607000,-1.31,9.62,1.4982382
3186023083000,-1.38,9.7,1.607201
3186072613000,-1.33,9.66,1.4165162
3186123089000,-1.33,9.72,1.56634
3186172588000,-1.18,9.66,1.4982382
3186223064000,-1.27,9.66,1.607201
3186272564000,-1.27,9.66,1.56634
3186323070000,-1.42,9.72,1.5390993
3186372601000,-1.38,9.7,1.56634
3186423077000,-1.33,9.66,1.56634
3186472576000,-1.23,9.7,1.6480621
3186523113000,-1.18,9.66,1.56634
3186523113000,-1.18,9.66,1.56634
3186623058000,-1.27,9.7,1.56634
3186623058000,-1.27,9.7,1.56634
3186722942000,-1.33,9.7,1.5390993
3186772411000,-1.33,9.7,1.56634
3186822887000,-1.33,9.7,1.4982382
3186872417000,-1.23,9.66,1.5390993
3186922924000,-1.23,9.62,1.607201
3186972424000,-1.23,9.72,1.607201
3187022961000,-1.18,9.7,1.4573772
3187072430000,-1.18,9.77,1.4573772
3187122997000,-1.31,9.62,1.4573772
3187172497000,-1.23,9.62,1.3756552
3187223614000,-1.38,9.77,1.4573772
3187273144000,-1.42,9.66,1.334794
3187322613000,-1.42,9.81,1.4165162
3187373119000,-1.31,9.62,1.4165162
3187422649000,-1.23,9.85,1.5390993
3187472271000,-1.08,9.62,1.4573772
3187522564000,-1.04,9.7,1.56634
3187573101000,-1.14,9.66,1.4573772
3187622601000,-1.12,9.77,1.56634
3187673077000,-1.23,9.53,1.4982382
3187722637000,-1.38,9.77,1.334794
3187773083000,-1.57,9.77,1.3075534
3187822613000,-1.57,9.58,1.334794
3187873089000,-1.53,9.7,1.3756552
3187922558000,-1.5,9.7,1.334794
3187973095000,-1.53,9.85,1.4165162
3188022655000,-1.46,9.66,1.3075534
3188073101000,-1.38,9.72,1.334794
3188122601000,-1.38,9.66,1.334794
3188173107000,-1.23,9.66,1.3756552
3188222637000,-1.23,9.72,1.4165162
3188272259000,-1.27,9.77,1.2258313
3188322552000,-1.53,9.92,1.1849703
3188373058000,-1.65,9.66,1.0760075
3188422619000,-1.73,9.77,1.2258313
3188473125000,-1.38,9.62,1.334794
3188522625000,-1.18,9.72,1.5390993
3188572277000,-0.8,9.51,1.607201
3188622509000,-0.8,9.77,1.6889231
3188673016000,-1.31,9.77,1.4573772
3188722546000,-1.65,9.72,1.3075534
3188773022000,-1.57,9.66,1.2666923
3188822521000,-1.14,9.51,1.607201
3188872997000,-0.69,9.66,1.8387469
3188922466000,-0.34,9.7,1.879608
3188973156000,-0.61,9.81,1.7297841
3189022442000,-1.04,9.85,1.4982382
3189072918000,-1.27,9.72,1.2666923
3189122448000,-1.53,9.53,1.2666923
3189172924000,-1.53,9.62,1.2666923
3189222332000,-1.38,9.58,1.3756552
3189272381000,-1.08,9.66,1.5390993
3189322857000,-1.42,9.96,1.4165162
3189382275000,-1.38,9.96,1.3075534
3189432537000,-1.31,9.72,1.334794
3189482281000,-1.14,9.58,1.3756552
3189532268000,-1.31,9.77,1.3075534
3189582287000,-1.42,9.72,1.1849703
3189632244000,-1.33,9.66,1.334794
3189682262000,-1.61,9.81,1.3756552
3189732250000,-1.88,9.96,1.2666923
3189782268000,-1.46,9.66,1.4982382
3189832256000,-0.72,9.51,1.879608
3189882275000,-0.34,9.51,2.070293
3189882275000,-0.34,9.51,2.070293
3189972820000,-0.99,9.7,1.9885708
3190022808000,-1.08,9.47,1.6480621
3190072338000,-1.27,9.7,1.879608
3190122265000,-0.91,9.72,1.879608
3190172619000,-0.91,9.72,1.7297841
3190232250000,-1.23,9.72,1.56634
3190302288000,-1.31,9.62,1.4573772
3190352398000,-1.33,9.58,1.4573772
3190402264000,-0.99,9.77,1.7297841
3190452373000,-0.8,9.62,1.8387469
3190502239000,-0.89,9.53,1.879608
3190552349000,-1.04,9.7,1.7978859
3190612255000,-1.04,9.53,1.9477097
3190662212000,-0.95,9.58,1.9885708
3190712231000,-0.91,9.62,1.7978859
3190762188000,-0.95,9.62,1.7978859
3190812267000,-1.12,9.72,1.920469
3190812267000,-1.12,9.72,1.920469
3190912365000,-1.23,9.58,1.6480621
3190962200000,-1.23,9.77,1.7570249
3191012249000,-0.89,9.53,1.7570249
3191062237000,-0.84,9.53,1.879608
3191112255000,-0.8,9.7,1.7297841
3191162273000,-1.04,9.81,1.6480621
3191212200000,-1.23,9.77,1.3756552
3191262249000,-1.42,9.7,1.5390993
3191312237000,-1.14,9.66,1.56634
3191362286000,-1.08,9.7,1.7570249
3191412212000,-0.89,9.62,1.7570249
3191462292000,-1.08,9.72,1.7978859
3191512218000,-0.99,9.7,1.7297841
3191562267000,-1.14,9.66,1.7570249
3191612225000,-0.95,9.66,1.6889231
3191662243000,-0.99,9.66,1.6480621
3191712200000,-0.84,9.62,1.5390993
3191762249000,-1.08,9.51,1.4982382
3191812267000,-1.12,9.77,1.3756552
3191862255000,-1.38,10.0,1.3075534
3191912212000,-1.88,9.7,1.1168685
3191962292000,-1.27,9.58,1.0760075
3192012218000,-1.27,9.92,1.2258313
3192062267000,-1.46,9.72,1.334794
3192112225000,-1.46,9.62,0.9942854
3192162273000,-1.61,9.89,1.1849703
3192212261000,-1.42,9.81,1.2666923
3192262310000,-1.23,9.58,1.1849703
3192312206000,-1.33,9.7,1.2666923
3192362286000,-1.53,9.53,0.95342433
3192412212000,-1.38,9.34,1.2666923
3192462231000,-0.84,9.3,1.4573772
3192512249000,-1.04,9.92,1.6480621
3192562237000,-1.14,10.23,1.607201
3192612225000,-1.53,10.15,1.0760075
3192662243000,-1.69,9.81,0.92618364
3192712200000,-1.8,9.66,0.6946377
3192762279000,-2.26,9.89,0.88532263
3192812237000,-2.22,9.77,1.0351465
3192862255000,-2.07,10.12,1.607201
3192912212000,-1.8,9.53,1.56634
3192962261000,-1.46,9.15,1.6480621
3193012249000,-1.38,9.53,1.7978859
3193062267000,-1.31,9.38,1.56634
3193112255000,-1.92,9.28,1.0351465
3193162273000,-1.95,9.3,0.5720546
3193212261000,-2.07,10.04,0.53119355
3193262279000,-1.5,9.7,0.38136974
3193362286000,1.84,10.0,0.08172209
3193412212000,0.5,10.19,0.08172209
3193462231000,0.69,10.73,0.10896278
3193512249000,1.5,9.43,-0.42223078
3193562267000,0.19,9.34,-0.6537767
3193612225000,-0.23,10.76,-2.2201166
3193662243000,-1.18,10.15,-1.3075534
3193712231000,-0.72,9.96,-0.5720546
3193762249000,-2.14,10.69,0.8036005
3193812237000,-1.95,10.46,-0.46309182
3193862255000,-2.07,9.51,-0.53119355
3193912212000,-3.3,9.62,0.84446156
3193962261000,-2.34,9.51,1.7297841
3194012249000,-1.8,9.89,2.5333846
3194062267000,-2.18,9.58,3.336985
3194112225000,-1.53,9.08,2.8738933
3194162304000,-0.3,8.58,3.255263
3194212261000,-1.33,9.3,3.9090397
3194262279000,-1.65,9.28,3.1054392
3194312267000,-1.27,9.62,2.982856
3194362255000,-1.76,9.77,2.982856
3194412212000,-0.23,9.08,3.1463003
3194462261000,0.57,8.47,3.405087
3194512218000,-0.57,9.19,3.5957718
3194562237000,-1.12,9.19,3.0237172
3194612286000,-0.65,8.69,2.3426998
3194662273000,-1.31,9.11,2.8330324
3194712231000,-1.76,9.58,2.5606253
3194762279000,-1.14,9.81,2.7921712
3194812237000,-0.57,9.43,2.5333846
3194862286000,-0.99,9.38,2.3018389
3194912243000,-1.12,9.28,2.1111538
3194962261000,-1.73,9.89,1.920469
3195012279000,-2.22,9.58,1.56634
3195062298000,-1.8,9.92,1.6889231
3195112377000,-1.57,9.96,1.7978859
3195162273000,-0.84,9.51,1.7570249
3195212261000,-1.08,8.92,1.5390993
3195262249000,-1.12,9.62,1.7978859
3195312206000,-1.08,9.77,1.56634
3195362255000,-1.5,9.89,1.607201
3195362255000,-1.5,9.89,1.607201
3195432293000,-1.42,9.81,1.1849703
3195482281000,-1.88,9.43,1.1849703
3195532268000,-2.18,9.58,0.95342433
3195592266000,-2.26,9.62,1.0760075
3195642254000,-1.92,9.85,1.3756552
3195692303000,-1.61,10.08,1.334794
3195742199000,-1.12,9.77,1.2666923
3195792309000,-1.23,9.38,1.1168685
3195842236000,-1.31,9.66,1.2258313
3195892376000,-1.33,9.62,1.1849703
3195942333000,-1.23,9.72,1.334794
3195992290000,-1.38,9.85,1.2666923
3196042278000,-1.33,9.7,1.1441092
3196092236000,-1.33,9.66,1.1168685
3196152325000,-1.53,9.62,1.0351465
3196212261000,-1.61,9.72,1.0351465
3196262218000,-1.61,9.7,1.0760075
3196312267000,-1.38,9.62,1.1441092
3196362255000,-1.33,9.7,1.2666923
3196412273000,-1.38,9.72,1.1441092
3196462231000,-1.69,9.77,1.0760075
3196512279000,-1.95,9.77,0.7627395
3196562176000,-1.46,9.53,0.7627395
3196612286000,-1.5,9.53,1.0351465
3196612286000,-1.5,9.53,1.0351465
3196712200000,-1.84,10.04,1.2666923
3196762310000,-1.76,9.81,1.0351465
3196762310000,-1.76,9.81,1.0351465
3196822643000,-1.95,9.81,0.6946377
3196872265000,-2.07,9.89,0.5720546
3196922558000,-1.99,9.62,0.6946377
3196973095000,-1.61,9.62,0.92618364
3197022655000,-1.31,9.58,1.1168685
3197072277000,-1.31,9.53,1.2666923
3197122692000,-1.33,9.66,1.2258313
3197172283000,-1.5,9.89,1.334794
3197222607000,-1.69,9.92,1.3075534
3197273144000,-1.73,9.72,1.1849703
3197322643000,-1.61,9.58,1.0351465
3197372265000,-1.57,9.51,1.1168685
3197422558000,-1.33,9.58,1.1168685
3197473095000,-1.5,9.77,1.1441092
3197522625000,-1.38,9.66,1.0351465
3197572308000,-1.42,9.58,1.1849703
3197622539000,-1.33,9.66,1.0760075
3197673046000,-1.73,9.85,1.1168685
3197722576000,-1.76,9.81,1.0760075
3197773083000,-1.76,9.72,0.92618364
3197822613000,-1.76,9.7,0.92618364
3197872295000,-1.73,9.58,0.7218784
3197922619000,-1.61,9.53,0.8036005
3197973064000,-1.42,9.77,0.8036005
3198022594000,-1.46,9.92,0.95342433
3198073101000,-1.18,9.72,0.7627395
3198122631000,-1.8,9.81,0.7218784
3198172283000,-1.69,9.72,0.53119355
3198222546000,-1.95,9.77,0.5720546
3198273022000,-2.49,9.81,0.38136974
3198322552000,-2.03,10.08,0.27240697
3198373058000,-0.91,9.53,0.61291564
3198422619000,-1.23,9.53,0.53119355
3198472301000,-1.84,9.89,0.38136974
3198522564000,-2.91,10.08,0.08172209
3198573101000,-2.03,9.3,0.5720546
3198622631000,-0.8,9.43,0.8036005
3198672558000,-0.42,9.77,0.61291564
3198722576000,-0.95,10.46,0.61291564
3198773083000,-2.22,10.31,0.53119355
3198822643000,-2.56,10.08,-0.42223078
3198872295000,-2.56,9.43,-0.29964766
3198973064000,-1.46,9.58,0.23154591
3199022533000,-0.46,10.04,0.6537767
3199073070000,-0.42,10.0,1.3075534
3199122601000,-0.91,10.04,0.84446156
3199173107000,-0.99,9.53,0.6946377
3199222576000,-1.61,9.66,0.5720546
3199273083000,-2.3,9.89,0.61291564
3199322643000,-1.92,9.96,0.27240697
3199373089000,-2.03,9.85,0.42223078
3199422619000,-1.76,9.7,0.50395286
3199472240000,-1.84,9.7,0.50395286
3199522564000,-2.11,9.62,0.50395286
3199573101000,-2.41,10.15,0.7218784
3199622570000,-2.03,9.92,0.46309182
3199673077000,-1.84,9.53,0.50395286
3199722576000,-1.42,9.43,0.88532263
3199773052000,-1.14,9.43,0.95342433
3199822582000,-1.46,9.89,1.0760075
3199873119000,-1.69,9.85,0.8036005
3199922619000,-1.92,9.62,0.7627395
3199973125000,-1.61,9.28,1.1849703
3200022564000,-1.12,9.72,1.1849703
3200073101000,-1.27,10.34,1.2258313
3200122631000,-1.92,9.85,1.1168685
3200172283000,-2.14,9.85,0.46309182
3200222515000,-1.84,9.43,0.3405087
3200273418000,-1.69,9.51,0.7627395
3200322552000,-1.18,9.58,0.6537767
3200373089000,-1.69,10.15,0.8036005
3200422588000,-2.11,10.04,0.53119355
3200473095000,-2.56,9.81,0.42223078
3200522625000,-2.26,9.43,0.313268
3200573070000,-2.07,9.66,0.5720546
3200622539000,-1.57,9.62,0.61291564
3200673046000,-1.95,9.85,0.7627395
3200723125000,-2.03,10.0,0.5720546
3200772594000,-1.5,9.62,0.61291564
3200823070000,-1.27,9.47,0.88532263
3200872601000,-1.08,9.72,1.0351465
3200923138000,-1.18,10.08,1.1441092
3200983746000,-1.42,10.12,0.88532263
3201042309000,-1.33,9.34,0.5720546
3201092236000,-1.69,9.62,0.46309182
3201142284000,-1.65,9.85,0.46309182
3201202679000,-1.69,9.85,0.7218784
3201252209000,-1.57,9.77,0.7218784
3201302288000,-1.27,9.77,0.95342433
3201352245000,-1.31,9.89,0.92618364
3201402264000,-1.33,9.72,0.7627395
3201452251000,-1.57,9.7,0.7218784
3201502270000,-1.88,9.7,0.50395286
3201552257000,-1.31,9.58,0.5720546
3201602337000,-1.27,9.81,0.6946377
3201652233000,-1.18,9.7,0.7627395
3201702343000,-1.5,9.72,0.84446156
3201762279000,-1.53,9.92,0.88532263
3201812267000,-1.27,10.12,0.92618364
3201862255000,-1.61,10.04,1.0760075
3201912212000,-1.65,9.58,0.7627395
3202012279000,-1.65,11.35,0.6946377
3202062267000,-2.18,9.0,0.313268
3202112225000,-1.27,9.85,-0.08172209
3202212261000,-2.14,9.7,0.6537767
3202262249000,-1.33,9.85,0.23154591
3202312237000,-0.89,9.43,0.8036005
3202362255000,-0.89,10.12,1.2258313
3202412212000,-1.27,10.53,1.4165162
3202462261000,-1.31,9.66,1.0351465
3202512524000,-0.89,9.53,0.88532263
3202562267000,-0.99,9.7,0.9942854
3202612225000,-1.12,9.85,0.9942854
3202662273000,-0.8,9.62,1.2258313
3202712200000,-0.72,10.0,1.1849703
3202762341000,-1.12,10.0,1.1849703
3202812450000,-1.31,9.53,0.92618364
3202812450000,-1.31,9.53,0.92618364
3202912243000,-1.33,9.66,0.92618364
3202962292000,-1.42,9.81,0.9942854
3202962292000,-1.42,9.81,0.9942854
3203023144000,-1.31,9.77,1.0351465
3203072643000,-1.14,9.7,0.9942854
3203122295000,-1.18,9.89,1.0760075
3203172680000,-1.18,9.66,0.95342433
3203222271000,-1.23,9.85,1.1441092
3203272655000,-1.08,9.77,0.95342433
3203322308000,-1.14,9.77,1.1441092
3203372570000,-1.14,9.85,1.1441092
3203423138000,-0.95,9.77,1.1168685
3203472698000,-1.04,9.81,1.2258313
3203522259000,-0.76,9.58,1.1849703
3203572735000,-0.69,9.92,1.3075534
3203623180000,-0.84,9.81,1.2258313
3203672710000,-1.18,9.77,1.1168685
3203722271000,-1.27,9.81,1.0351465
3203772625000,-1.27,9.72,0.92618364
3203822369000,-1.23,9.77,0.95342433
3203872814000,-1.18,9.77,0.88532263
3203922314000,-1.27,9.85,0.92618364
3203972790000,-1.18,9.7,0.84446156
3204022320000,-1.31,9.81,0.92618364
3204072857000,-1.27,9.7,0.92618364
3204122387000,-1.18,9.81,0.95342433
3204172863000,-1.31,9.89,0.95342433
3204222424000,-1.18,9.72,0.84446156
3204272900000,-1.38,9.81,0.84446156
3204322460000,-1.33,9.66,0.6537767
3204372936000,-1.73,9.89,0.6537767
3204422466000,-1.69,9.77,0.5720546
3204472942000,-1.99,9.96,0.5720546
3204522503000,-1.92,9.77,0.50395286
3204572979000,-1.88,9.77,0.50395286
3204622509000,-1.8,9.81,0.5720546
3204673046000,-1.46,9.7,0.61291564
3204722546000,-1.31,9.85,0.84446156
3204773052000,-1.18,9.7,0.88532263
3204822582000,-1.12,9.92,1.0351465
3204873058000,-0.95,9.66,0.92618364
3204922558000,-1.14,10.04,0.92618364
3204973186000,-1.08,9.77,0.8036005
3205022625000,-0.95,9.81,0.95342433
3205073132000,-0.84,9.7,0.95342433
3205122662000,-0.76,9.81,1.1441092
3205172283000,-0.65,9.72,1.0760075
3205222576000,-0.69,9.89,1.1849703
3205273113000,-0.57,9.77,1.2258313
3205322613000,-0.65,9.85,1.1849703
3205373119000,-0.69,9.58,1.1168685
3205422619000,-0.84,9.77,1.4165162
3205472271000,-0.57,9.77,1.7297841
3205522564000,-0.53,9.85,1.9477097
3205573070000,-0.57,9.66,1.8387469
3205622539000,-0.61,9.58,1.56634
3205672985000,-0.57,9.72,1.56634
3205722485000,-0.69,9.96,1.6889231
3205773022000,-0.61,9.77,1.3756552
3205822491000,-0.69,9.77,1.1849703
3205910381000,-0.89,9.77,1.1441092
3205962231000,-1.04,9.77,0.95342433
3206012463000,-1.12,9.77,0.95342433
3206012463000,-1.12,9.77,0.95342433
3206112286000,-1.12,9.66,0.92618364
3206162304000,-1.23,9.81,0.95342433
3206162304000,-1.23,9.81,0.95342433
3206222759000,-1.27,9.72,0.84446156
3206282268000,-1.31,9.89,0.88532263
3206332287000,-1.5,9.85,0.95342433
3206382488000,-1.27,9.77,1.1441092
3206432232000,-1.18,9.77,1.334794
3206482311000,-1.31,9.85,1.1849703
3206532268000,-1.61,9.58,0.88532263
3206582317000,-1.8,9.38,0.7627395
3206632275000,-1.73,9.89,0.6946377
3206682293000,-1.61,10.12,0.8036005
3206732281000,-1.33,9.81,0.53119355
3206782299000,-1.46,9.7,0.27240697
3206832256000,-1.27,9.7,0.46309182
3206882305000,-0.84,9.96,0.38136974
3206932232000,-0.76,9.77,0.50395286
3206982281000,-0.23,9.7,0.5720546
3207032238000,-0.65,9.89,0.53119355
3207082317000,-1.14,10.0,0.46309182
3207132244000,-1.18,10.0,0.42223078
3207182232000,-0.95,9.77,0.42223078
3207232281000,-0.76,9.89,0.61291564
3207282268000,-0.38,9.77,0.50395286
3207332317000,-0.76,9.85,0.5720546
3207382275000,-1.08,9.81,0.53119355
3207432232000,-1.31,10.0,0.50395286
3207482281000,-1.23,9.89,0.53119355
3207532238000,-1.18,9.92,0.53119355
3207582287000,-1.23,9.85,0.38136974
3207632519000,-1.18,9.77,0.23154591
3207682262000,-1.08,9.81,0.23154591
3207732250000,-1.08,10.0,0.313268
3207782299000,-1.18,9.77,0.5720546
3207832409000,-0.89,9.47,0.7627395
3207882275000,-0.15,9.77,0.9942854
3207932262000,0.04,9.85,1.0760075
3207982281000,-0.3,9.92,0.92618364
3208042248000,-0.89,9.96,0.92618364
3208142284000,0.38,9.85,0.9942854
3208192211000,0.11,9.66,0.7627395
3208242260000,0.31,9.89,0.6946377
3208292248000,0.42,9.77,0.7627395
3208342327000,0.38,9.96,0.53119355
3208392223000,-0.15,9.96,0.42223078
3208442272000,-0.19,9.96,0.8036005
3208492199000,-0.08,10.15,1.1849703
3208542278000,0.69,9.72,0.7218784
3208592297000,0.76,9.72,0.46309182
3208642284000,0.19,9.81,0.23154591
3208692211000,-0.42,9.89,0.14982383
3208792217000,-0.5,9.92,0.27240697
3208842266000,-0.3,9.85,0.42223078
3208892284000,-0.42,9.89,0.3405087
3208952343000,-0.72,9.96,0.10896278
3209002209000,-0.34,9.89,0.19068487
3209102276000,-0.15,9.85,0.27240697
3209152294000,-0.38,9.92,0.27240697
3209212231000,-0.42,9.92,0.10896278
3209262218000,-0.3,9.96,0.23154591
3209312237000,-0.27,9.81,0.27240697
3209362225000,-0.19,9.92,0.42223078
3209412243000,0.08,9.89,0.88532263
3209462200000,-0.04,10.12,0.7627395
3209512249000,0.08,9.89,0.46309182
3209562267000,-0.38,9.77,0.23154591
3209612286000,-0.84,9.89,0.14982383
3209662212000,-0.91,9.81,0.08172209
3209712261000,-0.5,9.66,0.23154591
3209762218000,-0.19,9.96,0.5720546
3209812267000,-0.42,9.89,0.88532263
3209862225000,-0.23,9.81,0.84446156
3209962200000,-0.19,9.81,0.9942854
3210012218000,-0.53,9.92,1.0760075
3210062206000,-0.27,9.89,1.0351465
3210112255000,-0.27,9.85,0.84446156
3210162273000,-0.53,9.81,0.5720546
3210212261000,-1.14,9.89,0.14982383
3210312267000,-1.31,9.81,0.08172209
3210362255000,3.06,11.73,3.0645783
3210412273000,-6.66,6.32,-1.2258313
3210462200000,1.12,12.41,1.1168685
3210512279000,-2.98,9.15,-0.42223078
3210562206000,-2.11,10.42,1.7978859
3210612286000,-1.31,9.34,0.10896278
3210662212000,-1.5,9.85,1.1849703
3210712292000,-1.08,9.72,0.53119355
3210762249000,-1.14,9.77,1.0760075
3210812267000,-0.91,9.81,0.88532263
3210862225000,-0.5,9.85,1.0351465
3210912273000,-0.57,9.89,0.88532263
3210962200000,-0.65,9.72,0.84446156
3211012249000,-0.72,9.81,0.53119355
3211062206000,-0.95,9.89,0.53119355
3211112286000,-0.91,9.77,0.46309182
3211162212000,-0.95,9.89,0.53119355
3211212261000,-1.04,9.81,0.42223078
3211262249000,-1.08,9.89,0.42223078
3211312267000,-1.14,9.81,0.38136974
3211362225000,-1.14,9.77,0.27240697
3211412243000,-1.38,9.81,0.46309182
3211462231000,-1.23,9.72,0.38136974
3211512279000,-1.53,10.04,0.5720546
3211562267000,-1.65,9.72,0.42223078
3211612255000,-1.88,9.89,0.42223078
3211662243000,-1.8,9.77,0.27240697
3211712231000,-1.84,9.85,0.3405087
3211762218000,-1.65,9.66,0.14982383
3211812267000,-1.95,9.96,0.313268
3211862225000,-1.88,9.66,0.10896278
3211912273000,-1.76,9.89,0.19068487
3211962200000,-1.92,9.85,0.19068487
3212012279000,-1.76,9.81,0.14982383
3212062206000,-1.95,9.81,0.19068487
3212112255000,-1.65,9.89,0.19068487
3212162212000,-1.8,9.92,0.23154591
3212212231000,-1.8,9.77,0.23154591
3212262218000,-2.14,9.96,0.14982383
3212312267000,-2.07,9.72,0.08172209
3212362255000,-1.99,9.96,0.23154591
3212412243000,-1.73,9.81,0.23154591
3212462200000,-1.04,9.85,0.42223078
3212512646000,-0.69,9.85,0.6946377
3212562206000,-0.42,9.77,0.95342433
3212612255000,-0.46,9.77,1.2666923
3212662212000,-0.23,9.72,1.334794
3212712261000,-0.19,9.66,1.4573772
3212762218000,-0.19,9.72,1.4573772
3212812267000,-0.5,9.53,1.56634
3212862225000,-0.53,9.77,1.4982382
3212912243000,-0.89,9.85,1.5390993
3212962261000,-0.76,9.7,1.56634
3213012249000,-0.57,9.66,1.56634
3213062237000,-0.65,9.72,1.6889231
3213112286000,-0.69,9.81,1.6480621
3213162273000,-0.53,9.66,1.5390993
3213212231000,-0.8,9.66,1.4165162
3213262218000,-1.04,9.72,1.3075534
3213312267000,-1.42,9.85,1.1441092
3213362225000,-1.5,9.85,1.1168685
3213412304000,-1.23,9.72,1.0760075
3213462231000,-0.8,9.66,1.1168685
3213512279000,-0.65,9.77,1.2666923
3213562206000,-0.53,9.72,1.2258313
3213612286000,-0.65,9.81,1.2666923
3213662212000,-0.91,9.85,1.1849703
3213712231000,-1.04,9.81,1.1168685
3213762218000,-1.27,9.77,1.0351465
3213812237000,-1.31,9.72,0.95342433
3213862225000,-1.27,9.81,0.9942854
3213912395000,-1.33,9.72,0.9942854
3213962200000,-1.38,9.81,1.0351465
3213962200000,-1.38,9.81,1.0351465
3214022869000,-1.42,9.81,1.0351465
3214072948000,-1.31,9.81,1.0351465
3214122417000,-1.18,9.81,1.0351465
3214182262000,-1.08,9.72,1.0351465
3214232250000,-0.95,9.81,1.1168685
3214282268000,-1.08,9.77,1.1168685
3214332256000,-0.95,9.89,1.1168685
3214382275000,-1.08,9.85,1.1441092
3214432232000,-0.84,9.81,1.0760075
3214482311000,-0.8,9.7,1.1168685
3214532268000,-0.72,9.77,1.0351465
3214582317000,-0.8,9.81,0.9942854
3214632244000,-0.99,9.81,0.95342433
3214682293000,-0.91,9.77,0.88532263
3214732220000,-1.14,9.77,0.88532263
3214782299000,-1.12,9.85,0.84446156
3214832256000,-1.31,9.89,0.92618364
3214882305000,-0.95,9.81,0.9942854
3214932232000,-0.95,9.77,0.95342433
3214982311000,-0.89,9.89,1.0351465
3215032238000,-0.89,9.77,0.9942854
3215082317000,-0.91,9.85,0.95342433
3215132244000,-1.04,9.72,0.95342433
3215132244000,-1.04,9.72,0.95342433
3215132244000,-1.04,9.72,0.95342433
3215282421000,-1.18,9.85,0.88532263
3215332622000,-0.99,9.85,0.92618364
3215382275000,-0.84,9.77,0.88532263
3215432232000,-0.84,9.81,0.8036005
3215482281000,-0.8,10.08,0.61291564
3215532268000,-1.04,9.53,0.8036005
3215582287000,-1.08,9.85,0.6537767
3215632275000,-1.33,9.77,0.92618364
3215682262000,-1.31,9.72,0.9942854
3215732250000,-1.33,9.81,0.9942854
3215782268000,-1.27,9.85,1.0351465
3215832287000,-1.18,9.77,0.95342433
3215882244000,-1.31,9.85,0.95342433
3215932232000,-1.31,9.81,0.9942854
3215982250000,-1.08,9.77,0.9942854
3216032238000,-1.14,9.81,0.9942854
3216082256000,-0.99,9.72,0.95342433
3216132244000,-0.99,9.89,0.95342433
3216182262000,-0.89,9.72,0.92618364
3216232311000,-1.12,9.92,0.9942854
3216292339000,-1.23,9.77,0.88532263
3216292339000,-1.23,9.77,0.88532263
3216392284000,-1.33,9.89,0.92618364
3216442242000,-1.27,9.77,0.84446156
3216492260000,-1.18,9.85,0.92618364
3216542217000,-1.31,9.81,0.95342433
3216592602000,-1.18,9.77,0.92618364
3216642223000,-1.18,9.89,0.95342433
3216692303000,-1.08,9.72,0.88532263
3216742199000,-1.08,9.89,0.92618364
3216792278000,-1.08,9.72,0.88532263
3216842205000,-0.99,9.89,0.92618364
3216892284000,-1.12,9.77,0.92618364
3216942211000,-1.08,9.85,0.95342433
3216992260000,-1.12,9.72,1.0351465
3217042217000,-1.04,9.81,0.95342433
3217092236000,-1.08,9.81,0.9942854
3217092236000,-1.08,9.81,0.9942854
3217192242000,-1.04,9.81,0.9942854
3217242199000,-1.04,9.89,0.95342433
3217292278000,-0.89,9.77,0.95342433
3217342205000,-0.8,9.81,0.95342433
3217392315000,-0.89,9.85,1.0351465
3217442242000,-0.84,9.81,0.95342433
3217492290000,-0.84,9.89,0.9942854
3217542248000,-0.8,9.77,1.0351465
3217592266000,-0.72,9.81,1.0760075
3217642193000,-0.72,9.81,1.1168685
3217692333000,-0.89,9.85,1.0760075
3217742199000,-0.8,9.81,1.0760075
3217792278000,-0.72,9.81,1.1441092
3217842205000,-0.76,9.77,1.0760075
3217892254000,-0.72,9.77,1.0760075
3217942181000,-0.8,9.77,1.0760075
3217992260000,-0.76,9.92,1.1441092
3218042248000,-0.8,9.81,1.1849703
3218092266000,-0.57,9.96,1.1168685
3218142223000,-0.38,9.66,0.88532263
3218192303000,-0.8,9.58,0.7218784
3218242199000,-1.08,9.72,0.6537767
3218292278000,-1.27,9.85,0.6537767
3218342205000,-1.38,10.08,0.6537767
3218392284000,-1.42,9.89,0.5720546
3218442211000,-1.57,9.77,0.5720546
3218492260000,-1.61,9.89,0.50395286
3218542217000,-1.57,9.92,0.50395286
3218592358000,-1.31,9.81,0.46309182
3218642376000,-1.23,9.7,0.50395286
3218692272000,-1.23,9.66,0.5720546
3218742229000,-1.38,10.0,0.7218784
3218792278000,-1.33,9.72,0.7627395
3218842236000,-1.04,10.0,0.7627395
3218892284000,-1.33,9.7,0.6946377
3218942242000,-1.42,9.85,0.7218784
3218992260000,-1.46,9.89,0.88532263
3219042217000,-1.33,9.85,0.8036005
3219092266000,-1.38,9.72,0.8036005
3219142223000,-1.46,9.89,0.7218784
3219192303000,-1.65,9.81,0.6946377
3219242168000,-1.65,9.85,0.6946377
3219292278000,-1.57,9.7,0.6537767
3219342205000,-1.5,9.92,0.7218784
3219392284000,-1.53,9.77,0.7627395
3219442211000,-1.27,9.81,0.6946377
3219492290000,-1.38,9.85,0.88532263
3219542217000,-1.08,9.66,0.6946377
3219592266000,-1.23,9.92,0.92618364
3219642223000,-1.08,9.7,0.84446156
3219692272000,-1.08,10.0,1.1168685
3219742229000,-0.89,9.58,1.0351465
3219792309000,-0.8,9.89,0.9942854
3219842205000,-0.91,9.66,0.88532263
3219892284000,-0.95,10.12,1.0760075
3219942211000,-1.04,9.66,0.88532263
3219992260000,-1.04,9.96,0.9942854
3220042248000,-0.95,9.62,0.95342433
3220092266000,-0.89,9.92,1.0760075
3220142223000,-0.89,9.77,1.0760075
3220192272000,-0.72,9.89,1.1168685
3220242931000,-0.84,9.85,1.0351465
3220302410000,-0.84,9.81,1.0760075
3220352245000,-0.8,9.85,1.1441092
3220402325000,-0.72,9.72,1.0351465
3220462231000,-0.76,9.89,1.1441092
3220512249000,-0.95,9.77,1.0760075
3220562267000,-0.91,9.89,0.9942854
3220612225000,-1.12,9.81,0.95342433
3220662212000,-1.08,9.81,0.95342433
3220712200000,-1.18,9.85,0.92618364
3220762249000,-1.12,9.77,0.92618364
3220812237000,-1.18,9.92,1.1168685
3220862286000,-0.95,9.85,1.0351465
3220862286000,-0.95,9.85,1.0351465
3220952129000,-0.91,9.7,0.92618364
3221002392000,-1.04,9.81,0.9942854
3221052227000,-0.89,9.89,0.9942854
3221102245000,-0.89,9.85,0.95342433
3221152264000,-0.99,9.96,0.9942854
3221202282000,-1.08,9.72,0.88532263
3221252209000,-0.95,9.89,0.95342433
3221302257000,-0.89,9.77,0.88532263
3221352276000,-0.76,9.85,0.88532263
3221402203000,-0.65,9.85,0.9942854
3221402203000,-0.65,9.85,0.9942854
3221502117000,-0.34,9.85,1.1849703
3221552227000,-0.46,9.96,0.95342433
3221602398000,-0.72,10.31,0.6537767
3221652203000,-0.91,10.84,0.14982383
3221702282000,-1.18,8.89,0.8036005
3221752209000,-1.23,9.3,0.38136974
3221809551000,-1.14,10.19,0.53119355
3221862225000,-1.57,9.62,0.53119355
3221912273000,-1.99,9.85,0.7218784
3221962261000,-1.57,9.77,0.7627395
3222012218000,-1.42,9.51,1.1168685
3222062267000,-1.04,9.85,1.2666923
3222112225000,-0.89,9.89,1.3756552
3222162273000,-0.61,9.72,1.334794
3222212200000,-0.91,9.92,1.334794
3222262279000,-1.12,9.62,1.1168685
3222262279000,-1.12,9.62,1.1168685
3222332439000,-1.12,10.12,1.1168685
3222382366000,-0.72,9.34,0.88532263
3222432354000,-0.84,9.85,0.95342433
3222492229000,-1.12,9.72,0.7627395
3222542217000,-1.04,9.96,0.6537767
3222592266000,-1.12,9.58,0.61291564
3222642223000,-1.08,10.0,0.6537767
3222692272000,-1.38,10.34,0.313268
3222742199000,-1.18,9.81,0.08172209
3222792278000,-0.89,10.61,0.040861044
3222892284000,-0.11,9.77,0.040861044
5492862286000,-1.23,9.72,-1.12
5492912243000,-1.14,10.0,-1.31
5492962292000,-1.23,9.89,-1.04
5493012890000,-1.23,9.92,-1.12
5493072399000,-1.33,9.92,-1.31
5493122265000,-1.38,9.72,-1.31
5493172344000,-1.5,10.08,-1.38
5493222332000,-1.38,9.77,-1.12
5493272289000,-1.18,10.04,-1.08
5493322887000,-1.31,9.81,-1.38
5493372295000,-1.27,9.96,-0.95
5493422283000,-1.27,9.92,-1.31
5493472301000,-1.08,9.85,-1.08
5493522289000,-1.42,10.0,-1.18
5493572277000,-0.91,9.89,-1.23
5493622295000,-1.53,9.96,-1.46
5493672314000,-1.8,9.92,-0.95
5493722301000,-1.31,9.96,-1.33
5493772289000,-1.12,9.85,-1.14
5493822338000,-1.33,9.89,-0.84
5493872265000,-1.27,9.89,-0.95
5493922344000,-1.27,9.96,-0.76
5493972301000,-1.31,10.0,-1.12
5494022289000,-1.18,9.89,-0.8
5494072338000,-0.46,9.72,-0.99
5494122295000,-1.04,10.15,-1.04
5494122295000,-1.04,10.15,-1.04
5494193188000,-1.46,9.96,-0.34
5494242229000,-0.89,10.04,-1.31
5494292370000,-1.12,9.89,-0.8
5494343029000,-1.38,10.04,-0.91
5494393414000,-1.27,9.92,-0.89
5494452312000,-1.23,9.92,-0.89
5494502300000,-1.23,10.04,-0.99
5494552441000,-1.18,9.92,-1.04
5494602337000,-0.99,9.92,-0.99
5494652325000,-1.14,10.08,-0.89
5494702343000,-1.08,9.96,-0.53
5494752331000,-0.76,10.04,-0.34
5494802593000,-0.5,10.04,-0.04
5494852337000,-1.53,9.51,-1.12
5494902325000,-0.76,10.46,-1.31
5494952373000,-0.15,10.04,-1.46
5495003216000,-1.18,9.89,-0.46
5495052380000,-0.76,10.04,0.11
5495102337000,-0.34,9.85,-0.15
5495152294000,-0.72,10.23,-0.15
5495202373000,-0.76,9.7,-0.61
5495252392000,-0.27,10.34,-0.76
5495302319000,-0.84,9.72,-0.76
5495352337000,-1.14,9.96,0.5
5495402355000,-0.46,9.92,-0.57
5495452343000,-0.38,10.0,-0.19
5495502758000,-0.72,10.08,-0.15
5495552349000,-0.5,9.89,-0.04
5495602337000,-0.91,9.96,0.19
5495652325000,-0.53,10.04,-0.11
5495702343000,-0.57,9.92,-0.27
5495752361000,-0.65,10.0,-0.34
5495802319000,-0.99,10.0,-0.3
5495852337000,-0.84,10.0,-0.19
5495902294000,-0.8,10.0,-0.27
5495952435000,-0.57,9.92,-0.27
5496002331000,-0.72,10.04,-0.19
5496052349000,-0.8,9.96,-0.34
5496102337000,-0.57,10.0,-0.57
5496152355000,-0.8,10.04,-0.34
5496202343000,-0.76,10.0,-0.23
5496252300000,-0.72,9.96,-0.27
5496302319000,-0.72,9.96,-0.34
5496352337000,-0.8,10.0,-0.53
5496402294000,-0.72,10.0,-0.38
5496452312000,-0.84,10.0,-0.3
5496502331000,-0.76,9.96,-0.34
5496552319000,-0.65,10.0,-0.34
5496602306000,-0.8,10.04,-0.34
5496652325000,-0.84,9.96,-0.42
5496702312000,-0.84,10.0,-0.38
5496752331000,-0.8,9.96,-0.46
5496802349000,-0.72,10.0,-0.42
5496852306000,-0.8,10.0,-0.42
5496902294000,-0.76,10.0,-0.53
5496952312000,-0.91,10.0,-0.42
5497002605000,-0.8,10.0,-0.53
5497002605000,-0.8,10.0,-0.53
5497102337000,-0.84,10.0,-0.46
5497152294000,-0.84,10.04,-0.53
5497202343000,-0.72,9.96,-0.57
5497252331000,-0.89,10.0,-0.5
5497302349000,-0.84,9.96,-0.46
5497352337000,-0.8,10.04,-0.57
5497402325000,-0.91,10.0,-0.53
5497452312000,-0.76,10.0,-0.72
5497502331000,-0.89,10.04,-0.38
5497552380000,-0.8,10.0,-0.53
5497602337000,-0.95,9.96,-0.53
5497652325000,-0.89,9.92,-0.72
5497702343000,-1.04,10.04,-0.5
5497752331000,-0.8,10.0,-0.72
5497802349000,-0.95,10.0,-0.46
5497852306000,-0.95,10.0,-0.57
5497902325000,-0.89,9.92,-0.5
5497952312000,-0.89,10.04,-0.42
5498002392000,-1.04,9.96,-0.38
5498052349000,-0.84,9.96,-0.69
5498102337000,-0.89,9.89,-0.76
5498152355000,-0.84,10.04,-0.38
5498202312000,-0.84,10.0,-0.5
5498252331000,-0.91,9.96,-0.3
5498302349000,-0.8,10.0,-0.46
5498352337000,-0.84,9.96,-0.38
5498402294000,-0.95,10.0,-0.38
5498452343000,-0.76,9.96,-0.57
5498502422000,-0.8,9.92,-0.42
5498552349000,-0.72,10.0,-0.42
5498602337000,-0.89,9.96,-0.53
5498652325000,-0.99,10.04,-0.5
5498702343000,-0.8,10.04,-0.65
5498752331000,-0.84,10.0,-0.5
5498802319000,-0.8,10.08,-0.5
5498852337000,-0.76,9.96,-0.53
5498902294000,-0.91,10.04,-0.53
5498952343000,-0.89,9.92,-0.69
5499003124000,-0.69,10.0,-0.53
5499052410000,-0.84,10.04,-0.3
5499102337000,-0.72,9.92,-0.57
5499152477000,-0.84,9.96,-0.34
5499202343000,-0.89,9.96,-0.23
5499252117000,-0.76,10.0,-0.38
5499302258000,-0.84,9.96,-0.34
5499352337000,-0.84,9.96,-0.42
5499402325000,-0.8,10.0,-0.46
5499452343000,-0.76,9.89,-0.46
5499502331000,-0.89,9.92,-0.46
5499552349000,-0.95,10.0,-0.34
5499602337000,-0.76,9.96,-0.42
5499652325000,-1.08,10.0,-0.27
5499702343000,-0.76,10.04,-0.34
5499812115000,-0.99,10.04,-0.34
5499812115000,-0.99,10.04,-0.34
5499862255000,-0.99,9.96,-0.5
5499932293000,-0.89,9.96,-0.46
5499982311000,-0.8,10.0,-0.46
5500032299000,-0.91,10.04,-0.46
5500082348000,-0.91,9.92,-0.5
5500132336000,-0.84,10.04,-0.57
5500182323000,-0.95,9.96,-0.5
5500232281000,-0.89,10.0,-0.5
5500282207000,-0.91,10.0,-0.65
5500332348000,-0.95,9.96,-0.61
5500382366000,-1.12,9.96,-0.57
5500432293000,-0.95,9.96,-0.65
5500482311000,-0.95,10.04,-0.57
5500532299000,-0.89,10.0,-0.46
5500582348000,-0.95,9.96,-0.61
5500632305000,-0.99,9.96,-0.65
5500682293000,-0.99,9.96,-0.57
5500732311000,-0.95,10.0,-0.42
5500782330000,-0.99,9.92,-0.65
5500832348000,-0.95,10.0,-0.57
5500882366000,-0.99,9.96,-0.61
5500932293000,-1.04,9.89,-0.61
5500982311000,-1.08,10.0,-0.57
5501032330000,-0.91,9.96,-0.61
5501082348000,-1.08,9.92,-0.46
5501132336000,-0.99,10.0,-0.69
5501182293000,-0.99,9.85,-0.57
5501232311000,-1.04,10.04,-0.5
5501282299000,-1.04,9.85,-0.53
5501332348000,-1.04,10.08,-0.69
5501382305000,-1.04,9.89,-0.76
5501432323000,-1.14,10.0,-0.61
5501482342000,-1.18,9.96,-0.5
5501532299000,-0.89,9.89,-0.95
5501582348000,-1.14,10.08,-0.61
5501632336000,-0.95,9.81,-0.76
5501682354000,-1.08,10.0,-0.53
5501732311000,-1.18,10.0,-0.61
5501782421000,-0.8,9.85,-0.57
5501832348000,-0.91,10.04,-0.61
5501882336000,-1.38,9.77,-0.23
5501932323000,-0.89,10.12,-0.95
5501982311000,-1.38,9.72,-0.8
5502032330000,-0.65,10.19,-0.23
5502082348000,-0.23,9.89,-0.8
5502132336000,-0.89,9.85,-0.27
5502182323000,-1.57,10.04,-0.46
5502232342000,-1.31,9.85,-0.95
5502282330000,-1.46,10.0,-0.72
5502332317000,-1.18,9.96,-0.72
5502382336000,-0.99,9.92,-0.57
5502432323000,-0.91,9.96,-0.61
5502482311000,-0.76,9.92,-0.46
5502532269000,-1.08,10.04,-0.46
5502582378000,-0.91,9.89,-0.57
5502632305000,-1.12,9.89,-0.65
5502682293000,-1.12,9.96,-0.69
5502732372000,-1.12,9.89,-0.5
5502782299000,-1.12,10.08,-0.5
5502832348000,-1.04,9.85,-0.69
5502882336000,-1.23,10.04,-0.57
5502932323000,-0.95,9.89,-0.76
5502982342000,-1.08,9.92,-0.46
5503032299000,-1.08,10.04,-0.72
5503082378000,-1.04,9.81,-0.69
5503132336000,-1.14,10.04,-0.76
5503182323000,-0.99,9.96,-0.69
5503232342000,-1.04,9.92,-0.5
5503282330000,-1.12,10.04,-0.76
5503332348000,-1.14,9.81,-0.61
5503382366000,-1.27,10.0,-0.65
5503432293000,-0.99,10.0,-0.76
5503482342000,-1.08,9.85,-0.5
5503532299000,-1.12,10.08,-0.61
5503582348000,-0.99,9.89,-0.53
5503632305000,-0.95,10.0,-0.57
5503632305000,-0.95,10.0,-0.57
5503693310000,-0.99,9.92,-0.84
5503752300000,-1.23,9.92,-0.34
5503802349000,-0.99,9.96,-0.61
5503852337000,-0.95,10.04,-0.69
5503902325000,-1.23,9.89,-0.38
5503952343000,-0.91,9.96,-0.8
5504002300000,-0.91,9.89,-0.5
5504052349000,-0.99,10.0,-0.53
5504102367000,-1.08,9.89,-0.72
5504102367000,-1.08,9.89,-0.72
5504190380000,-1.23,9.96,-0.53
5504242168000,-1.08,9.92,-0.69
5504292400000,-0.99,10.08,-0.65
5504342388000,-1.14,9.77,-0.61
5504392986000,-0.91,10.04,-0.65
5504442974000,-0.99,9.92,-0.72
5504492931000,-1.08,9.96,-0.57
5504543468000,-1.08,10.0,-0.76
5504602337000,-0.91,9.96,-0.57
5504652294000,-0.91,9.92,-0.61
5504702343000,-1.08,10.0,-0.72
5504752331000,-0.99,9.85,-0.89
5504802349000,-0.89,10.08,-0.38
5504862316000,-0.84,10.08,-0.42
5504912273000,-0.95,9.92,-0.5
5504962292000,-0.95,9.96,-0.69
5505012249000,-0.95,10.0,-0.61
5505062298000,-0.99,9.92,-0.61
5505112347000,-0.84,9.89,-0.69
5505162334000,-0.57,10.04,-0.72
5505212322000,-0.76,9.92,-0.76
5505262310000,-0.76,10.19,-0.5
5505312328000,-0.57,9.77,-0.91
5505362347000,-0.69,10.15,-0.53
5505412334000,-0.89,9.96,-0.5
5505462292000,-0.65,10.08,-0.5
5505512341000,-0.8,9.96,-0.53
5505562359000,-0.99,9.92,-0.34
5505612347000,-1.14,10.0,-0.3
5505662334000,-1.33,9.77,0.23
5505712322000,-1.12,9.53,0.5
5505762371000,-0.69,9.92,2.15
5505812328000,-1.46,9.85,1.12
5505862347000,-1.38,10.99,0.42
5505912334000,-1.27,10.12,1.08
5505962322000,-1.73,9.53,1.33
5506012249000,-0.89,8.96,0.34
5506062328000,0.08,8.43,-0.15
5506112347000,0.23,8.96,-0.34
5506162334000,-0.91,10.42,1.46
5506212322000,0.23,13.57,4.79
5506262310000,-2.68,8.2,0.11
5506312328000,0.38,10.0,-2.3
5506362347000,1.23,10.23,-1.57
5506412334000,-1.18,9.81,1.27
5506462322000,-1.04,10.19,0.15
5506512371000,-0.3,9.51,-0.76
5506562328000,0.27,10.38,-0.04
5506612316000,0.65,10.15,0.23
5506662334000,-0.89,10.0,-0.91
5506712322000,0.31,10.04,-1.57
5506762310000,-0.27,9.89,-0.72
5506862347000,-0.08,10.19,-0.34
5506912334000,-0.91,10.15,-0.8
5506962902000,-1.76,10.0,-1.65
5507012279000,-1.14,9.72,-1.95
5507062359000,-0.42,10.04,-0.72
5507112316000,-0.46,10.08,0.84
5507162334000,-0.42,10.04,-0.76
5507212322000,-0.3,9.89,-1.46
5507262341000,-0.27,10.04,-0.91
5507312328000,-0.61,10.0,-0.19
5507362316000,-0.69,10.0,-0.61
5507412304000,-0.57,10.0,-1.27
5507462322000,-0.84,9.96,-0.95
5507512310000,-1.12,9.96,-0.5
5507562328000,-0.65,9.89,-1.04
5507612316000,-0.65,9.96,-1.23
5507662334000,-0.89,10.0,-0.69
5507712322000,-0.65,9.92,-0.95
5507762310000,-0.76,9.96,-0.95
5507812328000,-0.8,10.0,-0.76
5507862316000,-0.8,9.96,-1.04
5507912334000,-0.65,9.96,-0.99
5507962292000,-0.5,9.96,-0.76
5508012341000,-0.57,10.04,-0.84
5508062298000,-0.65,9.96,-0.69
5508112316000,-0.5,10.0,-0.95
5508162334000,-0.8,9.96,-0.91
5508212292000,-0.69,9.96,-0.95
5508262310000,-0.8,9.92,-0.95
5508312328000,-0.84,9.96,-0.99
5508362316000,-0.91,9.92,-0.99
5508412304000,-0.91,9.92,-1.14
5508462261000,-0.91,9.96,-1.14
5508512341000,-0.89,9.92,-0.99
5508562298000,-0.8,10.0,-0.99
5508612347000,-0.76,9.96,-0.95
5508662334000,-0.65,10.0,-1.14
5508712322000,-0.8,9.96,-1.12
5508762310000,-0.65,9.96,-1.08
5508812328000,-0.76,9.92,-0.95
5508862377000,-0.57,10.12,-1.12
5508912334000,-0.8,9.85,-0.89
5508962322000,-0.57,10.08,-1.12
5509012249000,-0.72,10.04,-1.23
5509062328000,-0.84,9.85,-0.91
5509112347000,-0.5,10.12,-0.99
5509162334000,-0.72,9.92,-0.76
5509212322000,-0.65,10.08,-0.89
5509290356000,-0.69,9.85,-1.18
5509290356000,-0.69,9.85,-1.18
5509342297000,-0.8,9.85,-1.18
5509392406000,-0.76,10.12,-1.14
5509443005000,-0.76,9.89,-0.89
5509492992000,-0.53,10.08,-0.72
5509542950000,-0.53,10.0,-0.38
5509592998000,-0.23,10.08,-0.89
5509643047000,-0.5,10.0,-1.27
5509693035000,-0.46,9.89,-0.61
5509742992000,-0.5,10.08,-0.34
5509793041000,-0.53,10.12,-0.89
5509843029000,-0.42,9.96,-1.57
5509893017000,-0.57,10.04,-0.76
5509943005000,-0.57,10.0,-0.27
5509993023000,-0.46,10.08,-0.76
5510043041000,-0.42,9.96,-0.8
5510092998000,-0.69,10.12,-0.65
5510143017000,-0.53,10.08,-0.8
5510192974000,-0.57,10.0,-0.76
5510242962000,-0.57,10.04,-0.72
5510293041000,-0.3,10.0,-0.84
5510343029000,-0.38,10.08,-0.61
5510393017000,-0.42,9.96,-0.61
5510443523000,-0.76,9.92,-0.8
5510502331000,-0.5,9.96,-0.69
5510552319000,-0.38,9.96,-0.08
5510602306000,-0.38,10.08,-0.23
5510652325000,0.31,10.19,-0.76
5510702343000,-0.34,9.89,-0.99
5510752361000,-1.57,9.77,-0.42
5510802380000,-0.15,9.85,0.93
5510852337000,-0.34,9.7,1.42
5510902325000,-0.38,9.47,-0.76
5510952343000,0.38,10.38,0.61
5511002880000,-1.38,10.27,-0.65
5511052288000,-1.08,10.34,-0.19
5511102337000,-1.61,10.0,0.38
5511152325000,-1.04,9.81,0.65
5511202373000,-1.04,9.7,0.93
5511252331000,-1.04,9.92,1.23
5511302349000,-0.84,9.72,1.14
5511412121000,-0.89,10.0,0.76
5511412121000,-0.89,10.0,0.76
5511462231000,-0.95,9.92,1.08
5511512402000,-0.57,9.62,0.65
5511562267000,-0.61,9.51,0.95
5511612316000,-0.69,9.72,0.89
5511662365000,-1.46,10.61,1.54
5511712322000,-0.69,9.85,0.89
5511762341000,-0.46,9.47,0.23
5511812298000,-0.46,9.85,1.5
5511862377000,-0.42,9.92,1.12
5511912334000,-0.27,9.72,0.89
5511962292000,-0.8,9.72,0.89
5512012341000,-0.72,9.89,0.61
5512062328000,-0.76,9.96,0.89
5512112347000,-0.65,9.89,0.61
5512162365000,-0.5,9.85,0.95
5512212322000,-0.69,9.81,0.89
5512262310000,-0.38,9.89,1.12
5512312328000,-0.46,9.81,1.04
5512362316000,-0.5,9.81,1.12
5512412334000,-0.53,9.77,0.89
5512462322000,-0.61,9.85,1.18
5512512341000,-0.76,9.89,1.04
5512562328000,-0.57,9.81,0.93
5512562328000,-0.57,9.81,0.93
5512662304000,-0.57,9.85,1.18
5512712292000,-0.57,9.81,0.99
5512762310000,-0.57,9.85,0.95
5512812328000,-0.65,9.81,1.04
5512862347000,-0.69,9.92,0.95
5512912304000,-0.69,9.81,0.99
5512962292000,-0.42,9.81,0.93
5513012249000,-0.57,9.77,0.95
5513062328000,-0.53,9.85,0.93
5513112347000,-0.65,9.81,0.95
5513162334000,-0.89,9.92,0.84
5513212322000,-0.8,9.77,0.89
5513262279000,-0.53,9.77,0.99
5513312328000,-0.38,10.0,1.27
5513362347000,-0.34,9.77,0.69
5513412304000,-0.3,9.77,1.08
5513462292000,-0.57,9.85,1.08
5513512310000,-0.8,9.85,0.99
5513562359000,-1.23,9.77,0.84
5513612347000,-1.12,9.89,0.95
5513662334000,-0.99,9.81,1.08
5513712292000,-0.84,9.81,1.04
5513762341000,-0.61,9.85,0.95
5513812328000,-0.72,9.92,0.93
5513862347000,-0.84,9.85,0.95
5513912334000,-1.04,9.77,0.89
5513962322000,-0.76,9.92,0.99
5514012249000,-0.89,9.77,0.93
5514062328000,-0.69,9.85,0.95
5514112316000,-0.5,9.77,0.93
5514162334000,-0.61,9.89,1.08
5514212322000,-0.5,9.85,0.99
5514262279000,-0.8,9.81,0.99
5514312328000,-0.69,9.72,0.8
5514372265000,-0.8,9.89,1.12
5514422283000,-0.89,9.96,1.08
5514472332000,-0.76,9.81,0.84
5514522320000,-0.8,9.85,1.08
5514572338000,-0.72,10.08,1.18
5514622356000,-0.72,9.81,0.89
5514672344000,-0.89,9.85,1.04
5514722301000,-0.8,9.85,1.12
5514772320000,-0.61,9.81,0.93
5514822308000,-0.53,9.81,1.08
5514872326000,-0.53,9.85,1.14
5514922283000,-0.57,9.85,1.14
5514972332000,-0.53,9.66,0.95
5515022320000,-0.65,9.81,1.04
5515072308000,-0.65,9.89,1.31
5515122326000,-0.53,9.77,1.04
5515172375000,-0.57,9.81,1.12
5515222332000,-0.61,9.85,1.23
5515283306000,-0.65,9.77,1.04
5515283306000,-0.65,9.77,1.04
5515342876000,-0.61,9.85,1.12
5515393414000,-0.5,9.85,1.18
5515452373000,-0.38,9.72,1.23
5515502300000,-0.27,9.72,1.27
5515552319000,-0.5,9.81,1.27
5515602337000,-0.34,9.77,0.89
5515652325000,-0.42,9.85,1.14
5515702343000,-0.65,9.7,1.33
5515752331000,-0.11,9.77,0.69
5515802349000,0.04,9.43,0.42
5515852337000,-1.12,9.47,0.34
5515902325000,-1.99,11.35,0.5
5515952343000,0.08,10.84,2.83
5516002331000,-1.99,8.58,-0.11
5516052349000,1.57,10.5,-1.92
5516152355000,-1.27,10.15,0.93
5516202343000,-1.42,9.89,0.34
5516302349000,-0.42,9.96,-0.46
5516352337000,-0.72,9.66,-0.8
5516402355000,-1.04,9.7,-0.61
5516462322000,-0.8,10.12,-0.15
5516512279000,-0.27,10.15,-0.65
5516562298000,0.08,9.89,-0.65
5516612316000,-0.34,10.15,-0.99
5516662334000,-2.22,9.72,-0.11
5516712322000,-0.8,10.04,-0.15
5516762310000,-0.57,10.04,-0.84
5516812328000,-0.34,9.96,-0.91
5516862408000,-0.11,10.27,-1.46
5516912334000,-1.33,10.04,-0.53
5516962322000,-2.41,9.72,-1.04
5517012249000,-1.92,9.81,-1.04
5517062359000,-0.95,9.89,-0.69
5517112316000,-0.99,9.96,-1.18
5517162304000,-1.12,9.96,-0.69
5517212322000,-1.5,9.89,-0.57
5517262310000,-1.33,9.81,-1.38
5517312298000,-1.69,9.81,-1.04
5517362347000,-1.73,9.89,-0.72
5517412334000,-1.42,9.85,-0.84
5517462292000,-1.14,9.85,-0.99
5517512341000,-1.18,10.04,-0.76
5517562298000,-1.18,9.85,-0.91
5517612316000,-0.76,10.12,-1.12
5517662334000,-1.42,9.85,-0.84
5517712322000,-1.27,9.92,-0.8
5517762341000,-1.14,9.85,-0.84
5517812359000,-0.99,9.96,-0.72
5517862316000,-1.18,9.96,-0.8
5517912334000,-1.27,9.92,-0.99
5517962322000,-1.42,9.85,-0.91
5518012218000,-1.31,9.92,-1.04
5518062298000,-1.27,9.92,-1.04
5518112316000,-1.18,9.92,-0.95
5518162334000,-1.27,10.0,-0.91
5518212292000,-1.27,9.85,-0.91
5518262402000,-1.14,10.0,-0.95
5518312328000,-1.18,9.89,-0.91
5518362347000,-1.23,10.0,-0.95
5518412334000,-1.31,9.85,-0.84
5518462322000,-1.33,9.96,-1.12
5518512341000,-1.23,9.81,-1.12
5518562328000,-1.18,10.0,-1.04
5518612316000,-1.31,9.92,-0.8
5518662334000,-1.23,9.89,-0.91
5518712292000,-1.23,10.0,-0.95
5518762341000,-1.14,9.89,-0.95
5518812328000,-1.12,9.96,-0.91
5518862316000,-1.12,9.89,-0.8
5518912334000,-1.08,9.92,-0.89
5518962292000,-1.08,10.0,-0.95
5519012249000,-1.14,9.89,-0.69
5519062328000,-1.12,9.96,-0.84
5519112347000,-1.14,9.92,-0.95
5519112347000,-1.14,9.92,-0.95
5519222393000,-1.23,9.89,-0.8
5519272106000,-1.18,9.85,-0.99
5519322216000,-1.12,9.92,-0.84
5519372295000,-1.12,9.96,-0.76
5519422344000,-1.08,9.89,-0.91
5519472301000,-1.08,9.96,-0.95
5519522289000,-1.12,9.96,-0.89
5519572338000,-1.14,9.85,-0.89
5519622326000,-1.08,10.0,-0.99
5519672710000,-1.14,9.81,-0.89
5519722301000,-1.14,9.96,-0.84
5519772289000,-1.14,9.96,-0.91
5519822338000,-1.23,9.81,-0.95
5519872356000,-1.14,9.96,-0.84
5519922314000,-1.14,9.89,-0.84
5519972332000,-1.12,9.92,-0.91
5520022289000,-1.12,10.0,-0.8
5520072277000,-1.12,9.92,-0.8
5520132244000,-1.12,9.92,-0.91
5520182323000,-0.95,9.96,-0.89
5520232281000,-1.14,9.96,-0.89
5520282299000,-0.99,10.0,-0.8
5520332348000,-0.99,10.0,-0.99
5520382305000,-1.12,9.92,-0.76
5520432323000,-0.99,10.0,-0.84
5520482342000,-1.12,9.89,-0.91
5520532299000,-1.12,10.0,-0.91
5520582317000,-1.12,9.96,-0.84
5520632366000,-1.12,9.89,-0.95
5520682293000,-1.14,10.0,-0.89
5520732342000,-1.12,9.89,-0.8
5520782330000,-1.14,9.92,-0.99
5520832348000,-1.08,10.0,-0.91
5520832348000,-1.08,10.0,-0.91
5520893261000,-1.18,9.89,-0.84
5520942974000,-1.12,9.92,-0.84
5520993023000,-1.08,9.96,-0.95
5521043041000,-1.23,9.89,-0.84
5521093060000,-1.14,9.96,-0.91
5521143047000,-1.08,10.0,-0.84
5521193035000,-1.23,9.89,-0.76
5521242992000,-1.08,10.0,-0.95
5521293041000,-1.14,9.89,-0.89
5521342937000,-1.14,9.96,-0.72
5521393017000,-1.12,9.96,-0.99
5521443005000,-1.23,9.89,-0.89
5521492992000,-1.08,10.0,-0.89
5521543011000,-1.18,9.89,-0.84
5521593060000,-1.12,10.0,-0.84
5521643017000,-1.08,9.92,-0.84
5521693035000,-1.18,9.92,-0.8
5521742962000,-1.04,10.0,-0.8
5521793011000,-1.14,9.85,-0.84
5521842998000,-1.08,10.0,-0.84
5521893017000,-1.04,9.96,-0.8
5521942944000,-1.08,9.92,-0.8
5521992962000,-1.04,9.96,-0.89
5522052380000,-1.12,9.92,-0.8
5522162121000,-1.12,9.92,-0.8
5522162121000,-1.12,9.92,-0.8
5522212170000,-1.18,9.92,-0.76
5522262463000,-1.18,9.96,-0.84
5522312267000,-1.18,9.89,-0.72
5522362316000,-1.18,9.96,-0.84
5522412273000,-1.18,9.89,-0.84
5522462292000,-1.18,10.0,-0.8
5522462292000,-1.18,10.0,-0.8
5522572308000,-1.18,9.92,-0.84
5522622295000,-1.04,9.96,-0.84
5522672314000,-1.12,9.92,-0.84
5522722301000,-1.14,9.96,-0.84
5522772320000,-1.12,9.92,-0.8
5522822308000,-1.12,9.89,-0.89
5522872326000,-1.14,9.96,-0.8
5522922344000,-1.31,9.89,-0.76
5522972485000,-1.27,9.92,-1.12
5523022320000,-1.14,9.89,-0.8
5523072338000,-1.12,9.96,-0.72
5523122295000,-1.04,9.92,-0.89
5523172314000,-1.12,9.92,-0.76
5523222332000,-0.99,9.96,-0.89
5523272289000,-1.18,9.92,-0.84
5523322338000,-1.12,9.96,-0.84
5523372295000,-1.08,9.96,-0.95
5523422344000,-1.12,9.92,-0.8
5523472332000,-1.08,9.96,-0.89
5523472332000,-1.08,9.96,-0.89
5523572308000,-1.04,10.0,-0.89
5523622326000,-1.12,9.92,-0.89
5523672314000,-1.08,9.92,-0.8
5523722301000,-1.04,10.0,-0.84
5523772289000,-1.23,9.89,-0.84
5523822308000,-1.18,9.89,-0.91
5523872326000,-1.14,9.92,-0.89
5523922375000,-1.23,9.89,-0.84
5523972301000,-1.18,9.89,-0.84
5524022320000,-1.31,9.92,-0.91
5524072308000,-1.23,9.89,-0.84
5524122295000,-1.04,9.96,-0.8
5524172314000,-1.08,9.89,-0.95
5524222332000,-1.12,9.92,-0.76
5524272289000,-1.04,9.96,-0.84
5524322338000,-1.27,9.85,-0.91
5524372326000,-1.12,9.96,-0.99
5524422344000,-1.18,9.89,-0.89
5524472301000,-1.12,9.96,-0.84
5524522289000,-1.14,9.96,-0.91
5524572308000,-1.14,9.92,-0.8
5524622295000,-1.14,9.89,-0.95
5524672314000,-1.12,9.96,-0.95
5524722332000,-1.18,9.92,-0.89
5524772289000,-1.12,9.92,-0.99
5524822308000,-1.14,9.92,-0.84
5524872326000,-1.18,9.92,-0.95
5524922344000,-1.08,10.0,-1.04
5524972301000,-1.18,9.89,-0.89
5525022320000,-1.12,9.96,-0.99
5525072308000,-1.18,9.89,-0.95
5525122265000,-1.18,9.92,-0.95
5525172344000,-1.12,9.96,-0.91
5525222332000,-1.23,9.89,-0.91
5525277447000,-1.08,9.92,-0.84
5525332348000,-1.14,9.96,-0.84
5525382336000,-1.27,9.85,-0.99
5525432293000,-1.18,9.92,-0.99
5525482342000,-1.14,9.89,-0.91
5525532299000,-1.14,9.89,-0.8
5525582317000,-1.18,10.0,-0.8
5525632336000,-1.14,9.85,-0.99
5525682293000,-1.12,9.96,-0.99
5525732342000,-1.08,9.92,-0.8
5525782330000,-0.99,9.96,-0.76
5525832287000,-0.99,9.96,-0.84
5525882336000,-1.12,9.89,-0.89
5525932323000,-1.14,10.0,-0.84
5525982342000,-1.18,9.92,-0.8
5526032299000,-1.12,9.92,-1.12
5526082317000,-1.14,9.96,-1.12
5526132305000,-1.14,9.92,-0.76
5526182323000,-1.04,10.0,-0.89
5526232342000,-1.08,9.96,-0.91
5526282269000,-1.14,9.92,-0.72
5526332348000,-1.12,9.96,-0.89
5526382336000,-1.23,9.92,-1.08
5526432293000,-1.14,9.92,-0.76
5526482342000,-1.12,10.0,-0.99
5526532330000,-1.14,9.89,-0.8
5526582317000,-1.04,10.04,-0.89
5526632336000,-1.18,9.92,-0.84
5526632336000,-1.18,9.92,-0.84
5526732311000,-1.12,10.0,-0.84
5526782299000,-1.27,9.85,-0.8
5526832348000,-0.95,10.0,-0.95
5526882336000,-1.04,9.92,-0.91
5526932293000,-1.04,9.96,-0.84
5526982311000,-1.04,9.96,-0.76
5527032330000,-1.14,9.92,-0.72
5527082317000,-1.18,9.92,-0.95
5527132305000,-1.23,9.92,-0.89
5527192364000,-1.23,9.85,-0.89
5527192364000,-1.23,9.85,-0.89
5527242931000,-1.08,10.04,-0.91
5527292980000,-0.99,9.96,-0.72
5527342937000,-1.14,9.92,-0.91
5527393047000,-1.12,9.96,-0.99
5527443005000,-1.18,9.92,-0.84
5527492962000,-1.08,10.04,-0.89
5527543011000,-1.08,9.92,-0.84
5527593029000,-1.12,9.96,-0.8
5527642986000,-1.04,9.92,-0.95
5527693066000,-1.18,9.92,-0.84
5527742962000,-1.08,10.0,-0.95
5527793041000,-1.14,9.89,-0.91
5527842998000,-0.99,10.04,-0.84
5527892986000,-1.12,9.96,-0.76
5527943005000,-1.08,9.96,-0.91
5527992992000,-1.23,9.96,-1.04
5528042950000,-1.23,9.89,-0.84
5528092968000,-0.95,10.04,-1.04
5528143047000,-1.08,9.92,-0.91
5528193523000,-1.14,10.04,-0.8
5528252331000,-1.23,9.89,-0.65
5528302349000,-0.99,10.04,-0.95
5528352337000,-1.18,9.77,-0.72
5528402325000,-0.65,10.04,-0.57
5528452312000,-0.53,10.04,-0.8
5528502331000,-1.04,9.81,-0.72
5528552349000,-1.18,10.08,-0.42
5528602337000,-1.23,9.96,-0.42
5528652325000,-1.04,10.15,-0.76
5528702312000,-0.72,10.15,-1.08
5528752331000,-1.31,9.72,-1.46
5528802349000,-2.45,9.51,-0.91
5528852337000,-1.04,10.34,0.46
5528902325000,-1.12,9.92,0.11
5528952343000,-1.61,9.85,-0.8
5529002575000,-1.18,10.04,0.57
5529052349000,-1.33,9.89,0.27
5529102398000,-1.12,9.72,0.46
5529152325000,-0.11,9.58,0.57
5529202343000,-0.65,9.7,1.76
5529252331000,-1.61,9.81,0.53
5529302349000,-3.26,10.38,1.69
5529352337000,-3.64,9.85,1.61
5529452343000,0.42,9.11,1.65
5529502331000,-1.12,8.96,1.18
5529552380000,-1.42,9.28,0.34
5529602337000,-2.6,9.7,0.38
5529652325000,-3.64,11.22,1.54
5529702343000,-1.8,10.61,3.34
5529752331000,-0.61,8.43,0.27
5529802349000,-0.11,9.81,0.61
5529852337000,-0.8,10.04,0.04
5529902325000,-2.56,9.77,0.69
5529952343000,-1.92,9.89,0.08
5530002331000,-1.69,9.77,0.19
5530052380000,-1.31,9.92,0.34
5530102337000,-1.46,10.0,0.04
5530152325000,-1.31,9.72,0.57
5530202343000,-1.12,10.12,0.53
5530252331000,-0.61,9.62,0.08
5530302349000,-1.12,10.0,0.15
5530352337000,-1.95,9.85,0.72
5530402325000,-1.23,9.77,-0.15
5530452343000,-1.53,10.0,0.23
5530502422000,-1.38,9.89,0.11
5530552349000,-1.23,9.66,0.34
5530602337000,-1.61,10.0,0.84
5530652325000,-1.12,9.77,0.46
5530702343000,-0.91,10.04,0.34
5530752331000,-1.18,9.81,0.72
5530802349000,-1.31,9.89,0.57
5530852337000,-1.46,9.81,0.8
5530902294000,-0.91,9.72,0.8
5530952343000,-1.31,9.81,0.99
5531002727000,-1.38,9.77,0.65
5531052349000,-1.53,9.77,1.04
5531102306000,-1.5,9.77,0.93
5531152294000,-1.27,9.77,0.99
5531202343000,-1.18,9.72,1.08
5531252361000,-0.91,9.81,1.38
5531302349000,-1.27,9.62,1.23
5531352337000,-1.14,9.77,1.08
5531402294000,-1.08,9.77,0.95
5531452343000,-1.42,9.77,1.14
5531502331000,-1.46,9.81,1.18
5531552349000,-1.14,9.72,1.27
5531602337000,-0.99,9.7,1.42
5531652294000,-1.12,9.77,1.42
5531702373000,-1.18,9.72,1.27
5531752331000,-1.42,9.77,1.33
5531802349000,-1.5,9.81,1.31
5531852337000,-1.53,9.77,1.38
5531902325000,-1.04,9.66,1.27
5531952343000,-0.89,9.62,1.31
5532002331000,-0.8,9.58,1.46
5532052349000,-1.27,9.72,1.38
5532102337000,-1.53,9.66,1.23
5532152325000,-1.12,9.81,1.38
5532202343000,-0.95,9.77,1.33
5532252361000,-2.11,9.81,2.22
5532302349000,-0.8,9.72,0.19
5532352337000,-1.5,9.85,1.42
5532402447000,-1.73,10.0,1.57
5532452343000,-0.3,9.47,1.14
5532502331000,-0.84,9.58,1.27
5532552349000,-0.89,10.0,1.31
5532602337000,-0.84,9.7,1.12
5532652294000,-0.84,9.72,1.33
5532702343000,-0.99,9.81,1.33
5532752331000,-1.04,9.72,1.27
5532862164000,-1.12,9.77,1.27
5532862164000,-1.12,9.77,1.27
5532912243000,-0.95,9.62,1.31
5532962383000,-0.95,9.7,1.54
5533012249000,-1.18,10.0,1.61
5533062328000,-0.72,9.72,1.14
5533112316000,-0.38,9.58,1.38
5533162334000,-0.95,9.72,1.18
5533212292000,-1.33,9.72,1.46
5533262310000,-0.95,9.77,1.46
5533312328000,-1.27,9.81,1.42
5533362377000,-1.18,9.7,1.38
5533412334000,-1.12,9.85,1.5
5533462292000,-1.08,9.62,1.18
5533512341000,-0.8,9.77,1.46
5533562420000,-0.57,9.85,1.61
5533612316000,-0.72,9.7,1.57
5533662334000,-0.84,9.7,1.33
5533712322000,-0.89,9.85,1.46
5533762310000,-0.89,9.77,1.23
5533812359000,-0.8,9.66,1.12
5533862347000,-0.91,9.77,1.31
5533912304000,-0.91,9.81,1.33
5533962292000,-0.95,9.81,1.33
5534012249000,-0.76,9.77,1.27
5534062328000,-0.84,9.72,1.31
5534112316000,-0.99,9.77,1.33
5534162365000,-1.08,9.85,1.42
5534212322000,-0.99,9.77,1.46
5534262279000,-0.99,9.77,1.27
5534312359000,-1.12,9.7,1.42
5534362347000,-0.91,9.66,1.46
5534412334000,-0.84,9.77,1.5
5534462322000,-0.89,9.7,1.33
5534512341000,-0.91,9.77,1.38
5534562298000,-0.99,9.77,1.31
5534612316000,-0.91,9.72,1.33
5534662304000,-0.72,9.62,1.33
5534712322000,-0.84,9.72,1.38
5534762371000,-0.91,9.77,1.54
5534812328000,-0.53,9.7,1.61
5534862347000,-0.8,9.72,1.65
5534912304000,-0.99,9.72,1.46
5534962292000,-1.31,9.72,1.23
5535012249000,-1.53,9.81,1.23
5535062328000,-0.99,9.77,1.38
5535062328000,-0.99,9.77,1.38
5535162426000,-0.76,9.7,1.54
5535212353000,-0.95,9.81,1.54
5535262218000,-0.95,9.62,1.38
5535312328000,-1.14,9.85,1.54
5535362347000,-0.95,9.62,1.33
5535412334000,-0.76,9.85,1.61
5535462322000,-1.04,9.89,1.42
5535512310000,-1.08,9.89,1.57
5535562359000,-0.53,9.51,1.18
5535612347000,-0.57,9.7,1.46
5535662334000,-0.84,9.62,1.27
5535712322000,-1.31,9.72,1.46
5535762310000,-1.31,9.77,1.27
5535812298000,-1.23,9.77,1.31
5535862347000,-1.14,9.7,1.33
5535912334000,-1.18,9.72,1.61
5535962322000,-1.04,9.66,1.5
5536012310000,-0.84,9.62,1.27
5536062328000,-0.89,9.72,1.5
5536112377000,-0.95,9.7,1.33
5536162365000,-1.18,9.72,1.33
5536212292000,-1.27,9.72,1.38
5536262310000,-1.27,9.66,1.33
5536312328000,-1.18,9.7,1.38
5536362316000,-0.99,9.7,1.27
5536412304000,-1.08,9.7,1.42
5536462322000,-1.14,9.66,1.31
5536512341000,-1.38,9.81,1.46
5536562298000,-1.46,9.77,1.42
5536612347000,-1.23,9.7,1.27
5536662334000,-1.23,9.72,1.33
5536712322000,-1.08,9.62,1.23
5536762341000,-1.14,9.72,1.5
5536812267000,-1.14,9.72,1.42
5536862316000,-1.14,9.7,1.33
5536912304000,-1.23,9.72,1.38
5536962322000,-1.12,9.7,1.42
5537012249000,-1.08,9.7,1.42
5537062298000,-1.08,9.72,1.42
5537112347000,-1.14,9.72,1.46
5537162334000,-1.08,9.72,1.38
5537212292000,-0.95,9.72,1.46
5537262310000,-0.95,9.62,1.42
5537312298000,-1.12,9.72,1.42
5537362286000,-1.12,9.72,1.38
5537412334000,-1.14,9.7,1.5
5537462292000,-1.18,9.72,1.5
5537512341000,-1.12,9.66,1.38
5537562328000,-1.04,9.72,1.42
5537612286000,-1.04,9.72,1.46
5537662304000,-1.12,9.72,1.5
5537712322000,-0.99,9.7,1.46
5537762279000,-1.04,9.7,1.46
5537812328000,-1.08,9.72,1.5
5537862316000,-1.04,9.72,1.42
5537912273000,-1.04,9.7,1.5
5537962261000,-1.08,9.72,1.65
5538012249000,-1.04,9.7,1.46
5538062359000,-0.99,9.72,1.54
5538112316000,-0.99,9.72,1.46
5538162304000,-1.12,9.72,1.5
5538212322000,-1.08,9.7,1.42
5538262310000,-0.99,9.7,1.5
5538312298000,-0.91,9.7,1.54
5538362347000,-0.76,9.72,1.46
5538412334000,-0.84,9.7,1.42
5538462261000,-0.91,9.7,1.42
5538512371000,-0.99,9.72,1.54
5538562298000,-0.89,9.72,1.46
5538612316000,-0.89,9.7,1.5
5538662334000,-0.91,9.72,1.42
5538712322000,-0.99,9.77,1.42
5538762341000,-0.91,9.7,1.54
5538812298000,-0.95,9.7,1.54
5538862316000,-0.89,9.7,1.42
5538912334000,-0.91,9.72,1.5
5538962322000,-0.95,9.7,1.46
5539012249000,-0.91,9.72,1.46
5539062298000,-0.89,9.72,1.5
5539062298000,-0.89,9.72,1.5
5539162273000,-0.89,9.72,1.54
5539212292000,-0.95,9.72,1.46
5539212292000,-0.95,9.72,1.46
5539312328000,-0.95,9.77,1.46
5539362347000,-0.89,9.7,1.5
5539412273000,-0.89,9.72,1.5
5539462719000,-0.99,9.72,1.46
5539512341000,-0.91,9.72,1.42
5539562298000,-0.95,9.72,1.46
5539612316000,-0.95,9.72,1.5
5539662273000,-0.95,9.72,1.46
5539712322000,-0.99,9.7,1.42
5539762341000,-0.95,9.72,1.46
5539812328000,-0.91,9.7,1.5
5539862347000,-0.84,9.7,1.54
5539912334000,-0.99,9.72,1.46
5539962292000,-0.91,9.72,1.57
5540012341000,-0.95,9.7,1.42
5540062298000,-0.99,9.77,1.57
5540112347000,-0.91,9.7,1.38
5540162304000,-0.84,9.72,1.5
5540212353000,-0.91,9.77,1.57
5540262310000,-0.89,9.7,1.42
5540312328000,-0.99,9.77,1.54
5540362316000,-0.89,9.7,1.46
5540412304000,-0.84,9.7,1.57
5540462322000,-0.89,9.72,1.5
5540512310000,-0.8,9.72,1.54
5540562298000,-0.84,9.7,1.5
5540612347000,-0.95,9.72,1.54
5540662304000,-0.95,9.77,1.57
5540712322000,-0.91,9.72,1.54
5540762341000,-0.84,9.7,1.46
5540812298000,-0.84,9.72,1.54
5540862377000,-0.91,9.72,1.42
5540912334000,-0.8,9.7,1.5
5540962322000,-0.84,9.7,1.61
5541012249000,-0.89,9.72,1.5
5541062328000,-0.95,9.72,1.5
5541112316000,-0.99,9.77,1.5
5541162731000,-0.89,9.7,1.54
5541212322000,-0.8,9.7,1.5
5541262279000,-0.89,9.7,1.5
5541312328000,-0.91,9.77,1.46
5541362347000,-0.99,9.72,1.38
5541412334000,-0.91,9.72,1.5
5541462322000,-0.76,9.7,1.61
5541512310000,-0.8,9.7,1.42
5541562298000,-0.99,9.81,1.54
5541612347000,-0.89,9.7,1.38
5541662334000,-1.08,9.81,1.61
5541712353000,-0.89,9.66,1.46
5541762310000,-0.76,9.66,1.27
5541812328000,-0.65,9.7,1.54
5541862377000,-0.91,9.72,1.61
5541912304000,-0.99,9.72,1.54
5541962292000,-0.95,9.72,1.54
5542012249000,-0.89,9.7,1.5
5542062267000,-0.89,9.7,1.57
5542112347000,-0.84,9.7,1.5
5542162304000,-0.76,9.66,1.5
5542212322000,-0.95,9.72,1.5
5542262310000,-0.95,9.72,1.54
5542312298000,-0.95,9.77,1.46
5542362347000,-0.91,9.72,1.5
5542412304000,-0.8,9.7,1.5
5542462292000,-0.8,9.72,1.5
5542512341000,-0.89,9.77,1.54
5542562328000,-0.8,9.77,1.5
5542612347000,-0.84,9.72,1.46
5542662304000,-0.84,9.72,1.5
5542712292000,-0.8,9.77,1.5
5542762279000,-0.95,9.77,1.5
5542812328000,-0.72,9.7,1.42
5542862316000,-0.84,9.72,1.57
5542912304000,-0.84,9.7,1.5
5542962292000,-0.76,9.7,1.57
5543012279000,-0.72,9.72,1.42
5543062359000,-0.91,9.58,1.38
5543112377000,-0.99,9.81,1.57
5543162334000,-0.95,9.7,1.54
5543232281000,-0.84,9.7,1.46
5543282360000,-0.89,9.7,1.5
5543332287000,-0.91,9.77,1.54
5543382305000,-0.89,9.72,1.54
5543482159000,-0.91,9.72,1.54
5543482159000,-0.91,9.72,1.54
5543532269000,-0.91,9.72,1.46
5543582348000,-0.8,9.72,1.5
5543632305000,-0.89,9.72,1.5
5543682293000,-0.8,9.72,1.54
5543732311000,-0.91,9.72,1.57
5543782299000,-0.91,9.72,1.46
5543832317000,-0.89,9.72,1.5
5543882305000,-0.91,9.7,1.5
5543932293000,-0.91,9.72,1.46
5543982281000,-0.91,9.7,1.46
5544032299000,-0.91,9.72,1.54
5544082317000,-0.89,9.72,1.5
5544132275000,-0.89,9.72,1.46
5544182293000,-0.91,9.72,1.46
5544232311000,-0.89,9.72,1.54
5544282269000,-0.91,9.72,1.54
5544332317000,-0.89,9.72,1.46
5544382305000,-0.91,9.7,1.46
5544432323000,-0.89,9.77,1.5
5544482342000,-0.91,9.72,1.46
5544532269000,-0.91,9.72,1.57
5544582287000,-0.84,9.72,1.46
5544632275000,-0.91,9.72,1.46
5544682293000,-0.91,9.72,1.5
5544732311000,-0.89,9.72,1.5
5544782330000,-0.8,9.7,1.54
5544832348000,-0.89,9.72,1.46
5544882275000,-0.84,9.72,1.46
5544932323000,-0.91,9.72,1.54
5544982342000,-0.84,9.7,1.46
5545032330000,-0.91,9.77,1.5
5545082317000,-0.91,9.72,1.46
5545132305000,-0.91,9.7,1.42
5545182293000,-0.99,9.77,1.42
5545232311000,-0.95,9.77,1.5
5545282238000,-0.84,9.7,1.5
5545332348000,-0.91,9.77,1.57
5545382305000,-0.91,9.7,1.42
5545432323000,-0.84,9.72,1.5
5545482281000,-0.89,9.72,1.5
5545532269000,-0.84,9.72,1.5
5545582287000,-0.91,9.72,1.54
5545632336000,-0.89,9.7,1.46
5545682293000,-0.84,9.7,1.54
5545732311000,-0.89,9.7,1.46
5545782330000,-0.84,9.72,1.5
5545832287000,-0.84,9.72,1.54
5545882366000,-0.91,9.7,1.5
5545932293000,-0.76,9.66,1.5
5545982311000,-0.8,9.72,1.54
5546032299000,-0.89,9.72,1.5
5546082287000,-0.8,9.72,1.5
5546132305000,-0.91,9.72,1.46
5546182293000,-0.95,9.77,1.46
5546232311000,-0.91,9.81,1.46
5546282269000,-0.95,9.72,1.33
5546332348000,-0.99,9.7,1.38
5546382305000,-0.84,9.72,1.46
5546432293000,-0.91,9.72,1.42
5546482311000,-0.95,9.72,1.5
5546532299000,-0.95,9.7,1.46
5546582287000,-0.99,9.72,1.46
5546632336000,-0.91,9.66,1.38
5546682323000,-0.89,9.77,1.5
5546732311000,-0.84,9.72,1.5
5546782299000,-0.8,9.72,1.38
5546832378000,-0.99,9.81,1.38
5546882336000,-0.89,9.72,1.42
5546932323000,-0.95,9.7,1.46
5546982342000,-0.99,9.77,1.57
5547032330000,-0.84,9.7,1.42
5547082348000,-0.95,9.72,1.5
5547132305000,-0.91,9.72,1.46
5547182293000,-0.89,9.72,1.42
5547232281000,-0.89,9.72,1.46
5547282848000,-0.95,9.72,1.5
5547332287000,-0.95,9.72,1.46
5547332287000,-0.95,9.72,1.46
5547432293000,-0.89,9.7,1.5
5547482311000,-0.91,9.7,1.54
5547532299000,-0.91,9.72,1.5
5547582317000,-0.99,9.77,1.38
5547632336000,-0.84,9.72,1.42
5547632336000,-0.84,9.72,1.42
5547732311000,-0.8,9.72,1.38
5547782391000,-0.84,9.7,1.42
5547832348000,-0.91,9.77,1.46
5547882305000,-0.89,9.72,1.46
5547932293000,-0.84,9.7,1.46
5547982342000,-0.72,9.77,1.61
5548032299000,-0.8,9.72,1.5
5548082348000,-0.8,9.7,1.42
5548132305000,-0.84,9.72,1.42
5548182323000,-0.89,9.77,1.54
5548232372000,-0.8,9.72,1.5
5548282269000,-0.8,9.7,1.42
5548332317000,-0.84,9.7,1.46
5548382305000,-0.84,9.72,1.5
5548432293000,-0.84,9.77,1.54
5548482342000,-0.8,9.7,1.5
5548532299000,-0.72,9.72,1.5
5548582256000,-0.89,9.77,1.5
5548632305000,-0.76,9.7,1.42
5548682323000,-0.89,9.72,1.46
5548732342000,-0.8,9.7,1.54
5548782299000,-0.8,9.7,1.5
5548832317000,-0.76,9.72,1.5
5548882305000,-0.84,9.77,1.5
5548932293000,-0.84,9.72,1.46
5548982281000,-0.84,9.77,1.46
5549032299000,-0.89,9.77,1.5
5549082317000,-0.84,9.72,1.5
5549132275000,-0.84,9.72,1.46
5549182354000,-0.76,9.7,1.5
5549232311000,-0.84,9.72,1.46
5549282269000,-0.8,9.72,1.54
5549332287000,-0.8,9.72,1.46
5549382336000,-0.89,9.77,1.54
5549432323000,-0.84,9.72,1.5
5549482311000,-0.76,9.72,1.5
5549532299000,-0.8,9.72,1.5
5549582317000,-0.76,9.7,1.46
5549632305000,-0.89,9.72,1.57
5549682262000,-0.89,9.72,1.5
5549732281000,-0.76,9.72,1.5
5549782299000,-0.76,9.7,1.46
5549832348000,-0.8,9.77,1.61
5549882305000,-0.8,9.7,1.5
5549932323000,-0.76,9.72,1.42
5549982311000,-0.84,9.72,1.54
5550032269000,-0.84,9.72,1.46
5550082287000,-0.8,9.7,1.46
5550082287000,-0.8,9.7,1.46
5550182110000,-0.8,9.77,1.5
5550232372000,-0.76,9.7,1.5
5550282207000,-0.84,9.7,1.5
5550332409000,-0.84,9.72,1.46
5550382305000,-0.8,9.77,1.46
5550432293000,-0.89,9.77,1.54
5550482342000,-0.72,9.7,1.46
5550482342000,-0.72,9.7,1.46
5550582623000,-0.84,9.7,1.54
5550632336000,-0.84,9.72,1.46
5550682476000,-0.8,9.72,1.5
5550732342000,-0.76,9.7,1.46
5550782330000,-0.84,9.77,1.54
5550832348000,-0.76,9.66,1.38
5550882336000,-0.72,9.72,1.54
5550932323000,-0.76,9.7,1.5
5550982311000,-0.84,9.7,1.5
5551034863000,-0.8,9.72,1.42
5551034863000,-0.8,9.72,1.42
5551092998000,-0.65,9.7,1.54
5551143047000,-0.61,9.66,1.46
5551193035000,-0.95,9.81,1.46
5551243023000,-0.91,9.85,1.5
5551293316000,-0.69,9.58,1.46
5551352337000,-0.65,9.77,1.57
5551402294000,-0.89,9.77,1.42
5551452343000,-0.95,9.72,1.27
5551502300000,-0.89,9.72,1.5
5551552349000,-0.69,9.7,1.54
5551602337000,-0.76,9.72,1.46
5551652294000,-0.95,9.77,1.46
5551702312000,-0.8,9.77,1.38
5551752331000,-0.8,9.66,1.42
5551802349000,-0.65,9.72,1.57
5551852337000,-0.65,9.77,1.42
5551902325000,-0.91,9.81,1.38
5551952343000,-0.89,9.77,1.42
5552002361000,-0.69,9.7,1.46
5552002361000,-0.69,9.7,1.46
5552102306000,-0.65,9.72,1.46
5552152325000,-1.04,9.81,1.33
5552202373000,-0.91,9.77,1.31
5552252361000,-0.89,9.77,1.5
5552302349000,-0.72,9.7,1.31
5552352306000,-0.72,9.77,1.46
5552402325000,-0.65,9.72,1.38
5552452343000,-0.89,9.77,1.5
5552502331000,-0.8,9.7,1.46
5552552349000,-0.89,9.72,1.5
5552602306000,-0.89,9.72,1.42
5552652294000,-0.84,9.72,1.46
5552702343000,-0.8,9.66,1.54
5552752331000,-0.72,9.66,1.5
5552802380000,-0.89,9.77,1.42
5552852337000,-0.99,9.77,1.38
5552902325000,-0.95,9.72,1.42
5552952343000,-0.69,9.72,1.54
5553002636000,-0.65,9.66,1.5
5553052349000,-0.76,9.72,1.42
5553102306000,-0.8,9.66,1.42
5553152325000,-0.76,9.7,1.46
5553202343000,-0.99,9.7,1.54
5553252331000,-0.89,9.72,1.54
5553302319000,-0.84,9.72,1.42
5553352306000,-0.89,9.77,1.42
5553402843000,-0.84,9.77,1.5
5553452343000,-0.8,9.7,1.42
5553502331000,-0.65,9.66,1.5
5553552349000,-0.95,9.77,1.5
5553602337000,-1.04,9.72,1.38
5553652325000,-0.89,9.66,1.42
5553702343000,-0.84,9.7,1.57
5553752331000,-0.61,9.62,1.5
5553802349000,-0.8,9.89,1.61
5553852337000,-1.04,9.7,1.23
5553902386000,-1.08,9.77,1.54
5554012127000,-0.69,9.72,1.46
5554012127000,-0.69,9.72,1.46
5554062237000,-0.69,9.72,1.54
5554122387000,-0.99,9.81,1.5
5554172314000,-0.95,9.66,1.38
5554222332000,-0.91,9.7,1.5
5554272289000,-0.84,9.7,1.54
5554322308000,-0.89,9.7,1.46
5554372295000,-0.8,9.72,1.46
5554422314000,-0.89,9.72,1.54
5554472332000,-0.84,9.7,1.5
5554522289000,-0.89,9.77,1.5
5554572338000,-0.84,9.7,1.46
5554622265000,-0.84,9.7,1.5
5554672344000,-0.8,9.72,1.54
5554722271000,-0.8,9.66,1.54
5554772289000,-0.89,9.7,1.54
5554822369000,-0.91,9.72,1.57
5554872295000,-0.91,9.7,1.5
5554922344000,-0.89,9.72,1.57
5554972332000,-0.76,9.66,1.42
5555022320000,-0.91,9.77,1.57
5555072308000,-0.91,9.72,1.5
5555122326000,-0.84,9.7,1.46
5555172314000,-0.72,9.72,1.46
5555222332000,-0.89,9.77,1.5
5555275799000,-0.84,9.7,1.46
5555332348000,-0.91,9.72,1.42
5555382336000,-0.84,9.7,1.5
5555432293000,-0.84,9.72,1.38
5555482311000,-0.91,9.72,1.46
5555532330000,-0.95,9.77,1.57
5555582317000,-0.91,9.72,1.38
5555632305000,-1.08,9.77,1.38
5555682323000,-0.91,9.72,1.5
5555732311000,-0.89,9.66,1.38
5555782391000,-0.8,9.72,1.46
5555832317000,-0.8,9.7,1.54
5555882305000,-0.84,9.7,1.33
5555932293000,-0.89,9.7,1.46
5555982281000,-0.72,9.7,1.46
5556032299000,-0.8,9.77,1.46
5556082348000,-0.76,9.72,1.5
5556132305000,-0.84,9.7,1.5
5556182323000,-0.91,9.77,1.42
5556232372000,-0.84,9.7,1.54
5556282238000,-0.95,9.72,1.5
5556332348000,-0.91,9.7,1.46
5556382305000,-0.95,9.72,1.54
5556432293000,-0.89,9.72,1.5
5556482342000,-0.91,9.7,1.61
5556532299000,-0.89,9.7,1.54
5556582256000,-0.91,9.7,1.54
5556632305000,-0.91,9.7,1.5
5556682293000,-1.04,9.72,1.5
5556732311000,-0.95,9.72,1.5
5556782269000,-0.95,9.72,1.57
5556832287000,-0.95,9.72,1.5
5556882336000,-0.91,9.7,1.46
5556932323000,-0.95,9.77,1.5
5556982311000,-0.95,9.72,1.33
5557032299000,-0.95,9.7,1.42
5557082317000,-0.84,9.7,1.5
5557132305000,-0.8,9.7,1.5
5557182598000,-0.95,9.72,1.46
5557232281000,-0.95,9.72,1.54
5557282330000,-0.91,9.77,1.42
5557332317000,-0.91,9.72,1.46
5557382305000,-0.8,9.72,1.54
5557432323000,-0.91,9.7,1.42
5557482311000,-0.8,9.7,1.42
5557532299000,-0.84,9.7,1.5
5557582317000,-0.95,9.72,1.57
5557632305000,-0.91,9.72,1.42
5557682293000,-0.99,9.66,1.46
5557732342000,-1.04,9.81,1.65
5557782330000,-1.08,9.7,1.42
5557832317000,-0.95,9.72,1.42
5557882305000,-0.84,9.77,1.42
5557932323000,-0.72,9.72,1.46
5557982311000,-0.8,9.66,1.46
5558032330000,-1.12,9.77,1.42
5558082317000,-1.14,9.77,1.46
5558132366000,-1.12,9.7,1.46
5558182293000,-1.14,9.77,1.57
5558232342000,-0.99,9.66,1.38
5558282330000,-1.08,9.77,1.61
5558332317000,-1.08,9.66,1.42
5558382336000,-1.18,9.81,1.46
5558432323000,-1.12,9.66,1.31
5558482342000,-0.89,9.7,1.57
5558532299000,-0.84,9.7,1.54
5558582317000,-0.89,9.7,1.5
5558632336000,-1.04,9.81,1.42
5558682293000,-1.04,9.7,1.46
5558732281000,-1.04,9.72,1.46
5558782330000,-0.99,9.7,1.54
5558832287000,-0.89,9.7,1.54
5558882336000,-1.08,9.72,1.5
5558932323000,-1.12,9.77,1.54
5558982342000,-1.08,9.7,1.5
5558982342000,-1.08,9.7,1.5
5559052319000,-1.04,9.7,1.5
5559102276000,-1.04,9.7,1.54
5559152325000,-0.99,9.7,1.46
5559202343000,-1.08,9.77,1.54
5559252331000,-0.91,9.66,1.54
5559302349000,-0.95,9.7,1.46
5559352337000,-0.91,9.66,1.5
5559402325000,-1.04,9.7,1.5
5559452343000,-0.91,9.72,1.57
5559502331000,-0.99,9.7,1.5
5559552319000,-0.89,9.7,1.54
5559602306000,-0.89,9.7,1.61
5559652294000,-0.91,9.7,1.5
5559702343000,-0.91,9.72,1.57
5559752361000,-0.95,9.7,1.42
5559802349000,-0.91,9.77,1.54
5559852306000,-0.91,9.7,1.5
5559902294000,-0.91,9.7,1.46
5559952343000,-0.89,9.7,1.54
5560002544000,-0.91,9.72,1.5
5560052349000,-0.95,9.7,1.46
5560102306000,-0.95,9.72,1.46
5560152294000,-0.84,9.72,1.57
5560202343000,-0.91,9.72,1.46
5560252453000,-0.95,9.66,1.46
5560312237000,-0.89,9.72,1.33
5560362316000,-0.89,9.7,1.46
5560412365000,-0.76,9.77,1.5
5560462322000,-0.84,9.72,1.54
5560512341000,-0.8,9.7,1.46
5560562328000,-0.91,9.77,1.42
5560612316000,-1.14,9.77,1.33
5560662304000,-1.08,9.77,1.23
5560712322000,-1.04,9.72,1.33
5560762341000,-0.95,9.77,1.42
5560812298000,-0.95,9.72,1.27
5560862347000,-1.04,9.77,1.31
5560912304000,-1.04,9.81,1.46
5560962353000,-0.99,9.72,1.31
5561012249000,-0.84,9.77,1.5
5561062328000,-0.91,9.66,1.42
5561112316000,-0.8,9.72,1.42
5561162304000,-0.84,9.77,1.42
5561212292000,-0.84,9.72,1.42
5561262310000,-0.89,9.7,1.46
5561312237000,-0.8,9.72,1.5
5561362316000,-0.89,9.72,1.42
5561412304000,-0.89,9.72,1.5
5561462292000,-0.84,9.7,1.5
5561512310000,-0.8,9.7,1.5
5561562298000,-0.76,9.72,1.5
5561612347000,-0.91,9.7,1.57
5561662334000,-0.84,9.72,1.5
5561712292000,-0.95,9.72,1.42
5561762310000,-0.91,9.77,1.42
5561812328000,-0.84,9.72,1.46
5561862347000,-0.8,9.7,1.38
5561912334000,-0.84,9.77,1.54
5561962322000,-0.89,9.72,1.46
5562012218000,-0.89,9.77,1.42
5562062359000,-0.84,9.7,1.5
5562112347000,-0.95,9.77,1.57
5562162334000,-0.89,9.7,1.46
5562212292000,-0.84,9.7,1.5
5562262310000,-0.89,9.81,1.54
5562312298000,-0.84,9.72,1.46
5562362743000,-0.8,9.72,1.46
5562412334000,-0.91,9.7,1.54
5562462322000,-0.89,9.72,1.5
5562512310000,-0.89,9.7,1.46
5562562328000,-0.99,9.72,1.57
5562612316000,-0.84,9.72,1.5
5562662304000,-0.89,9.72,1.5
5562712292000,-0.84,9.72,1.5
5562762310000,-0.91,9.77,1.46
5562812267000,-0.91,9.7,1.46
5562862347000,-0.84,9.72,1.54
5562912334000,-0.84,9.72,1.46
5562962292000,-0.8,9.7,1.46
5563012249000,-0.89,9.72,1.46
5563062298000,-0.84,9.72,1.5
5563112316000,-0.89,9.72,1.54
5563162334000,-0.84,9.7,1.5
5563212292000,-0.84,9.77,1.5
5563262279000,-0.84,9.7,1.5
5563312298000,-0.84,9.72,1.54
5563362316000,-0.89,9.72,1.5
5563412334000,-0.91,9.77,1.54
5563462322000,-0.8,9.7,1.57
5563512310000,-0.8,9.72,1.54
5563562328000,-0.76,9.7,1.5
5563612316000,-0.76,9.66,1.57
5563662334000,-0.5,9.53,1.5
5563712322000,-0.57,9.7,1.69
5563762829000,-0.8,9.72,1.73
5563812298000,-0.8,9.47,1.42
5563862347000,-0.65,9.51,1.08
5563912334000,-0.5,9.53,0.99
5563962322000,-0.53,9.62,0.65
5564012341000,-0.69,9.7,0.08
5564062328000,-1.84,10.5,0.46
5564112347000,-1.33,11.41,3.41
5564162334000,-0.5,9.85,1.46
5564212322000,-0.91,9.23,-0.27
5564262341000,1.27,10.27,-0.84
5564312298000,-0.19,9.77,0.99
5564362347000,-1.33,10.15,0.95
5564412334000,-0.76,9.81,0.31
5564462292000,-0.69,9.81,0.27
5564512341000,-0.8,9.96,-0.11
5564562328000,-0.69,9.92,-0.11
5564632305000,-0.72,10.04,-0.11
5564682262000,-0.65,9.81,-0.42
5564732403000,-0.65,9.92,-0.34
5564782269000,-0.89,9.72,-0.27
5564832348000,-0.91,9.96,-0.3
5564882336000,-0.57,9.85,-0.57
5564932323000,-0.23,10.04,-0.38
5564982342000,-0.5,10.08,-0.46
5565032330000,-0.91,9.85,-0.27
5565082317000,-0.3,10.04,-0.91
5565132336000,-0.61,9.89,-1.18
5565182354000,-1.53,10.0,-1.12
5565232342000,-1.33,9.96,-0.72
5565282238000,-0.95,10.08,-1.38
5565332348000,-1.5,9.72,-2.14
5565382305000,-1.27,9.72,-1.76
5565432323000,-0.91,10.08,-0.27
5565482311000,-0.69,9.96,-0.65
5565532330000,-1.08,9.85,-1.53
5565582348000,-0.95,9.92,-1.76
5565632305000,-1.04,9.92,-0.95
5565682323000,-0.91,10.0,-0.76
5565732342000,-1.04,9.96,-1.18
5565782360000,-1.23,9.89,-1.33
5565832348000,-1.04,9.96,-1.18
5565882336000,-1.04,9.92,-1.23
5565932323000,-1.12,10.0,-1.27
5565982372000,-0.95,9.89,-1.23
5565982372000,-0.95,9.89,-1.23
5566070354000,-1.08,9.92,-1.33
5566070354000,-1.08,9.92,-1.33
5566142162000,-1.14,9.89,-1.23
5566193035000,-1.18,9.92,-1.33
5566242992000,-1.14,9.92,-1.42
5566293041000,-1.23,9.89,-1.23
5566342998000,-1.04,9.96,-1.27
5566393017000,-0.95,9.92,-1.33
5566442974000,-1.04,9.92,-1.18
5566492992000,-1.14,9.85,-1.33
5566542980000,-1.31,9.85,-1.53
5566593304000,-1.04,9.96,-1.18
5566652294000,-1.08,9.96,-1.12
5566702343000,-1.04,9.81,-1.31
5566752300000,-0.95,10.0,-1.31
5566802349000,-1.12,9.92,-1.12
5566852337000,-1.12,9.89,-1.04
5566902355000,-1.04,9.96,-1.33
5566952343000,-1.33,9.81,-1.23
5567002758000,-1.08,10.04,-1.23
5567052349000,-1.12,9.77,-1.04
5567102367000,-0.99,10.04,-1.27
5567152325000,-1.08,9.85,-1.08
5567202343000,-1.12,9.96,-1.18
5567252331000,-1.08,9.89,-1.23
5567302349000,-0.95,9.96,-1.12
5567352306000,-0.89,9.96,-0.99
5567402294000,-0.89,9.92,-0.95
5567452373000,-1.08,9.96,-1.14
5567502300000,-1.08,9.81,-1.23
5567552380000,-1.14,10.0,-1.33
5567602398000,-1.27,9.89,-1.27
5567652294000,-1.27,9.92,-1.23
5567702312000,-1.14,9.92,-1.14
5567752300000,-1.14,9.92,-1.31
5567802319000,-1.14,9.92,-1.18
5567852306000,-1.14,9.92,-1.04
5567902325000,-1.23,9.92,-1.18
5567952343000,-1.08,9.89,-1.31
5568002361000,-1.04,10.0,-1.08
5568052349000,-1.18,9.89,-0.65
5568102337000,-1.08,10.04,-0.99
5568152325000,-0.69,9.72,-1.08
5568202343000,-0.72,10.27,-0.76
5568252331000,-0.69,9.92,-0.53
5568302349000,-0.53,10.15,-0.76
5568352337000,-0.65,9.92,-0.65
5568402294000,-1.04,9.92,-0.72
5568452343000,-0.69,10.0,-0.89
5568502300000,-0.69,10.0,-0.46
5568552380000,-0.46,10.08,-0.11
5568602459000,-0.61,10.04,-0.34
5568652355000,-0.65,9.85,-0.61
5568702404000,-0.72,9.96,-0.89
5568752331000,-0.84,9.85,-0.99
5568802349000,-1.12,10.0,-0.69
5568852337000,-1.5,9.7,-0.76
5568902325000,-1.57,9.89,-0.72
5568962322000,-1.33,9.85,-0.57
5569012249000,-1.5,9.85,-0.34
5569062328000,-1.38,9.89,-0.84
5569112347000,-1.53,9.96,-0.53
5569162334000,-1.57,10.0,0.34
5569212322000,-1.38,9.89,0.34
5569262341000,-1.27,9.85,-0.11
5569312298000,-1.23,10.0,0.38
5569362347000,-1.95,10.04,1.76
5569412395000,-2.14,10.23,0.23
5569462322000,-1.88,9.81,-0.3
5569512341000,-1.18,9.19,0.04
5569562389000,-1.46,9.19,1.14
5569612316000,-2.03,9.47,1.5
5569662304000,-1.73,10.15,1.95
5569712292000,-0.76,10.5,2.76
5569762279000,-1.84,9.08,1.14
5569812328000,-1.65,9.0,-0.3
5569862347000,-0.84,9.77,1.5
5569912334000,-1.73,10.08,1.99
5569962322000,-1.76,9.66,1.08
5570012249000,-0.89,9.62,0.72
5570062298000,-0.89,9.38,0.8
5570112347000,-2.03,10.19,1.31
5570162334000,-1.65,9.89,1.33
5570212322000,-0.95,9.77,0.65
5570262310000,-1.12,9.7,1.12
5570312450000,-1.14,9.85,1.18
5570362347000,-1.5,9.85,1.12
5570412304000,-1.18,9.81,1.12
5570462322000,-0.95,9.66,0.93
5570512341000,-1.14,9.81,1.18
5570562298000,-1.18,9.85,1.18
5570612316000,-1.04,9.77,1.08
5570662334000,-1.08,9.66,1.12
5570712322000,-1.18,9.7,1.08
5570762310000,-1.31,9.85,1.08
5570812328000,-1.08,9.81,1.04
5570862316000,-1.12,9.77,1.04
5570912334000,-1.14,9.85,1.12
5570962322000,-1.12,9.81,1.18
5571012279000,-1.14,9.77,0.99
5571062328000,-0.84,9.72,0.93
5571112286000,-0.84,9.77,0.93
5571182354000,-1.18,9.92,1.33
5571232220000,-0.89,9.7,0.95
5571282299000,-0.95,9.7,0.95
5571332378000,-1.08,9.89,1.18
5571382397000,-1.14,9.81,0.99
5571432293000,-0.91,9.81,1.04
5571482342000,-0.84,9.7,1.08
5571532330000,-0.99,9.81,1.14
5571582409000,-0.99,9.85,1.18
5571632336000,-1.04,9.77,1.12
5571682323000,-1.12,9.81,1.18
5571732342000,-1.04,9.77,1.12
5571782299000,-0.99,9.77,1.08
5571832317000,-1.04,9.77,1.18
5571882305000,-1.08,9.77,0.95
5571932323000,-0.95,9.81,1.14
5571982311000,-0.91,9.81,1.12
5572032299000,-0.95,9.81,1.14
5572082287000,-0.95,9.81,1.18
5572132336000,-0.99,9.72,1.08
5572182323000,-0.91,9.81,1.18
5572232281000,-0.91,9.77,1.18
5572282330000,-0.95,9.81,1.23
5572332348000,-0.91,9.72,1.14
5572382336000,-0.99,9.81,1.18
5572432293000,-1.04,9.81,1.12
5572482311000,-0.99,9.81,1.18
5572532330000,-0.99,9.72,1.14
5572532330000,-0.99,9.72,1.14
5572632366000,-0.95,9.81,1.23
5572682293000,-0.65,9.85,1.23
5572732342000,-0.76,9.81,1.14
5572782330000,-1.04,9.72,0.99
5572832348000,-1.27,9.81,1.18
5572882305000,-1.12,9.81,1.23
5572932293000,-1.08,9.81,1.18
5572982342000,-0.89,9.72,1.27
5573032330000,-0.8,9.81,1.18
5573082287000,-1.08,9.81,1.18
5573132275000,-1.08,9.7,1.18
5573182323000,-1.18,9.81,1.23
5573232311000,-1.14,9.77,1.12
5573282330000,-1.08,9.81,1.23
5573332348000,-0.95,9.77,1.08
5573382305000,-0.95,9.77,1.18
5573432354000,-0.99,9.81,1.14
5573482342000,-0.91,9.77,1.08
5573532299000,-0.89,9.85,1.18
5573582348000,-0.95,9.77,1.12
5573632305000,-0.84,9.81,1.18
5573682293000,-0.84,9.77,1.04
5573732311000,-1.04,9.85,1.14
5573782330000,-1.04,9.77,1.18
5573832348000,-0.99,9.77,1.14
5573882336000,-0.95,9.85,1.18
5573932293000,-1.04,9.81,1.18
5573982342000,-0.91,9.77,1.08
5574032299000,-0.95,9.77,1.12
5574082348000,-1.23,10.04,0.93
5574132336000,-0.76,9.58,1.12
5574182323000,-0.57,9.72,1.54
5574232342000,-1.18,9.85,1.31
5574282330000,-0.72,9.77,1.23
5574332348000,-0.84,9.7,0.99
5574382336000,-0.95,9.62,1.23
5574432323000,-0.91,9.72,1.42
5574482342000,-1.08,9.7,1.33
5574532330000,-0.84,9.92,1.42
5574582317000,-0.42,9.72,1.27
5574632336000,-0.34,10.15,1.31
5574682293000,-0.15,9.3,0.8
5574732311000,-1.33,9.3,0.84
5574782330000,-2.03,10.23,1.12
5574832317000,-2.03,9.7,1.18
5574882336000,-1.65,9.77,1.23
5574932323000,-0.91,9.7,1.08
5574982342000,-0.46,9.96,1.38
5575032330000,-0.84,9.92,1.04
5575082348000,-0.65,9.34,0.65
5575132336000,-1.46,10.04,1.14
5575182323000,-1.99,9.7,0.93
5575232342000,-1.12,9.23,-0.08
5575282238000,-1.69,8.5,0.5
5575332317000,-2.75,8.5,0.5
5575382275000,-1.95,10.15,0.69
5575432384000,1.04,10.5,2.6
5575482281000,-0.46,9.08,0.95
5575532330000,-0.42,10.04,-0.15
5575582348000,-0.95,10.31,2.45
5575632366000,-1.42,9.72,3.21
5575682293000,-1.08,9.0,1.12
5575732342000,-0.76,9.38,1.04
5575782330000,-1.46,10.04,3.68
3194742229000,1.76,9.7,0.38136974
3194792278000,1.5,10.12,0.7218784
3194842266000,1.27,10.15,0.88532263
3194892284000,1.5,10.04,1.1441092
3194942211000,1.8,9.66,0.8036005
3194992260000,2.3,9.66,0.95342433
3195042217000,1.92,9.77,0.7627395
3195092297000,1.69,10.15,0.95342433
3195142223000,1.65,9.81,0.5720546
3195192272000,1.57,10.08,0.6537767
3195243176000,1.23,9.96,0.3405087
3195292278000,1.46,10.15,0.50395286
3195342266000,1.57,9.89,0.53119355
3195392223000,1.92,9.85,0.61291564
3195442272000,1.61,9.89,0.5720546
3195492199000,1.69,10.04,0.6946377
3195542278000,1.54,9.85,0.61291564
3195592266000,1.84,9.96,0.6537767
3195642284000,1.54,9.81,0.7627395
3195692242000,2.18,9.89,1.0760075
3195742229000,2.3,9.62,1.2666923
3195792278000,2.11,9.85,1.1441092
3195842236000,1.69,9.89,1.0351465
3195892284000,1.54,9.96,0.92618364
3195942211000,1.38,9.96,0.88532263
3195992229000,1.46,9.89,0.88532263
3196042217000,1.73,9.81,1.0760075
3196092266000,2.11,9.77,1.1441092
3196142223000,1.84,9.77,1.3075534
3196192272000,1.76,9.89,1.0760075
3196242229000,1.57,9.89,0.88532263
3196302380000,1.65,9.96,0.7218784
3196352276000,1.69,9.85,0.84446156
3196402233000,1.65,9.96,1.0351465
3196452251000,1.76,9.77,1.2258313
3196502239000,1.95,9.85,1.3075534
3196552288000,1.8,9.72,1.3075534
3196602215000,1.73,9.85,1.0351465
3196652233000,1.57,9.92,1.2666923
3196702221000,1.69,9.81,1.0760075
3196752270000,1.54,9.92,1.1168685
3196802227000,1.38,9.85,0.9942854
3196852276000,1.27,10.0,1.0351465
3196902203000,1.5,9.89,1.0351465
3196952251000,1.95,9.81,1.0760075
3197002209000,2.11,9.72,1.0760075
3197052258000,1.95,9.81,1.2666923
3197102215000,2.03,9.72,1.3756552
3197152233000,2.15,9.72,1.2666923
3197202221000,1.92,9.85,1.3075534
3197252270000,1.8,9.81,1.2666923
3197302227000,1.73,9.85,1.2258313
3197352276000,1.73,9.81,1.0351465
3197402233000,1.61,9.92,0.95342433
3197452251000,1.69,9.85,0.88532263
3197502209000,1.54,9.96,0.88532263
3197552288000,1.69,9.85,1.0760075
3197602215000,1.76,9.81,0.95342433
3197652233000,1.8,9.89,1.0760075
3197702221000,1.95,9.77,1.0760075
3197752270000,1.8,9.85,1.0351465
3197802227000,1.76,9.92,0.95342433
3197852306000,1.65,10.0,1.0351465
3197902203000,1.8,9.89,1.1849703
3197952251000,2.07,9.81,1.1849703
3198002239000,2.11,9.72,1.2258313
3198052258000,1.92,9.89,1.1168685
3198102245000,1.73,9.85,1.1849703
3198152203000,1.76,9.85,1.1168685
3198202251000,1.73,9.81,1.1849703
3198252209000,1.84,9.81,1.1168685
3198302288000,1.8,9.77,1.0351465
3198352215000,1.73,9.85,1.0760075
3198402233000,1.69,9.89,1.1168685
3198452221000,1.65,9.85,1.1441092
3198502209000,1.69,9.85,1.1441092
3198552227000,1.61,9.89,1.1168685
3198602306000,1.76,9.89,1.0760075
3198652233000,1.76,9.92,1.0351465
3198702343000,1.73,9.89,1.0760075
3198752239000,1.76,9.85,0.9942854
3198802258000,1.69,9.89,0.92618364
3198852215000,1.73,9.89,1.0760075
3198902233000,1.69,9.92,0.9942854
3198952251000,1.76,9.89,0.9942854
3199002270000,1.73,9.85,0.88532263
3199052258000,1.69,9.85,0.84446156
3199102245000,1.65,9.92,0.7627395
3199152233000,1.54,10.0,0.8036005
3199202251000,1.73,9.85,0.7627395
3199252178000,1.73,9.92,0.7627395
3199302258000,1.69,9.92,0.84446156
3199352215000,1.76,9.89,0.7627395
3199402264000,1.73,9.89,0.8036005
3199452251000,1.76,9.89,0.7627395
3199502239000,1.69,9.89,0.8036005
3199552227000,1.69,9.96,0.7627395
3199602245000,1.69,9.85,0.84446156
3199652233000,1.8,9.89,0.8036005
3199702251000,1.76,9.89,0.92618364
3199752209000,1.84,9.85,0.8036005
3199802258000,1.76,9.85,0.88532263
3199852245000,1.8,9.92,0.7627395
3199902264000,1.76,9.85,0.84446156
3199952221000,1.76,9.92,0.61291564
3200002239000,1.76,9.89,0.92618364
3200052227000,1.8,9.92,0.6946377
3200102245000,1.8,9.81,0.92618364
3200152233000,1.76,9.92,0.6946377
3200202282000,1.8,9.81,0.92618364
3200252270000,1.84,9.89,0.7627395
3200302258000,1.73,9.85,0.92618364
3200352276000,1.8,9.92,0.8036005
3200402294000,1.8,9.81,0.95342433
3200452312000,1.76,9.89,0.8036005
3200502239000,1.73,9.81,1.0351465
3200552258000,1.69,10.0,0.6946377
3200602245000,1.76,9.81,1.0760075
3200652233000,1.8,9.92,0.88532263
3200702282000,1.73,9.85,1.0760075
3200752209000,1.73,9.89,0.95342433
3200802258000,1.76,9.81,1.0351465
3200852245000,1.69,9.85,0.84446156
3200902203000,1.73,9.85,1.0760075
3200952251000,1.73,9.85,0.92618364
3201002636000,1.65,9.92,0.9942854
3201052288000,1.76,9.85,0.84446156
3201102245000,1.65,9.92,0.9942854
3201152233000,1.73,9.81,0.8036005
3201202251000,1.57,9.96,1.0351465
3201252239000,1.76,9.81,0.92618364
3201302288000,1.76,9.89,1.0351465
3201352276000,1.73,9.85,0.92618364
3201402203000,1.69,9.89,1.0351465
3201452312000,1.8,9.85,0.88532263
3201502209000,1.65,9.85,0.9942854
3201552319000,1.76,9.85,0.95342433
3201602245000,1.69,9.89,0.92618364
3201652233000,1.8,9.85,1.0351465
3201702282000,1.73,9.85,0.9942854
3201752239000,1.8,9.92,0.9942854
3201802258000,1.73,9.81,0.92618364
3201852276000,1.69,9.92,0.9942854
3201902233000,1.84,9.77,0.95342433
3201952221000,1.73,9.96,0.9942854
3202002239000,1.69,9.81,0.9942854
3202052227000,1.69,9.92,0.95342433
3202102245000,1.76,9.77,0.95342433
3202152203000,1.69,9.96,0.95342433
3202202312000,1.8,9.77,1.0351465
3202252209000,1.69,9.92,0.9942854
3202302288000,1.8,9.85,1.0760075
3202352245000,1.65,9.92,0.9942854
3202402264000,1.73,9.81,1.0760075
3202452251000,1.73,9.85,0.95342433
3202502209000,1.8,9.85,0.95342433
3202552227000,1.61,9.96,0.95342433
3202602306000,1.73,9.89,1.0760075
3202652203000,1.69,9.89,0.9942854
3202702251000,1.84,9.77,0.9942854
3202752239000,1.65,9.96,0.95342433
3202802258000,1.8,9.89,0.9942854
3202852245000,1.69,9.89,0.95342433
3202902233000,1.8,9.85,1.0760075
3202952251000,1.65,9.92,0.9942854
3203002239000,1.76,9.85,1.0351465
3203052258000,1.69,9.81,0.92618364
3203102276000,1.8,9.89,1.1168685
3203152264000,1.76,9.85,1.0760075
3203152264000,1.76,9.85,1.0760075
3203252270000,1.69,9.85,0.9942854
3203252270000,1.69,9.85,0.9942854
3203312298000,1.8,9.89,1.0351465
3203362316000,1.69,9.81,0.92618364
3203412304000,1.65,9.96,1.0760075
3203462231000,1.76,9.81,1.0760075
3203512280000,1.76,9.92,1.0351465
3203562267000,1.69,9.77,0.9942854
3203612286000,1.73,10.0,0.95342433
3203672344000,1.69,9.85,1.0351465
3203722271000,1.76,9.92,0.88532263
3203772350000,1.65,9.85,1.1168685
3203832287000,1.76,9.89,1.0760075
3203882244000,1.84,9.81,1.0760075
3203932262000,1.76,9.85,1.0760075
3203982220000,1.8,9.85,1.0760075
3204032269000,1.76,9.85,1.0351465
3204082256000,1.8,9.77,1.1849703
3204132275000,1.8,9.85,1.0760075
3204182232000,1.8,9.89,1.1441092
3204232250000,1.8,9.85,1.0351465
3204282208000,1.8,9.81,1.1849703
3204332287000,1.73,9.85,0.9942854
3204382214000,1.84,9.89,1.1849703
3204432262000,1.8,9.81,1.0760075
3204482220000,1.84,9.89,1.1849703
3204532299000,1.92,9.77,1.1168685
3204582226000,1.69,9.96,1.1168685
3204632275000,1.84,9.85,1.1849703
3204682201000,1.84,9.85,1.1168685
3204732250000,1.92,9.81,1.1168685
3204782269000,1.69,9.92,0.9942854
3204832256000,1.76,9.89,1.0760075
3204882336000,1.84,9.81,1.0760075
3204932476000,1.8,9.85,1.1441092
3204982372000,1.73,9.92,1.1849703
3205032269000,1.84,9.81,1.1441092
3205082317000,1.73,9.89,1.0760075
3205132244000,1.8,9.92,1.1849703
3205182293000,1.69,9.92,1.0351465
3205232281000,1.65,9.85,1.0351465
3205282269000,1.69,9.89,0.9942854
3205332256000,1.73,9.81,1.1441092
3205382305000,1.84,9.85,1.1441092
3205432232000,1.73,9.92,1.1849703
3205482311000,1.8,9.81,0.9942854
3205532299000,1.76,9.92,1.0351465
3205582287000,1.73,9.85,0.9942854
3205632214000,1.84,9.92,1.1168685
3205682323000,1.95,9.81,1.0760075
3205732220000,1.95,9.85,1.1441092
3205782238000,1.95,9.85,1.0351465
3205832256000,1.88,9.85,1.0760075
3205882275000,1.76,9.85,1.0351465
3205932232000,1.61,9.96,0.95342433
3205982311000,1.61,9.89,1.0351465
3206032208000,1.61,9.92,0.92618364
3206082317000,1.73,9.89,1.1168685
3206132244000,1.76,9.89,1.0760075
3206182293000,1.92,9.85,1.1168685
3206232281000,1.84,9.77,1.0351465
3206282269000,1.88,9.89,1.1168685
3206332287000,1.92,9.81,1.1849703
3206382244000,1.92,9.85,1.2258313
3206432262000,1.92,9.81,1.1168685
3206482250000,1.95,9.81,1.0351465
3206532299000,1.95,9.85,1.1168685
3206582317000,2.03,9.77,1.0760075
3206632244000,1.95,9.81,1.1441092
3206682293000,1.92,9.85,1.0351465
3206732220000,1.8,9.85,1.0351465
3206782269000,1.76,9.81,1.0760075
3206832256000,1.76,9.85,0.9942854
3206882336000,1.8,9.77,1.0760075
3206932232000,1.8,9.85,1.0351465
3206982311000,1.8,9.89,1.1849703
3207032208000,1.95,9.85,1.1441092
3207082287000,1.84,9.89,1.1168685
3207132214000,1.88,9.85,1.0351465
3207182262000,1.8,9.89,0.92618364
3207232189000,1.8,9.89,0.88532263
3207282269000,1.84,9.81,0.88532263
3207332226000,1.88,9.89,0.88532263
3207382275000,1.8,9.92,0.84446156
3207432201000,1.61,10.04,0.6537767
3207482281000,1.69,9.89,0.6537767
3207532208000,1.61,10.0,0.6537767
3207582287000,1.54,9.96,0.61291564
3207632275000,1.54,10.04,0.6946377
3207682262000,1.69,9.85,0.7218784
3207732250000,1.73,9.89,0.61291564
3207782269000,1.76,9.85,0.9942854
3207832256000,1.95,9.92,0.84446156
3207882305000,1.92,9.92,0.92618364
3207932232000,1.84,9.85,0.53119355
3207982311000,1.84,9.81,0.7627395
3208032238000,1.95,9.89,0.53119355
3208082287000,1.84,9.89,0.92618364
3208132244000,1.69,9.89,0.6946377
3208182262000,1.76,9.89,0.92618364
3208232250000,1.65,10.0,0.6946377
3208282269000,1.65,9.81,0.8036005
3208332256000,1.61,10.0,0.6946377
3208382275000,1.69,9.85,0.88532263
3208432232000,1.84,9.89,0.92618364
3208482281000,2.07,9.81,1.3075534
3208532208000,1.88,9.89,1.0351465
3208582287000,1.92,9.85,0.92618364
3208632214000,1.61,10.08,0.7218784
3208682262000,1.5,9.89,0.7627395
3208732220000,1.38,10.04,0.6946377
3208782269000,1.57,9.85,0.92618364
3208832226000,1.57,9.92,0.88532263
3208882275000,1.73,9.89,1.1168685
3208932232000,1.61,9.89,0.9942854
3208982311000,1.8,9.89,1.1168685
3209032238000,1.69,9.85,0.9942854
3209082287000,1.65,9.92,1.0760075
3209132214000,1.73,9.85,1.1441092
3209182262000,1.69,9.89,0.9942854
3209232281000,1.65,9.89,1.1168685
3209282269000,1.69,9.85,1.1168685
3209332256000,1.73,9.89,1.0760075
3209382275000,1.69,9.81,1.1168685
3209432201000,1.69,9.89,1.1168685
3209482250000,1.69,9.85,1.1168685
3209532238000,1.57,9.92,1.0351465
3209582287000,1.65,9.89,1.1168685
3209632214000,1.69,9.89,1.1168685
3209682262000,1.69,9.92,1.2258313
3209732220000,1.69,9.89,1.1441092
3209782238000,1.73,9.89,1.1441092
3209832256000,1.69,9.85,1.1168685
3209832256000,1.69,9.85,1.1168685
3209942364000,1.69,9.85,1.1849703
3209992168000,1.69,9.85,1.0351465
3210042278000,1.61,9.96,1.1441092
3210092205000,1.57,9.85,1.0351465
3210142284000,1.69,9.89,1.0760075
3210192242000,1.65,9.85,1.1441092
3210242321000,1.69,9.85,1.0351465
3210292278000,1.76,9.81,1.1441092
3210342236000,1.65,9.85,0.9942854
3210392284000,1.69,9.89,1.1441092
3210442211000,1.73,9.89,1.0760075
3210492260000,1.76,9.85,1.1168685
3210542217000,1.73,9.89,0.9942854
3210592266000,1.73,9.92,1.1441092
3210642223000,1.84,9.85,1.1168685
3210692272000,1.73,9.92,1.1441092
3210742260000,1.76,9.85,1.0760075
3210792278000,1.73,9.89,1.0351465
3210842205000,1.73,9.85,1.1849703
3210892284000,1.76,9.92,1.1168685
3210942211000,1.73,9.81,1.1441092
3210992260000,1.73,9.89,1.0351465
3211042248000,1.76,9.85,1.2258313
3211092266000,1.73,9.89,1.0760075
3211142223000,1.76,9.85,1.1168685
3211192272000,1.69,9.92,0.9942854
3211242626000,1.73,9.92,1.1441092
3211292217000,1.76,9.81,1.0760075
3211342266000,1.65,9.92,1.0760075
3211392651000,1.73,9.85,1.1168685
3211442364000,1.69,9.96,0.9942854
3211492199000,1.69,9.77,1.1168685
3211542309000,1.69,9.89,1.0760075
3211592266000,1.73,9.85,1.1441092
3211642284000,1.65,9.85,0.9942854
3211692211000,1.76,9.92,1.1441092
3211742260000,1.69,9.85,1.0351465
3211792217000,1.69,9.89,1.0760075
3211842297000,1.69,9.85,1.0760075
3211892254000,1.69,9.92,1.0351465
3211942272000,1.73,9.77,1.1168685
3211992199000,1.76,9.89,1.1168685
3212042339000,1.76,9.85,1.1849703
3212092205000,1.69,9.89,1.0351465
3212142284000,1.73,9.89,1.1441092
3212192272000,1.65,9.81,1.0760075
3212242229000,1.69,9.89,1.0760075
3212292248000,1.69,9.89,1.1168685
3212342205000,1.65,9.89,1.1168685
3212392284000,1.73,9.85,1.1168685
3212442272000,1.69,9.92,1.0351465
3212492229000,1.76,9.85,1.1849703
3212542309000,1.69,9.89,1.0351465
3212592205000,1.73,9.89,1.1441092
3212642284000,1.69,9.85,1.0351465
3212692242000,1.73,9.89,1.1441092
3212742291000,1.76,9.85,1.1849703
3212792339000,1.69,9.89,1.1168685
3212842205000,1.69,9.81,1.1168685
3212892284000,1.69,9.89,1.0351465
3212942272000,1.76,9.81,1.1441092
3212992199000,1.73,9.85,0.95342433
3213042278000,1.73,9.89,1.1849703
3213092236000,1.73,9.77,1.0760075
3213142315000,1.73,9.92,1.0760075
3213192211000,1.69,9.85,1.1849703
3213242260000,1.69,9.89,1.0351465
3213292248000,1.73,9.89,1.1441092
3213342297000,1.69,9.85,1.0760075
3213392193000,1.69,9.92,1.0760075
3213442547000,1.54,9.85,1.0760075
3213492199000,1.61,9.89,1.1168685
3213542278000,1.54,9.85,1.0760075
3213592205000,1.57,9.85,1.1168685
3213642315000,1.65,9.89,1.1849703
3213692242000,1.65,9.85,1.0760075
3213742260000,1.57,9.89,1.1168685
3213792217000,1.54,9.92,1.1441092
3213842266000,1.57,9.89,1.0351465
3213892223000,1.42,9.81,0.92618364
3213942303000,1.46,9.81,1.0351465
3213992199000,1.84,9.7,1.1849703
3214042278000,1.84,9.89,1.1168685
3214092205000,1.8,9.89,0.95342433
3214142284000,1.84,9.85,0.95342433
3214192211000,1.92,9.81,1.0760075
3214242229000,1.92,9.81,0.95342433
3214292217000,1.88,9.85,0.8036005
3214342266000,2.07,9.89,0.7627395
3214392223000,2.49,9.85,0.7627395
3214442242000,2.49,9.85,0.92618364
3214492199000,2.53,9.85,0.7218784
3214542309000,2.49,9.81,0.6537767
3214592205000,2.34,9.81,0.5720546
3214642284000,2.37,9.81,0.6537767
3214692211000,2.3,9.92,0.6537767
3214742260000,2.34,9.77,0.7627395
3214792217000,2.3,9.81,0.8036005
3214842266000,2.15,9.85,0.88532263
3214892193000,2.22,9.72,0.88532263
3214942272000,2.15,9.85,0.88532263
3214992229000,1.92,9.81,0.9942854
3215042278000,2.03,9.77,0.88532263
3215092205000,1.95,9.92,1.0351465
3215142315000,2.07,9.77,0.95342433
3215192181000,2.22,9.77,0.95342433
3215243359000,2.07,9.85,0.9942854
3215292217000,2.03,9.81,0.9942854
3215342419000,1.84,9.81,0.9942854
3215392254000,1.54,9.89,0.88532263
3215442272000,1.46,10.0,0.92618364
3215492199000,1.5,9.96,0.8036005
3215542278000,1.57,9.96,1.0351465
3215592236000,1.57,9.92,1.0760075
3215642315000,1.69,9.85,1.2258313
3215692211000,1.61,9.77,1.4573772
3215742229000,1.65,9.66,1.6889231
3215792217000,1.95,9.66,2.0294318
3215842266000,2.11,9.7,2.1111538
3215892223000,1.88,9.81,1.879608
3215942272000,1.73,9.89,1.920469
3215992199000,1.46,9.81,1.920469
3216042278000,1.38,9.7,1.9885708
3216092205000,1.12,9.53,2.1111538
3216142284000,0.76,9.43,2.3018389
3216192211000,0.42,9.85,2.5333846
3216242321000,0.19,10.12,2.6423476
3216292248000,0.11,10.15,2.6423476
3216342266000,0.34,9.7,2.4925237
3216392376000,0.11,9.47,2.5606253
3216442272000,0.38,9.77,2.7240696
3216492291000,0.42,10.12,2.7649305
3216542278000,0.8,9.92,2.9556155
3216592236000,1.5,9.51,3.0237172
3216642284000,1.46,9.43,2.8738933
3216692242000,1.23,9.53,2.8330324
3216742260000,1.31,9.62,2.9556155
3216792217000,1.5,9.43,3.1054392
3216842266000,1.46,9.43,2.8738933
3216892223000,1.38,9.53,2.9556155
3216942272000,1.57,9.53,3.1463003
3216992199000,1.54,9.58,3.0645783
3217042309000,1.65,9.43,3.255263
3217092205000,1.33,9.58,3.1463003
3217142284000,1.23,9.38,3.173541
3217192211000,1.23,9.7,3.2961242
3217242229000,1.14,9.34,3.3778462
3217292217000,1.27,9.7,3.405087
3217342236000,0.95,9.7,3.0237172
3217392223000,0.69,9.58,2.8330324
3217442272000,0.89,9.47,2.8330324
3217492229000,1.18,9.66,3.1054392
3217542309000,0.95,9.58,2.982856
3217592205000,0.8,9.47,2.9556155
3217642284000,0.95,9.72,3.336985
3217692211000,0.89,9.53,3.214402
3217742291000,0.95,9.58,3.214402
3217792187000,1.04,9.58,3.214402
3217842358000,1.38,9.47,3.405087
3217892254000,1.76,9.15,3.445948
3217942333000,2.37,9.53,3.718355
3217992229000,1.69,10.08,3.214402
3218042278000,0.65,9.15,2.7649305
3218092266000,0.42,9.51,2.4516625
3218142284000,1.04,9.62,3.1054392
3218192211000,2.26,9.3,3.759216
3218242229000,2.15,9.3,3.5276701
3218292217000,1.14,9.72,3.1054392
3218342266000,0.19,9.7,2.9147544
3218392223000,0.11,9.85,2.7649305
3218442272000,0.34,9.77,2.8330324
3218492199000,0.95,9.7,3.173541
3218542278000,2.07,9.23,3.5276701
3218592236000,1.54,9.38,3.1054392
3218642315000,0.31,9.58,3.1054392
3218692211000,0.31,9.7,4.0588636
3218742260000,4.14,8.73,5.243834
3218792217000,2.64,8.05,4.2086873
3218842266000,0.76,9.58,2.982856
3218892223000,0.23,9.85,3.3778462
3218942272000,1.5,9.47,3.173541
3218992199000,1.18,9.47,3.0645783
3219042278000,0.8,9.7,2.9147544
3219092205000,0.42,9.7,2.6014864
3219142284000,0.27,10.19,2.8330324
3219192242000,1.04,9.0,3.336985
3219242229000,1.8,9.51,3.7864566
3219292278000,1.8,9.62,3.8273177
3219342236000,1.42,9.0,3.173541
3219392284000,1.46,9.58,3.3778462
3219442211000,1.04,9.81,2.982856
3219492260000,0.93,9.47,2.8738933
3219542217000,1.12,9.81,2.9147544
3219592266000,1.46,9.58,2.9147544
3219642223000,1.38,9.62,2.5333846
3219692272000,1.08,9.85,2.3018389
3219742229000,1.54,9.51,2.6832085
3219792278000,1.84,9.58,2.6014864
3219842266000,1.88,9.53,2.7240696
3219892284000,1.84,9.28,3.1463003
3219942242000,1.92,9.53,3.1054392
3219992260000,1.84,9.51,2.7921712
3220042217000,1.8,9.66,2.8738933
3220092266000,2.07,9.51,2.6423476
3220142223000,1.99,9.7,2.4108016
3220192272000,1.42,9.7,1.9885708
