timestamp,accX,accY,accZ,class
36410.0,2092,2539,2015,0
36411.0,2088,2539,2015,0
36412.0,2093,2542,2024,0
36413.0,2091,2541,2015,0
36414.0,2093,2539,2012,0
36415.0,2097,2538,2013,0
36416.0,2096,2542,2014,0
36417.0,2102,2540,2017,0
36418.0,2094,2538,2017,0
36419.0,2091,2538,2017,0
36420.0,2094,2540,2018,0
36421.0,2097,2537,2015,0
36422.0,2100,2535,2022,0
36423.0,2099,2539,2018,0
36424.0,2102,2539,2022,0
36425.0,2101,2538,2015,0
36426.0,2099,2543,2019,0
36427.0,2102,2539,2016,0
36428.0,2096,2545,2023,0
36429.0,2100,2539,2019,0
36430.0,2096,2543,2016,0
36431.0,2095,2539,2019,0
36432.0,2092,2539,2021,0
36433.0,2103,2543,2017,0
36434.0,2101,2542,2022,0
36435.0,2093,2537,2017,0
36436.0,2104,2539,2023,0
36437.0,2096,2538,2015,0
36438.0,2096,2543,2018,0
36439.0,2095,2535,2015,0
36440.0,2100,2539,2021,0
36441.0,2094,2537,2019,0
36442.0,2098,2546,2016,0
36443.0,2093,2541,2017,0
36444.0,2096,2541,2021,0
36445.0,2102,2540,2022,0
36446.0,2096,2536,2017,0
36447.0,2100,2539,2021,0
36448.0,2105,2539,2017,0
36449.0,2097,2538,2020,0
36450.0,2098,2538,2015,0
36451.0,2099,2537,2025,0
36452.0,2098,2539,2020,0
36453.0,2098,2536,2021,0
36454.0,2096,2538,2015,0
36455.0,2100,2535,2016,0
36456.0,2098,2539,2019,0
36457.0,2096,2539,2022,0
36458.0,2090,2536,2022,0
36459.0,2092,2541,2018,0
36460.0,2096,2542,2015,0
36461.0,2095,2538,2021,0
36462.0,2094,2542,2015,0
36463.0,2092,2543,2015,0
36464.0,2093,2538,2017,0
36465.0,2092,2539,2018,0
36466.0,2095,2539,2019,0
36467.0,2098,2541,2021,0
36468.0,2100,2541,2018,0
36469.0,2101,2536,2014,0
36470.0,2097,2539,2017,0
36471.0,2093,2542,2018,0
36472.0,2095,2545,2019,0
36473.0,2097,2545,2016,0
36474.0,2093,2532,2017,0
36475.0,2093,2539,2020,0
36476.0,2096,2543,2020,0
36477.0,2097,2543,2019,0
36478.0,2097,2541,2021,0
36479.0,2093,2537,2021,0
36480.0,2093,2541,2014,0
36481.0,2098,2537,2013,0
36482.0,2098,2539,2018,0
36483.0,2097,2537,2022,0
36484.0,2096,2540,2015,0
36485.0,2096,2541,2020,0
36486.0,2099,2538,2016,0
36487.0,2097,2535,2017,0
36488.0,2095,2537,2023,0
36489.0,2097,2539,2019,0
36490.0,2099,2536,2012,0
36491.0,2090,2534,2018,0
36492.0,2100,2539,2020,0
36493.0,2095,2539,2020,0
36494.0,2091,2539,2013,0
36495.0,2095,2539,2016,0
36496.0,2094,2539,2017,0
36497.0,2097,2539,2015,0
36498.0,2093,2541,2016,0
36499.0,2094,2539,2015,0
36500.0,2095,2538,2018,0
36501.0,2094,2540,2020,0
36502.0,2096,2532,2021,0
36503.0,2095,2537,2020,0
36504.0,2096,2541,2015,0
36505.0,2101,2543,2017,0
36506.0,2098,2537,2015,0
36507.0,2102,2540,2019,0
36508.0,2091,2539,2019,0
36509.0,2098,2540,2018,0
36510.0,2098,2542,2018,0
36511.0,2093,2536,2019,0
36512.0,2098,2538,2022,0
36513.0,2094,2541,2015,0
36514.0,2097,2537,2025,0
36515.0,2091,2538,2018,0
36516.0,2091,2542,2014,0
36517.0,2094,2544,2017,0
36518.0,2097,2543,2019,0
36519.0,2106,2537,2016,0
36520.0,2095,2539,2011,0
36521.0,2089,2541,2021,0
36522.0,2094,2537,2016,0
36523.0,2095,2537,2017,0
36524.0,2089,2541,2023,0
36525.0,2093,2539,2013,0
36526.0,2095,2540,2012,0
36527.0,2093,2537,2021,0
36528.0,2099,2539,2017,0
36529.0,2091,2545,2013,0
36530.0,2093,2539,2019,0
36531.0,2098,2539,2017,0
36532.0,2097,2536,2011,0
36533.0,2091,2538,2013,0
36534.0,2095,2541,2016,0
36535.0,2096,2538,2013,0
36536.0,2093,2544,2016,0
36537.0,2093,2537,2013,0
36538.0,2102,2538,2014,0
36539.0,2099,2542,2024,0
36540.0,2101,2541,2015,0
36541.0,2095,2543,2024,0
36542.0,2095,2539,2021,0
36543.0,2093,2535,2017,0
36544.0,2094,2539,2020,0
36545.0,2089,2540,2015,0
36546.0,2092,2540,2019,0
36547.0,2096,2536,2016,0
36548.0,2092,2539,2014,0
36549.0,2091,2535,2015,0
36550.0,2086,2541,2014,0
36551.0,2087,2542,2016,0
36552.0,2098,2538,2018,0
36553.0,2092,2542,2022,0
36554.0,2103,2538,2020,0
36555.0,2095,2537,2022,0
36556.0,2092,2544,2018,0
36557.0,2093,2539,2018,0
36558.0,2099,2541,2020,0
36559.0,2092,2539,2020,0
36560.0,2097,2537,2018,0
36561.0,2089,2536,2016,0
36562.0,2097,2540,2014,0
36563.0,2089,2538,2017,0
36564.0,2093,2539,2020,0
36565.0,2091,2538,2022,0
36566.0,2097,2535,2015,0
36567.0,2093,2536,2018,0
36568.0,2091,2537,2012,0
36569.0,2093,2540,2015,0
36570.0,2098,2537,2022,0
36571.0,2093,2541,2015,0
36572.0,2097,2539,2020,0
36573.0,2095,2535,2019,0
36574.0,2097,2543,2021,0
36575.0,2100,2542,2016,0
36576.0,2100,2539,2018,0
36577.0,2097,2535,2017,0
36578.0,2100,2538,2017,0
36579.0,2096,2541,2014,0
36580.0,2092,2541,2019,0
36581.0,2096,2539,2019,0
36582.0,2094,2541,2012,0
36583.0,2093,2541,2016,0
36584.0,2097,2541,2019,0
36585.0,2093,2539,2017,0
36586.0,2096,2543,2018,0
36587.0,2095,2534,2017,0
36588.0,2099,2537,2021,0
36589.0,2089,2543,2023,0
36590.0,2097,2545,2016,0
36591.0,2101,2539,2014,0
36592.0,2100,2538,2021,0
36593.0,2103,2539,2020,0
36594.0,2097,2542,2018,0
36595.0,2095,2540,2012,0
36596.0,2093,2537,2019,0
36597.0,2096,2535,2014,0
36598.0,2099,2535,2017,0
36599.0,2100,2535,2012,0
36600.0,2095,2539,2017,0
36601.0,2097,2533,2020,0
36602.0,2093,2538,2015,0
36603.0,2092,2544,2019,0
36604.0,2098,2538,2015,0
36605.0,2101,2539,2020,0
36606.0,2100,2538,2020,0
36607.0,2095,2537,2018,0
36608.0,2097,2540,2007,0
36609.0,2094,2535,2013,0
36610.0,2099,2540,2014,0
36611.0,2092,2542,2012,0
36612.0,2103,2538,2016,0
36613.0,2100,2540,2017,0
36614.0,2097,2541,2016,0
36615.0,2099,2536,2013,0
36616.0,2093,2544,2020,0
36617.0,2096,2539,2020,0
36618.0,2100,2536,2017,0
36619.0,2098,2534,2015,0
36620.0,2094,2545,2015,0
36621.0,2095,2542,2018,0
36622.0,2094,2542,2013,0
36623.0,2093,2536,2017,0
36624.0,2098,2539,2013,0
36625.0,2101,2545,2017,0
36626.0,2094,2543,2016,0
36627.0,2099,2535,2018,0
36628.0,2101,2542,2018,0
36629.0,2103,2534,2018,0
36630.0,2096,2535,2016,0
36631.0,2096,2537,2015,0
36632.0,2094,2539,2012,0
36633.0,2099,2546,2016,0
36634.0,2093,2546,2019,0
36635.0,2097,2544,2015,0
36636.0,2094,2540,2014,0
36637.0,2093,2541,2013,0
36638.0,2099,2539,2018,0
36639.0,2098,2538,2016,0
36640.0,2094,2543,2016,0
36641.0,2099,2543,2014,0
36642.0,2097,2541,2017,0
36643.0,2100,2537,2020,0
36644.0,2101,2539,2017,0
36645.0,2098,2540,2019,0
36646.0,2101,2539,2019,0
36647.0,2096,2539,2017,0
36648.0,2095,2539,2014,0
36649.0,2096,2541,2011,0
36650.0,2100,2540,2019,0
36651.0,2094,2538,2016,0
36652.0,2095,2541,2013,0
36653.0,2096,2541,2015,0
36654.0,2095,2539,2018,0
36655.0,2100,2535,2017,0
36656.0,2100,2538,2015,0
36657.0,2093,2537,2017,0
36658.0,2097,2538,2015,0
36659.0,2096,2538,2020,0
36660.0,2101,2540,2020,0
36661.0,2099,2541,2021,0
36662.0,2102,2538,2018,0
36663.0,2095,2542,2012,0
36664.0,2099,2536,2012,0
36665.0,2101,2537,2021,0
36666.0,2094,2542,2015,0
36667.0,2102,2538,2017,0
36668.0,2097,2542,2019,0
36669.0,2095,2541,2017,0
36670.0,2093,2544,2017,0
36671.0,2097,2533,2013,0
36672.0,2096,2540,2015,0
36673.0,2092,2533,2021,0
36674.0,2100,2537,2016,0
36675.0,2100,2539,2014,0
36676.0,2093,2537,2023,0
36677.0,2095,2539,2013,0
36678.0,2101,2539,2019,0
36679.0,2103,2539,2017,0
36680.0,2096,2535,2019,0
36681.0,2097,2542,2009,0
36682.0,2101,2538,2017,0
36683.0,2095,2537,2017,0
36684.0,2102,2539,2020,0
36685.0,2094,2542,2014,0
36686.0,2097,2538,2017,0
36687.0,2103,2544,2017,0
36688.0,2101,2542,2018,0
36689.0,2105,2538,2021,0
36690.0,2096,2537,2020,0
36691.0,2093,2542,2015,0
36692.0,2096,2537,2013,0
36693.0,2096,2542,2019,0
36694.0,2104,2536,2013,0
36695.0,2105,2536,2015,0
36696.0,2100,2541,2015,0
36697.0,2097,2542,2013,0
36698.0,2099,2538,2017,0
36699.0,2100,2541,2017,0
36700.0,2103,2538,2016,0
36701.0,2098,2539,2020,0
36702.0,2097,2540,2016,0
36703.0,2103,2541,2017,0
36704.0,2093,2544,2015,0
36705.0,2097,2540,2019,0
36706.0,2098,2541,2015,0
36707.0,2097,2537,2013,0
36708.0,2094,2539,2019,0
36709.0,2099,2536,2017,0
36710.0,2097,2538,2015,0
36711.0,2093,2541,2018,0
36712.0,2101,2539,2018,0
36713.0,2103,2538,2017,0
36714.0,2101,2536,2016,0
36715.0,2097,2533,2019,0
36716.0,2100,2537,2019,0
36717.0,2101,2538,2017,0
36718.0,2099,2537,2026,0
36719.0,2098,2539,2020,0
36720.0,2098,2526,2015,0
36721.0,2097,2526,2015,0
36722.0,2097,2529,2015,0
36723.0,2098,2531,2013,0
36724.0,2099,2533,2014,0
36725.0,2099,2535,2015,0
36726.0,2098,2537,2016,0
36727.0,2102,2536,2015,0
36728.0,2093,2537,2019,0
36729.0,2093,2533,2017,0
36730.0,2097,2538,2023,0
36731.0,2094,2536,2015,0
36732.0,2093,2543,2020,0
36733.0,2097,2536,2014,0
36734.0,2092,2539,2021,0
36735.0,2099,2543,2016,0
36736.0,2101,2540,2010,0
36737.0,2099,2542,2015,0
36738.0,2100,2535,2017,0
36739.0,2100,2538,2016,0
36740.0,2100,2539,2014,0
36741.0,2095,2540,2018,0
36742.0,2096,2539,2015,0
36743.0,2096,2535,2015,0
36744.0,2097,2539,2016,0
36745.0,2097,2540,2022,0
36746.0,2102,2541,2018,0
36747.0,2102,2547,2017,0
36748.0,2098,2540,2022,0
36749.0,2100,2537,2018,0
36750.0,2103,2542,2015,0
36751.0,2098,2541,2014,0
36752.0,2097,2541,2022,0
36753.0,2101,2538,2018,0
36754.0,2096,2547,2015,0
36755.0,2099,2542,2015,0
36756.0,2098,2543,2019,0
36757.0,2099,2542,2020,0
36758.0,2096,2540,2019,0
36759.0,2098,2537,2017,0
36760.0,2095,2538,2023,0
36761.0,2093,2539,2014,0
36762.0,2097,2538,2008,0
36763.0,2096,2532,2013,0
36764.0,2097,2537,2015,0
36765.0,2102,2533,2016,0
36766.0,2101,2535,2022,0
36767.0,2097,2541,2014,0
36768.0,2103,2534,2017,0
36769.0,2110,2537,2008,0
36770.0,2098,2541,2022,0
36771.0,2094,2538,2015,0
36772.0,2099,2536,2021,0
36773.0,2091,2539,2018,0
36774.0,2093,2536,2031,0
36775.0,2095,2541,2019,0
36776.0,2104,2539,2018,0
36777.0,2102,2533,2017,0
36778.0,2104,2539,2024,0
36779.0,2096,2535,2019,0
36780.0,2098,2537,2023,0
36781.0,2099,2537,2019,0
36782.0,2092,2539,2019,0
36783.0,2099,2540,2015,0
36784.0,2094,2537,2017,0
36785.0,2098,2535,2019,0
36786.0,2098,2537,2015,0
36787.0,2100,2539,2014,0
36788.0,2096,2541,2017,0
36789.0,2096,2541,2013,0
36790.0,2093,2542,2017,0
36791.0,2094,2540,2016,0
36792.0,2096,2543,2016,0
36793.0,2094,2538,2021,0
36794.0,2105,2535,2019,0
36795.0,2101,2539,2021,0
36796.0,2106,2533,2020,0
36797.0,2102,2541,2019,0
36798.0,2098,2538,2017,0
36799.0,2097,2536,2016,0
36800.0,2099,2540,2020,0
36801.0,2096,2537,2015,0
36802.0,2096,2547,2017,0
36803.0,2100,2544,2018,0
36804.0,2095,2538,2022,0
36805.0,2097,2538,2016,0
36806.0,2100,2539,2015,0
36807.0,2103,2540,2018,0
36808.0,2095,2539,2015,0
36809.0,2103,2539,2019,0
36810.0,2102,2541,2019,0
36811.0,2100,2536,2021,0
36812.0,2100,2543,2021,0
36813.0,2100,2538,2014,0
36814.0,2097,2545,2018,0
36815.0,2097,2536,2018,0
36816.0,2094,2538,2015,0
36817.0,2093,2538,2017,0
36818.0,2098,2534,2019,0
36819.0,2108,2537,2021,0
36820.0,2100,2541,2016,0
36821.0,2095,2537,2011,0
36822.0,2100,2544,2019,0
36823.0,2096,2539,2019,0
36824.0,2093,2542,2018,0
36825.0,2101,2541,2015,0
36826.0,2103,2538,2017,0
36827.0,2094,2539,2021,0
36828.0,2100,2542,2021,0
36829.0,2097,2540,2014,0
36830.0,2099,2543,2016,0
36831.0,2100,2536,2026,0
36832.0,2099,2542,2020,0
36833.0,2101,2539,2017,0
36834.0,2099,2538,2015,0
36835.0,2097,2541,2015,0
36836.0,2097,2536,2017,0
36837.0,2097,2536,2018,0
36838.0,2099,2540,2015,0
36839.0,2100,2538,2022,0
36840.0,2100,2544,2017,0
36841.0,2100,2543,2024,0
36842.0,2096,2542,2017,0
36843.0,2097,2541,2016,0
36844.0,2097,2541,2013,0
36845.0,2101,2538,2018,0
36846.0,2097,2542,2018,0
36847.0,2094,2541,2014,0
36848.0,2104,2538,2013,0
36849.0,2095,2547,2019,0
36850.0,2098,2536,2021,0
36851.0,2100,2540,2020,0
36852.0,2095,2539,2021,0
36853.0,2100,2544,2014,0
36854.0,2098,2539,2015,0
36855.0,2101,2537,2020,0
36856.0,2095,2540,2020,0
36857.0,2098,2542,2020,0
36858.0,2095,2542,2017,0
36859.0,2097,2542,2018,0
36860.0,2104,2534,2011,0
36861.0,2097,2538,2016,0
36862.0,2093,2541,2015,0
36863.0,2099,2539,2012,0
36864.0,2101,2541,2015,0
36865.0,2100,2542,2020,0
36866.0,2099,2540,2020,0
36867.0,2097,2539,2020,0
36868.0,2095,2542,2013,0
36869.0,2101,2537,2020,0
36870.0,2091,2540,2022,0
36871.0,2100,2536,2019,0
36872.0,2103,2533,2014,0
36873.0,2097,2538,2019,0
36874.0,2099,2541,2021,0
36875.0,2099,2538,2021,0
36876.0,2103,2538,2019,0
36877.0,2099,2540,2017,0
36878.0,2099,2539,2018,0
36879.0,2100,2537,2021,0
36880.0,2096,2546,2017,0
36881.0,2096,2535,2015,0
36882.0,2101,2539,2019,0
36883.0,2095,2539,2019,0
36884.0,2098,2540,2018,0
36885.0,2100,2532,2019,0
36886.0,2101,2536,2017,0
36887.0,2099,2542,2014,0
36888.0,2096,2543,2018,0
36889.0,2097,2542,2017,0
36890.0,2087,2536,2021,0
36891.0,2090,2536,2019,0
36892.0,2090,2536,2017,0
36893.0,2093,2537,2017,0
36894.0,2099,2535,2022,0
36895.0,2093,2539,2015,0
36896.0,2100,2539,2019,0
36897.0,2097,2543,2021,0
36898.0,2096,2543,2013,0
36899.0,2095,2537,2019,0
36900.0,2103,2539,2020,0
36901.0,2098,2540,2015,0
36902.0,2100,2538,2017,0
36903.0,2096,2539,2022,0
36904.0,2099,2542,2020,0
36905.0,2098,2541,2011,0
36906.0,2100,2535,2018,0
36907.0,2100,2538,2020,0
36908.0,2099,2538,2009,0
36909.0,2102,2537,2015,0
36910.0,2102,2540,2013,0
36911.0,2090,2535,2016,0
36912.0,2095,2540,2018,0
36913.0,2099,2539,2017,0
36914.0,2092,2538,2019,0
36915.0,2097,2539,2019,0
36916.0,2095,2539,2014,0
36917.0,2093,2541,2019,0
36918.0,2091,2539,2020,0
36919.0,2095,2538,2023,0
36920.0,2093,2541,2019,0
36921.0,2095,2541,2013,0
36922.0,2092,2540,2014,0
36923.0,2097,2543,2020,0
36924.0,2095,2540,2015,0
36925.0,2098,2536,2022,0
36926.0,2103,2544,2022,0
36927.0,2103,2539,2016,0
36928.0,2092,2541,2013,0
36929.0,2098,2539,2020,0
36930.0,2099,2540,2017,0
36931.0,2097,2536,2014,0
36932.0,2097,2537,2013,0
36933.0,2097,2536,2015,0
36934.0,2094,2540,2022,0
36935.0,2097,2531,2016,0
36936.0,2098,2543,2013,0
36937.0,2095,2541,2019,0
36938.0,2097,2538,2016,0
36939.0,2097,2544,2014,0
36940.0,2099,2539,2014,0
36941.0,2097,2539,2017,0
36942.0,2100,2538,2018,0
36943.0,2098,2541,2018,0
36944.0,2098,2544,2022,0
36945.0,2090,2542,2016,0
36946.0,2097,2536,2023,0
36947.0,2105,2537,2015,0
36948.0,2096,2541,2017,0
36949.0,2092,2535,2021,0
36950.0,2097,2545,2021,0
36951.0,2094,2539,2013,0
36952.0,2098,2535,2011,0
36953.0,2099,2539,2011,0
36954.0,2100,2536,2015,0
36955.0,2093,2535,2021,0
36956.0,2098,2539,2019,0
36957.0,2095,2538,2011,0
36958.0,2095,2540,2019,0
36959.0,2103,2537,2014,0
36960.0,2098,2535,2015,0
36961.0,2095,2541,2014,0
36962.0,2095,2539,2017,0
36963.0,2095,2536,2018,0
36964.0,2097,2535,2018,0
36965.0,2097,2539,2015,0
36966.0,2093,2538,2011,0
36967.0,2099,2536,2020,0
36968.0,2099,2540,2015,0
36969.0,2097,2541,2016,0
36970.0,2102,2538,2021,0
36971.0,2097,2541,2018,0
36972.0,2098,2541,2015,0
36973.0,2101,2537,2020,0
36974.0,2099,2540,2013,0
36975.0,2098,2542,2015,0
36976.0,2102,2540,2015,0
36977.0,2095,2542,2020,0
36978.0,2096,2539,2021,0
36979.0,2095,2536,2018,0
36980.0,2102,2541,2011,0
36981.0,2098,2539,2015,0
36982.0,2096,2539,2014,0
36983.0,2097,2542,2013,0
36984.0,2096,2542,2019,0
36985.0,2093,2539,2014,0
36986.0,2097,2542,2016,0
36987.0,2096,2538,2014,0
36988.0,2098,2536,2020,0
36989.0,2098,2535,2013,0
36990.0,2099,2538,2019,0
36991.0,2095,2537,2015,0
36992.0,2098,2542,2016,0
36993.0,2097,2542,2021,0
36994.0,2095,2539,2022,0
36995.0,2102,2540,2021,0
36996.0,2094,2541,2017,0
36997.0,2095,2542,2014,0
36998.0,2098,2538,2017,0
36999.0,2098,2539,2014,0
37000.0,2099,2538,2013,0
37001.0,2101,2540,2013,0
37002.0,2097,2534,2014,0
37003.0,2100,2540,2018,0
37004.0,2102,2535,2020,0
37005.0,2092,2540,2017,0
37006.0,2100,2538,2017,0
37007.0,2098,2538,2014,0
37008.0,2095,2533,2019,0
37009.0,2102,2536,2011,0
37010.0,2096,2535,2018,0
37011.0,2100,2543,2019,0
37012.0,2100,2543,2018,0
37013.0,2095,2539,2016,0
37014.0,2098,2544,2012,0
37015.0,2091,2542,2013,0
37016.0,2096,2540,2019,0
37017.0,2097,2541,2021,0
37018.0,2096,2537,2018,0
37019.0,2098,2539,2017,0
37020.0,2095,2539,2011,0
37021.0,2100,2539,2014,0
37022.0,2099,2533,2011,0
37023.0,2096,2536,2020,0
37024.0,2096,2541,2017,0
37025.0,2093,2543,2016,0
37026.0,2100,2539,2018,0
37027.0,2098,2538,2012,0
37028.0,2098,2539,2015,0
37029.0,2095,2537,2018,0
37030.0,2098,2536,2018,0
37031.0,2102,2540,2018,0
37032.0,2100,2536,2015,0
37033.0,2100,2541,2017,0
37034.0,2096,2539,2013,0
37035.0,2099,2538,2017,0
37036.0,2092,2539,2013,0
37037.0,2096,2537,2019,0
37038.0,2096,2537,2019,0
37039.0,2097,2533,2021,0
37040.0,2102,2541,2014,0
37041.0,2096,2543,2018,0
37042.0,2096,2536,2017,0
37043.0,2097,2538,2016,0
37044.0,2097,2538,2019,0
37045.0,2099,2542,2017,0
37046.0,2097,2539,2019,0
37047.0,2097,2538,2014,0
37048.0,2098,2543,2020,0
37049.0,2098,2540,2017,0
37050.0,2092,2540,2014,0
37051.0,2095,2539,2014,0
37052.0,2094,2545,2017,0
37053.0,2094,2541,2019,0
37054.0,2098,2535,2018,0
37055.0,2095,2538,2015,0
37056.0,2099,2539,2019,0
37057.0,2098,2538,2014,0
37058.0,2095,2538,2014,0
37059.0,2104,2538,2018,0
37060.0,2101,2532,2020,0
37061.0,2101,2533,2020,0
37062.0,2098,2543,2014,0
37063.0,2100,2541,2020,0
37064.0,2096,2537,2015,0
37065.0,2103,2540,2015,0
37066.0,2095,2539,2018,0
37067.0,2096,2541,2019,0
37068.0,2099,2539,2021,0
37069.0,2101,2543,2015,0
37070.0,2101,2537,2013,0
37071.0,2096,2541,2014,0
37072.0,2094,2535,2016,0
37073.0,2100,2539,2016,0
37074.0,2100,2543,2018,0
37075.0,2097,2538,2013,0
37076.0,2102,2538,2023,0
37077.0,2099,2536,2016,0
37078.0,2102,2538,2016,0
37079.0,2097,2534,2015,0
37080.0,2099,2537,2016,0
37081.0,2096,2537,2014,0
37082.0,2102,2545,2018,0
37083.0,2092,2540,2015,0
37084.0,2099,2538,2018,0
37085.0,2098,2539,2019,0
37086.0,2098,2535,2015,0
37087.0,2101,2539,2015,0
37088.0,2094,2539,2017,0
37089.0,2096,2538,2013,0
37090.0,2096,2536,2022,0
37091.0,2097,2544,2013,0
37092.0,2098,2538,2012,0
37093.0,2098,2543,2013,0
37094.0,2098,2537,2017,0
37095.0,2099,2540,2013,0
37096.0,2100,2543,2015,0
37097.0,2097,2539,2014,0
37098.0,2093,2538,2017,0
37099.0,2100,2535,2015,0
37100.0,2102,2537,2016,0
37101.0,2097,2535,2014,0
37102.0,2092,2538,2021,0
37103.0,2101,2543,2015,0
37104.0,2097,2540,2014,0
37105.0,2097,2539,2019,0
37106.0,2095,2539,2016,0
37107.0,2099,2544,2012,0
37108.0,2095,2539,2021,0
37109.0,2097,2539,2019,0
37110.0,2099,2543,2013,0
37111.0,2100,2539,2016,0
37112.0,2096,2541,2022,0
37113.0,2097,2539,2017,0
37114.0,2097,2540,2014,0
37115.0,2097,2541,2020,0
37116.0,2092,2542,2021,0
37117.0,2098,2540,2014,0
37118.0,2098,2537,2019,0
37119.0,2104,2539,2020,0
37120.0,2095,2538,2014,0
37121.0,2093,2542,2012,0
37122.0,2097,2535,2017,0
37123.0,2098,2539,2023,0
37124.0,2098,2536,2013,0
37125.0,2099,2539,2021,0
37126.0,2096,2537,2016,0
37127.0,2097,2539,2015,0
37128.0,2097,2545,2018,0
37129.0,2094,2536,2014,0
37130.0,2095,2541,2012,0
37131.0,2099,2539,2015,0
37132.0,2094,2542,2022,0
37133.0,2098,2536,2016,0
37134.0,2100,2539,2018,0
37135.0,2096,2541,2016,0
37136.0,2095,2539,2018,0
37137.0,2097,2540,2017,0
37138.0,2096,2538,2015,0
37139.0,2098,2542,2014,0
37140.0,2101,2535,2017,0
37141.0,2101,2537,2019,0
37142.0,2101,2542,2013,0
37143.0,2095,2539,2016,0
37144.0,2096,2543,2018,0
37145.0,2095,2540,2015,0
37146.0,2094,2541,2013,0
37147.0,2098,2539,2016,0
37148.0,2097,2535,2021,0
37149.0,2095,2540,2014,0
37150.0,2096,2541,2019,0
37151.0,2098,2539,2014,0
37152.0,2103,2539,2014,0
37153.0,2099,2537,2015,0
37154.0,2092,2536,2019,0
37155.0,2097,2545,2013,0
37156.0,2098,2541,2014,0
37157.0,2097,2542,2018,0
37158.0,2097,2544,2017,0
37159.0,2093,2537,2013,0
37160.0,2098,2541,2011,0
37161.0,2098,2539,2016,0
37162.0,2100,2537,2019,0
37163.0,2098,2541,2021,0
37164.0,2100,2540,2018,0
37165.0,2102,2539,2018,0
37166.0,2100,2538,2023,0
37167.0,2100,2540,2024,0
37168.0,2097,2542,2013,0
37169.0,2100,2539,2016,0
37170.0,2093,2536,2015,0
37171.0,2099,2538,2017,0
37172.0,2094,2541,2019,0
37173.0,2095,2539,2014,0
37174.0,2097,2540,2016,0
37175.0,2100,2540,2017,0
37176.0,2098,2540,2019,0
37177.0,2096,2537,2018,0
37178.0,2102,2537,2018,0
37179.0,2099,2537,2019,0
37180.0,2098,2540,2016,0
37181.0,2105,2536,2018,0
37182.0,2100,2542,2019,0
37183.0,2097,2541,2015,0
37184.0,2093,2539,2016,0
37185.0,2096,2538,2018,0
37186.0,2095,2541,2019,0
37187.0,2096,2536,2018,0
37188.0,2102,2541,2024,0
37189.0,2100,2538,2016,0
37190.0,2098,2537,2022,0
37191.0,2101,2534,2019,0
37192.0,2097,2541,2017,0
37193.0,2092,2537,2019,0
37194.0,2095,2538,2009,0
37195.0,2094,2537,2021,0
37196.0,2093,2537,2016,0
37197.0,2095,2535,2013,0
37198.0,2096,2537,2023,0
37199.0,2099,2537,2016,0
37200.0,2101,2535,2017,0
37201.0,2103,2538,2017,0
37202.0,2097,2541,2018,0
37203.0,2099,2542,2020,0
37204.0,2099,2542,2012,0
37205.0,2101,2544,2018,0
37206.0,2091,2538,2020,0
37207.0,2099,2539,2012,0
37208.0,2099,2541,2016,0
37209.0,2101,2541,2017,0
37210.0,2101,2543,2015,0
37211.0,2096,2535,2013,0
37212.0,2098,2535,2017,0
37213.0,2096,2537,2015,0
37214.0,2102,2541,2015,0
37215.0,2102,2541,2015,0
37216.0,2100,2535,2016,0
37217.0,2094,2538,2011,0
37218.0,2100,2534,2017,0
37219.0,2104,2538,2018,0
37220.0,2102,2534,2017,0
37221.0,2099,2535,2016,0
37222.0,2091,2538,2016,0
37223.0,2098,2540,2014,0
37224.0,2102,2543,2021,0
37225.0,2091,2543,2017,0
37226.0,2095,2530,2018,0
37227.0,2096,2540,2018,0
37228.0,2101,2542,2016,0
37229.0,2101,2538,2014,0
37230.0,2098,2540,2022,0
37231.0,2098,2539,2021,0
37232.0,2099,2537,2023,0
37233.0,2099,2536,2022,0
37234.0,2097,2534,2019,0
37235.0,2092,2534,2018,0
37236.0,2090,2534,2017,0
37237.0,2099,2539,2019,0
37238.0,2096,2538,2018,0
37239.0,2097,2543,2018,0
37240.0,2092,2539,2018,0
37241.0,2101,2539,2010,0
37242.0,2100,2539,2012,0
37243.0,2095,2532,2018,0
37244.0,2098,2534,2016,0
37245.0,2095,2535,2011,0
37246.0,2099,2537,2019,0
37247.0,2098,2542,2019,0
37248.0,2100,2541,2017,0
37249.0,2099,2540,2011,0
37250.0,2100,2537,2017,0
37251.0,2099,2536,2018,0
37252.0,2099,2541,2015,0
37253.0,2097,2537,2019,0
37254.0,2102,2536,2020,0
37255.0,2101,2538,2020,0
37256.0,2097,2537,2019,0
37257.0,2099,2535,2015,0
37258.0,2099,2538,2017,0
37259.0,2095,2536,2019,0
37260.0,2097,2536,2018,0
37261.0,2098,2539,2015,0
37262.0,2101,2543,2013,0
37263.0,2099,2539,2019,0
37264.0,2097,2533,2014,0
37265.0,2099,2543,2016,0
37266.0,2103,2545,2019,0
37267.0,2103,2542,2017,0
37268.0,2096,2535,2014,0
37269.0,2095,2539,2019,0
37270.0,2099,2536,2014,0
37271.0,2100,2538,2017,0
37272.0,2098,2541,2019,0
37273.0,2102,2535,2016,0
37274.0,2096,2536,2016,0
37275.0,2099,2539,2021,0
37276.0,2094,2542,2014,0
37277.0,2097,2542,2020,0
37278.0,2100,2539,2016,0
37279.0,2103,2537,2018,0
37280.0,2100,2539,2016,0
37281.0,2101,2537,2015,0
37282.0,2101,2541,2023,0
37283.0,2102,2536,2022,0
37284.0,2100,2546,2011,0
37285.0,2097,2543,2017,0
37286.0,2107,2539,2013,0
37287.0,2094,2535,2016,0
37288.0,2100,2534,2022,0
37289.0,2101,2540,2023,0
37290.0,2100,2533,2022,0
37291.0,2095,2543,2019,0
37292.0,2098,2537,2014,0
37293.0,2097,2537,2018,0
37294.0,2097,2535,2016,0
37295.0,2099,2538,2020,0
37296.0,2095,2536,2010,0
37297.0,2096,2540,2012,0
37298.0,2100,2541,2012,0
37299.0,2096,2539,2015,0
37300.0,2101,2539,2014,0
37301.0,2097,2540,2014,0
37302.0,2098,2541,2016,0
37303.0,2099,2536,2014,0
37304.0,2098,2543,2014,0
37305.0,2102,2538,2018,0
37306.0,2097,2535,2017,0
37307.0,2102,2537,2020,0
37308.0,2097,2539,2013,0
37309.0,2097,2538,2018,0
37310.0,2105,2541,2018,0
37311.0,2093,2539,2020,0
37312.0,2103,2537,2017,0
37313.0,2100,2541,2013,0
37314.0,2100,2544,2017,0
37315.0,2096,2537,2021,0
37316.0,2095,2535,2018,0
37317.0,2096,2540,2015,0
37318.0,2099,2538,2015,0
37319.0,2093,2536,2017,0
37320.0,2102,2535,2018,0
37321.0,2099,2543,2014,0
37322.0,2100,2542,2015,0
37323.0,2097,2539,2014,0
37324.0,2093,2541,2021,0
37325.0,2098,2541,2015,0
37326.0,2097,2537,2018,0
37327.0,2098,2536,2015,0
37328.0,2095,2537,2020,0
37329.0,2099,2537,2024,0
37330.0,2095,2542,2012,0
37331.0,2101,2538,2012,0
37332.0,2096,2539,2015,0
37333.0,2100,2542,2017,0
37334.0,2101,2545,2019,0
37335.0,2097,2537,2018,0
37336.0,2099,2538,2014,0
37337.0,2095,2541,2013,0
37338.0,2097,2536,2017,0
37339.0,2095,2539,2015,0
37340.0,2100,2543,2017,0
37341.0,2096,2532,2017,0
37342.0,2092,2536,2011,0
37343.0,2099,2540,2020,0
37344.0,2097,2538,2018,0
37345.0,2099,2541,2014,0
37346.0,2098,2538,2015,0
37347.0,2097,2535,2011,0
37348.0,2102,2542,2017,0
37349.0,2094,2530,2013,0
37350.0,2096,2536,2019,0
37351.0,2096,2539,2015,0
37352.0,2099,2538,2017,0
37353.0,2104,2543,2017,0
37354.0,2098,2538,2009,0
37355.0,2097,2535,2016,0
37356.0,2102,2538,2018,0
37357.0,2102,2536,2019,0
37358.0,2102,2538,2014,0
37359.0,2093,2538,2013,0
37360.0,2095,2541,2013,0
37361.0,2091,2542,2014,0
37362.0,2100,2543,2019,0
37363.0,2095,2539,2017,0
37364.0,2099,2536,2014,0
37365.0,2102,2535,2015,0
37366.0,2103,2536,2017,0
37367.0,2096,2539,2012,0
37368.0,2101,2538,2017,0
37369.0,2097,2535,2015,0
37370.0,2102,2536,2015,0
37371.0,2102,2537,2014,0
37372.0,2095,2539,2013,0
37373.0,2095,2537,2016,0
37374.0,2094,2543,2018,0
37375.0,2101,2539,2015,0
37376.0,2098,2538,2012,0
37377.0,2100,2541,2011,0
37378.0,2099,2542,2015,0
37379.0,2099,2539,2018,0
37380.0,2099,2537,2013,0
37381.0,2100,2533,2016,0
37382.0,2096,2538,2013,0
37383.0,2098,2543,2013,0
37384.0,2093,2542,2018,0
37385.0,2100,2540,2015,0
37386.0,2102,2542,2018,0
37387.0,2100,2541,2019,0
37388.0,2099,2538,2014,0
37389.0,2096,2538,2014,0
37390.0,2093,2539,2015,0
37391.0,2094,2537,2014,0
37392.0,2099,2541,2011,0
37393.0,2101,2546,2015,0
37394.0,2100,2539,2013,0
37395.0,2096,2539,2015,0
37396.0,2104,2535,2016,0
37397.0,2102,2537,2014,0
37398.0,2098,2536,2017,0
37399.0,2095,2538,2015,0
37400.0,2101,2542,2017,0
37401.0,2100,2539,2016,0
37402.0,2098,2539,2017,0
37403.0,2100,2540,2015,0
37404.0,2093,2534,2018,0
37405.0,2100,2539,2019,0
37406.0,2096,2541,2014,0
37407.0,2095,2537,2014,0
37408.0,2100,2539,2013,0
37409.0,2099,2531,2017,0
37410.0,2095,2538,2013,0
37411.0,2103,2545,2019,0
37412.0,2097,2539,2018,0
37413.0,2099,2540,2013,0
37414.0,2095,2543,2021,0
37415.0,2094,2538,2013,0
37416.0,2097,2538,2019,0
37417.0,2102,2538,2016,0
37418.0,2099,2539,2014,0
37419.0,2097,2535,2014,0
37420.0,2105,2536,2018,0
37421.0,2102,2537,2012,0
37422.0,2105,2542,2012,0
37423.0,2100,2538,2017,0
37424.0,2104,2539,2020,0
37425.0,2094,2536,2015,0
37426.0,2101,2540,2009,0
37427.0,2102,2539,2015,0
37428.0,2098,2540,2016,0
37429.0,2099,2535,2013,0
37430.0,2097,2534,2021,0
37431.0,2099,2535,2013,0
37432.0,2101,2536,2014,0
37433.0,2102,2538,2016,0
37434.0,2096,2543,2017,0
37435.0,2098,2539,2018,0
37436.0,2099,2541,2009,0
37437.0,2095,2539,2015,0
37438.0,2095,2542,2014,0
37439.0,2098,2537,2017,0
37440.0,2093,2538,2012,0
37441.0,2096,2539,2013,0
37442.0,2100,2537,2013,0
37443.0,2100,2539,2010,0
37444.0,2095,2538,2017,0
37445.0,2095,2536,2019,0
37446.0,2100,2535,2019,0
37447.0,2098,2541,2011,0
37448.0,2097,2543,2015,0
37449.0,2100,2539,2017,0
37450.0,2098,2539,2012,0
37451.0,2097,2541,2018,0
37452.0,2100,2535,2015,0
37453.0,2098,2539,2020,0
37454.0,2092,2539,2019,0
37455.0,2098,2538,2015,0
37456.0,2097,2537,2015,0
37457.0,2099,2539,2016,0
37458.0,2096,2541,2012,0
37459.0,2100,2535,2015,0
37460.0,2100,2538,2011,0
37461.0,2099,2542,2014,0
37462.0,2096,2537,2012,0
37463.0,2096,2537,2018,0
37464.0,2105,2535,2015,0
37465.0,2097,2538,2012,0
37466.0,2103,2538,2012,0
37467.0,2102,2532,2016,0
37468.0,2097,2542,2018,0
37469.0,2095,2539,2015,0
37470.0,2087,2540,2016,0
37471.0,2095,2537,2017,0
37472.0,2098,2542,2019,0
37473.0,2099,2540,2013,0
37474.0,2094,2535,2013,0
37475.0,2094,2538,2013,0
37476.0,2098,2540,2015,0
37477.0,2097,2543,2013,0
37478.0,2099,2541,2017,0
37479.0,2096,2541,2017,0
37480.0,2097,2537,2020,0
37481.0,2095,2537,2014,0
37482.0,2096,2537,2018,0
37483.0,2098,2540,2018,0
37484.0,2101,2537,2020,0
37485.0,2101,2536,2015,0
37486.0,2096,2537,2013,0
37487.0,2097,2539,2019,0
37488.0,2094,2540,2018,0
37489.0,2097,2545,2014,0
37490.0,2093,2547,2015,0
37491.0,2097,2541,2018,0
37492.0,2096,2536,2014,0
37493.0,2098,2533,2017,0
37494.0,2095,2540,2014,0
37495.0,2097,2533,2013,0
37496.0,2095,2542,2018,0
37497.0,2100,2541,2017,0
37498.0,2098,2537,2015,0
37499.0,2093,2535,2016,0
37500.0,2095,2540,2015,0
37501.0,2099,2539,2016,0
37502.0,2094,2537,2020,0
37503.0,2091,2538,2021,0
37504.0,2096,2534,2015,0
37505.0,2100,2534,2015,0
37506.0,2103,2541,2014,0
37507.0,2100,2539,2012,0
37508.0,2093,2541,2015,0
37509.0,2097,2539,2018,0
37510.0,2095,2539,2018,0
37511.0,2098,2536,2009,0
37512.0,2087,2539,2019,0
37513.0,2101,2539,2012,0
37514.0,2096,2540,2013,0
37515.0,2092,2539,2016,0
37516.0,2093,2540,2013,0
37517.0,2096,2536,2023,0
37518.0,2091,2536,2013,0
37519.0,2097,2535,2013,0
37520.0,2095,2543,2018,0
37521.0,2099,2542,2013,0
37522.0,2095,2541,2011,0
37523.0,2087,2538,2020,0
37524.0,2096,2539,2019,0
37525.0,2094,2545,2017,0
37526.0,2095,2538,2015,0
37527.0,2097,2538,2019,0
37528.0,2097,2540,2015,0
37529.0,2098,2535,2016,0
37530.0,2093,2543,2010,0
37531.0,2092,2540,2014,0
37532.0,2093,2537,2017,0
37533.0,2095,2537,2014,0
37534.0,2097,2536,2016,0
37535.0,2094,2535,2018,0
37536.0,2095,2538,2013,0
37537.0,2096,2544,2016,0
37538.0,2098,2538,2018,0
37539.0,2092,2540,2018,0
37540.0,2099,2543,2017,0
37541.0,2097,2542,2012,0
37542.0,2095,2537,2016,0
37543.0,2101,2539,2014,0
37544.0,2097,2539,2018,0
37545.0,2093,2533,2015,0
37546.0,2094,2544,2020,0
37547.0,2099,2539,2018,0
37548.0,2096,2539,2015,0
37549.0,2100,2531,2013,0
37550.0,2098,2537,2014,0
37551.0,2097,2543,2015,0
37552.0,2100,2539,2008,0
37553.0,2099,2535,2013,0
37554.0,2097,2536,2013,0
37555.0,2102,2538,2012,0
37556.0,2094,2535,2015,0
37557.0,2095,2541,2016,0
37558.0,2101,2543,2016,0
37559.0,2101,2541,2013,0
37560.0,2092,2537,2014,0
37561.0,2095,2539,2015,0
37562.0,2102,2537,2020,0
37563.0,2095,2542,2021,0
37564.0,2096,2538,2011,0
37565.0,2098,2535,2011,0
37566.0,2099,2539,2020,0
37567.0,2097,2537,2010,0
37568.0,2098,2539,2012,0
37569.0,2096,2537,2017,0
37570.0,2097,2544,2013,0
37571.0,2099,2542,2013,0
37572.0,2098,2540,2016,0
37573.0,2097,2543,2017,0
37574.0,2103,2541,2013,0
37575.0,2096,2535,2017,0
37576.0,2098,2539,2016,0
37577.0,2099,2534,2021,0
37578.0,2097,2535,2018,0
37579.0,2093,2541,2017,0
37580.0,2095,2535,2017,0
37581.0,2095,2538,2014,0
37582.0,2094,2546,2017,0
37583.0,2098,2543,2016,0
37584.0,2098,2539,2018,0
37585.0,2090,2539,2020,0
37586.0,2095,2543,2016,0
37587.0,2097,2536,2015,0
37588.0,2101,2536,2018,0
37589.0,2092,2539,2013,0
37590.0,2097,2535,2020,0
37591.0,2089,2537,2019,0
37592.0,2100,2536,2015,0
37593.0,2094,2543,2012,0
37594.0,2093,2533,2017,0
37595.0,2093,2541,2015,0
37596.0,2095,2537,2018,0
37597.0,2098,2540,2023,0
37598.0,2093,2534,2014,0
37599.0,2099,2545,2012,0
37600.0,2092,2539,2017,0
37601.0,2099,2541,2016,0
37602.0,2097,2539,2021,0
37603.0,2097,2533,2015,0
37604.0,2095,2539,2018,0
37605.0,2100,2545,2017,0
37606.0,2099,2534,2018,0
37607.0,2096,2544,2015,0
37608.0,2096,2538,2020,0
37609.0,2098,2539,2019,0
37610.0,2100,2540,2017,0
37611.0,2097,2541,2014,0
37612.0,2096,2533,2019,0
37613.0,2093,2539,2010,0
37614.0,2092,2539,2022,0
37615.0,2098,2542,2015,0
37616.0,2097,2539,2017,0
37617.0,2095,2539,2013,0
37618.0,2096,2541,2015,0
37619.0,2092,2543,2012,0
37620.0,2093,2533,2019,0
37621.0,2091,2537,2017,0
37622.0,2095,2536,2010,0
37623.0,2092,2539,2011,0
37624.0,2096,2539,2015,0
37625.0,2094,2536,2015,0
37626.0,2097,2534,2017,0
37627.0,2101,2538,2015,0
37628.0,2093,2541,2016,0
37629.0,2097,2544,2015,0
37630.0,2098,2538,2013,0
37631.0,2097,2544,2015,0
37632.0,2100,2535,2013,0
37633.0,2098,2539,2013,0
37634.0,2094,2536,2012,0
37635.0,2095,2538,2013,0
37636.0,2093,2541,2014,0
37637.0,2096,2536,2017,0
37638.0,2094,2540,2015,0
37639.0,2099,2537,2016,0
37640.0,2095,2534,2016,0
37641.0,2092,2535,2016,0
37642.0,2095,2543,2017,0
37643.0,2094,2537,2018,0
37644.0,2094,2534,2017,0
37645.0,2095,2539,2011,0
37646.0,2096,2545,2017,0
37647.0,2094,2539,2014,0
37648.0,2094,2539,2020,0
37649.0,2096,2538,2018,0
37650.0,2101,2539,2014,0
37651.0,2091,2535,2013,0
37652.0,2090,2539,2009,0
37653.0,2092,2541,2018,0
37654.0,2099,2535,2015,0
37655.0,2096,2547,2008,0
37656.0,2098,2538,2017,0
37657.0,2095,2535,2016,0
37658.0,2099,2538,2014,0
37659.0,2089,2539,2015,0
37660.0,2094,2542,2019,0
37661.0,2095,2536,2017,0
37662.0,2096,2541,2010,0
37663.0,2093,2537,2011,0
37664.0,2098,2538,2005,0
37665.0,2100,2538,2015,0
37666.0,2091,2540,2017,0
37667.0,2095,2536,2014,0
37668.0,2100,2533,2015,0
37669.0,2094,2536,2012,0
37670.0,2102,2538,2011,0
37671.0,2100,2534,2021,0
37672.0,2094,2542,2011,0
37673.0,2100,2534,2022,0
37674.0,2094,2538,2015,0
37675.0,2095,2538,2019,0
37676.0,2092,2535,2010,0
37677.0,2097,2538,2015,0
37678.0,2098,2545,2018,0
37679.0,2093,2536,2017,0
37680.0,2099,2539,2012,0
37681.0,2092,2540,2016,0
37682.0,2094,2535,2014,0
37683.0,2092,2542,2012,0
37684.0,2099,2536,2014,0
37685.0,2095,2541,2016,0
37686.0,2098,2533,2015,0
37687.0,2095,2537,2014,0
37688.0,2096,2535,2015,0
37689.0,2098,2540,2018,0
37690.0,2095,2536,2014,0
37691.0,2092,2541,2015,0
37692.0,2095,2541,2018,0
37693.0,2099,2538,2015,0
37694.0,2098,2543,2015,0
37695.0,2094,2533,2017,0
37696.0,2093,2542,2012,0
37697.0,2098,2544,2012,0
37698.0,2103,2537,2015,0
37699.0,2099,2542,2017,0
37700.0,2094,2541,2017,0
37701.0,2097,2538,2013,0
37702.0,2097,2540,2013,0
37703.0,2095,2536,2016,0
37704.0,2098,2539,2016,0
37705.0,2096,2542,2014,0
37706.0,2095,2535,2015,0
37707.0,2100,2537,2009,0
37708.0,2098,2540,2020,0
37709.0,2093,2539,2012,0
37710.0,2104,2538,2014,0
37711.0,2099,2536,2019,0
37712.0,2093,2540,2015,0
37713.0,2096,2536,2016,0
37714.0,2097,2541,2010,0
37715.0,2099,2540,2012,0
37716.0,2100,2535,2010,0
37717.0,2101,2538,2015,0
37718.0,2097,2542,2013,0
37719.0,2097,2538,2019,0
37720.0,2098,2544,2013,0
37721.0,2092,2541,2014,0
37722.0,2093,2540,2016,0
37723.0,2097,2541,2013,0
37724.0,2101,2538,2021,0
37725.0,2100,2537,2019,0
37726.0,2096,2540,2014,0
37727.0,2097,2542,2013,0
37728.0,2093,2544,2015,0
37729.0,2095,2542,2011,0
37730.0,2095,2537,2015,0
37731.0,2095,2543,2017,0
37732.0,2097,2536,2017,0
37733.0,2093,2539,2014,0
37734.0,2096,2539,2012,0
37735.0,2095,2542,2017,0
37736.0,2098,2545,2010,0
37737.0,2098,2543,2015,0
37738.0,2095,2537,2016,0
37739.0,2099,2538,2008,0
37740.0,2099,2539,2013,0
37741.0,2100,2539,2013,0
37742.0,2101,2539,2012,0
37743.0,2102,2538,2013,0
37744.0,2101,2538,2014,0
37745.0,2097,2538,2015,0
37746.0,2096,2540,2016,0
37747.0,2100,2540,2016,0
37748.0,2097,2541,2011,0
37749.0,2099,2541,2017,0
37750.0,2100,2533,2013,0
37751.0,2096,2539,2013,0
37752.0,2096,2541,2014,0
37753.0,2088,2541,2013,0
37754.0,2093,2542,2006,0
37755.0,2096,2539,2013,0
37756.0,2093,2541,2010,0
37757.0,2097,2537,2013,0
37758.0,2099,2538,2017,0
37759.0,2097,2541,2017,0
37760.0,2102,2536,2017,0
37761.0,2097,2537,2009,0
37762.0,2101,2539,2008,0
37763.0,2097,2541,2010,0
37764.0,2093,2538,2014,0
37765.0,2091,2541,2011,0
37766.0,2094,2538,2016,0
37767.0,2091,2539,2023,0
37768.0,2098,2538,2017,0
37769.0,2096,2536,2018,0
37770.0,2096,2538,2011,0
37771.0,2098,2537,2014,0
37772.0,2099,2543,2014,0
37773.0,2094,2538,2014,0
37774.0,2098,2541,2015,0
37775.0,2101,2538,2014,0
37776.0,2092,2539,2011,0
37777.0,2097,2540,2015,0
37778.0,2094,2536,2013,0
37779.0,2100,2535,2014,0
37780.0,2093,2543,2017,0
37781.0,2093,2536,2011,0
37782.0,2095,2542,2015,0
37783.0,2096,2539,2011,0
37784.0,2094,2541,2014,0
37785.0,2092,2538,2015,0
37786.0,2095,2540,2013,0
37787.0,2095,2541,2015,0
37788.0,2096,2532,2014,0
37789.0,2099,2539,2015,0
37790.0,2096,2541,2009,0
37791.0,2098,2540,2015,0
37792.0,2097,2534,2014,0
37793.0,2097,2534,2014,0
37794.0,2101,2535,2007,0
37795.0,2095,2539,2012,0
37796.0,2101,2537,2011,0
37797.0,2098,2536,2009,0
37798.0,2102,2539,2016,0
37799.0,2098,2534,2015,0
37800.0,2095,2535,2010,0
37801.0,2099,2535,2011,0
37802.0,2098,2541,2011,0
37803.0,2098,2539,2011,0
37804.0,2093,2538,2013,0
37805.0,2094,2537,2014,0
37806.0,2096,2540,2014,0
37807.0,2100,2537,2010,0
37808.0,2100,2541,2012,0
37809.0,2100,2541,2017,0
37810.0,2094,2540,2017,0
37811.0,2100,2541,2016,0
37812.0,2092,2538,2014,0
37813.0,2098,2539,2015,0
37814.0,2095,2537,2019,0
37815.0,2091,2538,2014,0
37816.0,2097,2539,2013,0
37817.0,2093,2536,2012,0
37818.0,2099,2536,2017,0
37819.0,2095,2539,2014,0
37820.0,2097,2543,2019,0
37821.0,2094,2542,2011,0
37822.0,2095,2537,2020,0
37823.0,2100,2538,2012,0
37824.0,2092,2541,2010,0
37825.0,2093,2540,2020,0
37826.0,2094,2540,2012,0
37827.0,2094,2536,2014,0
37828.0,2100,2539,2013,0
37829.0,2094,2539,2014,0
37830.0,2096,2538,2014,0
37831.0,2100,2535,2017,0
37832.0,2095,2536,2011,0
37833.0,2093,2538,2015,0
37834.0,2098,2535,2016,0
37835.0,2096,2542,2010,0
37836.0,2096,2538,2019,0
37837.0,2100,2541,2018,0
37838.0,2094,2534,2019,0
37839.0,2095,2541,2015,0
37840.0,2098,2537,2015,0
37841.0,2098,2544,2013,0
37842.0,2095,2536,2017,0
37843.0,2093,2539,2017,0
37844.0,2094,2538,2012,0
37845.0,2094,2539,2015,0
37846.0,2099,2536,2015,0
37847.0,2095,2537,2013,0
37848.0,2099,2539,2011,0
37849.0,2095,2540,2013,0
37850.0,2094,2536,2014,0
37851.0,2101,2535,2021,0
37852.0,2100,2544,2014,0
37853.0,2096,2540,2016,0
37854.0,2102,2534,2007,0
37855.0,2094,2541,2016,0
37856.0,2098,2544,2013,0
37857.0,2097,2534,2012,0
37858.0,2093,2535,2010,0
37859.0,2095,2539,2015,0
37860.0,2097,2540,2009,0
37861.0,2096,2538,2012,0
37862.0,2099,2541,2014,0
37863.0,2098,2539,2019,0
37864.0,2094,2537,2018,0
37865.0,2099,2537,2015,0
37866.0,2094,2538,2011,0
37867.0,2097,2535,2015,0
37868.0,2100,2540,2021,0
37869.0,2103,2537,2016,0
37870.0,2100,2541,2017,0
37871.0,2092,2539,2015,0
37872.0,2100,2539,2015,0
37873.0,2098,2537,2018,0
37874.0,2100,2541,2014,0
37875.0,2095,2537,2015,0
37876.0,2097,2537,2014,0
37877.0,2096,2535,2017,0
37878.0,2096,2536,2015,0
37879.0,2095,2541,2013,0
37880.0,2100,2543,2012,0
37881.0,2092,2542,2016,0
37882.0,2099,2536,2023,0
37883.0,2098,2535,2020,0
37884.0,2098,2539,2016,0
37885.0,2099,2537,2022,0
37886.0,2102,2535,2019,0
37887.0,2108,2539,2017,0
37888.0,2099,2539,2015,0
37889.0,2107,2539,2011,0
37890.0,2104,2539,2009,0
37891.0,2106,2539,2011,0
37892.0,2104,2537,2016,0
37893.0,2107,2540,2014,0
37894.0,2106,2544,2013,0
37895.0,2098,2547,2014,0
37896.0,2108,2543,2006,0
37897.0,2101,2547,2013,0
37898.0,2093,2548,2011,0
37899.0,2091,2546,2018,0
37900.0,2097,2543,2007,0
37901.0,2099,2541,2018,0
37902.0,2107,2521,2011,0
37903.0,2111,2511,2018,0
37904.0,2118,2515,2013,0
37905.0,2105,2529,2019,0
37906.0,2099,2541,2004,0
37907.0,2092,2539,2009,0
37908.0,2091,2545,2016,0
37909.0,2094,2543,2019,0
37910.0,2107,2543,2015,0
37911.0,2107,2543,2015,0
37912.0,2108,2543,2014,0
37913.0,2108,2544,2014,0
37914.0,2107,2534,2019,0
37915.0,2111,2545,2022,0
37916.0,2109,2531,2029,0
37917.0,2105,2531,2018,0
37918.0,2109,2534,2002,0
37919.0,2103,2539,2008,0
37920.0,2109,2534,2002,0
37921.0,2120,2532,2023,0
37922.0,2121,2531,2035,0
37923.0,2110,2533,2029,0
37924.0,2103,2540,2021,0
37925.0,2099,2543,2020,0
37926.0,2092,2540,2030,0
37927.0,2100,2543,2042,0
37928.0,2100,2540,2040,0
37929.0,2105,2539,2034,0
37930.0,2109,2540,2039,0
37931.0,2110,2539,2043,0
37932.0,2109,2534,2042,0
37933.0,2113,2537,2039,0
37934.0,2108,2543,2041,0
37935.0,2107,2544,2040,0
37936.0,2112,2539,2044,0
37937.0,2102,2543,2045,0
37938.0,2104,2551,2042,0
37939.0,2091,2553,2032,0
37940.0,2090,2554,2037,0
37941.0,2091,2546,2034,0
37942.0,2093,2544,2041,0
37943.0,2092,2533,2045,0
37944.0,2095,2534,2048,0
37945.0,2091,2541,2042,0
37946.0,2087,2534,2040,0
37947.0,2087,2542,2039,0
37948.0,2090,2540,2043,0
37949.0,2088,2543,2048,0
37950.0,2096,2545,2047,0
37951.0,2092,2540,2041,0
37952.0,2097,2547,2039,0
37953.0,2098,2549,2037,0
37954.0,2090,2547,2038,0
37955.0,2089,2548,2042,0
37956.0,2092,2541,2037,0
37957.0,2083,2538,2030,0
37958.0,2085,2540,2031,0
37959.0,2090,2537,2035,0
37960.0,2092,2539,2040,0
37961.0,2093,2538,2037,0
37962.0,2090,2542,2028,0
37963.0,2082,2556,2027,0
37964.0,2081,2545,2029,0
37965.0,2086,2550,2031,0
37966.0,2091,2544,2022,0
37967.0,2099,2536,2015,0
37968.0,2096,2540,2026,0
37969.0,2096,2526,2030,0
37970.0,2099,2533,2024,0
37971.0,2108,2548,2022,0
37972.0,2101,2546,2035,0
37973.0,2091,2551,2029,0
37974.0,2072,2553,2038,0
37975.0,2059,2540,2051,0
37976.0,2065,2536,2061,0
37977.0,2079,2552,2046,0
37978.0,2074,2553,2055,0
37979.0,2051,2553,2041,0
37980.0,2056,2549,2054,0
37981.0,2061,2535,2062,0
37982.0,2068,2526,2062,0
37983.0,2069,2542,2060,0
37984.0,2082,2541,2056,0
37985.0,2079,2544,2052,0
37986.0,2084,2551,2042,0
37987.0,2082,2560,2048,0
37988.0,2087,2555,2054,0
37989.0,2082,2554,2043,0
37990.0,2084,2558,2039,0
37991.0,2085,2549,2037,0
37992.0,2089,2556,2050,0
37993.0,2075,2538,2054,0
37994.0,2080,2539,2056,0
37995.0,2079,2538,2050,0
37996.0,2083,2526,2051,0
37997.0,2087,2537,2049,0
37998.0,2078,2539,2049,0
37999.0,2077,2540,2052,0
38000.0,2072,2545,2050,0
38001.0,2072,2542,2058,0
38002.0,2082,2548,2039,0
38003.0,2064,2545,2019,0
38004.0,2063,2544,2017,0
38005.0,2052,2544,2024,0
38006.0,2039,2540,2044,0
38007.0,2048,2542,2038,0
38008.0,2052,2539,2028,0
38009.0,2052,2538,2021,0
38010.0,2048,2536,2036,0
38011.0,2056,2534,2028,0
38012.0,2062,2528,2038,0
38013.0,2061,2528,2044,0
38014.0,2073,2539,2041,0
38015.0,2081,2535,2045,0
38016.0,2073,2545,2034,0
38017.0,2081,2541,2036,0
38018.0,2082,2528,2046,0
38019.0,2086,2527,2043,0
38020.0,2086,2531,2043,0
38021.0,2080,2540,2041,0
38022.0,2074,2553,2045,0
38023.0,2068,2561,2052,0
38024.0,2085,2553,2058,0
38025.0,2094,2552,2055,0
38026.0,2093,2560,2041,0
38027.0,2097,2554,2040,0
38028.0,2082,2555,2044,0
38029.0,2081,2543,2050,0
38030.0,2078,2539,2056,0
38031.0,2091,2527,2050,0
38032.0,2099,2540,2040,0
38033.0,2093,2547,2029,0
38034.0,2098,2554,2019,0
38035.0,2087,2554,2019,0
38036.0,2085,2546,2033,0
38037.0,2088,2533,2027,0
38038.0,2092,2539,2021,0
38039.0,2085,2535,2013,0
38040.0,2093,2533,2014,0
38041.0,2083,2532,2012,0
38042.0,2086,2535,2018,0
38043.0,2085,2534,2021,0
38044.0,2087,2532,2022,0
38045.0,2090,2529,2021,0
38046.0,2086,2541,2035,0
38047.0,2073,2549,2037,0
38048.0,2076,2552,2046,0
38049.0,2065,2544,2058,0
38050.0,2068,2546,2058,0
38051.0,2072,2549,2051,0
38052.0,2069,2542,2054,0
38053.0,2067,2539,2056,0
38054.0,2085,2543,2038,0
38055.0,2080,2549,2037,0
38056.0,2073,2543,2048,0
38057.0,2084,2542,2041,0
38058.0,2082,2542,2039,0
38059.0,2087,2543,2043,0
38060.0,2087,2542,2031,0
38061.0,2086,2543,2028,0
38062.0,2077,2548,2045,0
38063.0,2078,2549,2037,0
38064.0,2083,2546,2027,0
38065.0,2071,2551,2031,0
38066.0,2077,2538,2043,0
38067.0,2078,2535,2050,0
38068.0,2078,2539,2049,0
38069.0,2079,2539,2046,0
38070.0,2085,2538,2045,0
38071.0,2080,2533,2043,0
38072.0,2088,2536,2032,0
38073.0,2091,2544,2026,0
38074.0,2081,2555,2038,0
38075.0,2078,2548,2039,0
38076.0,2093,2546,2024,0
38077.0,2092,2544,2032,0
38078.0,2085,2545,2032,0
38079.0,2088,2536,2028,0
38080.0,2093,2540,2028,0
38081.0,2092,2540,2030,0
38082.0,2091,2537,2030,0
38083.0,2092,2535,2022,0
38084.0,2091,2541,2018,0
38085.0,2094,2543,2022,0
38086.0,2089,2539,2023,0
38087.0,2096,2541,2016,0
38088.0,2091,2542,2023,0
38089.0,2091,2535,2031,0
38090.0,2085,2537,2036,0
38091.0,2078,2532,2041,0
38092.0,2079,2534,2031,0
38093.0,2086,2535,2036,0
38094.0,2081,2543,2035,0
38095.0,2076,2545,2038,0
38096.0,2078,2547,2026,0
38097.0,2077,2554,2030,0
38098.0,2080,2555,2029,0
38099.0,2082,2547,2032,0
38100.0,2085,2545,2034,0
38101.0,2081,2546,2031,0
38102.0,2085,2535,2028,0
38103.0,2084,2535,2025,0
38104.0,2082,2537,2022,0
38105.0,2082,2540,2023,0
38106.0,2076,2542,2021,0
38107.0,2078,2545,2021,0
38108.0,2078,2545,2018,0
38109.0,2078,2540,2020,0
38110.0,2080,2541,2024,0
38111.0,2076,2544,2023,0
38112.0,2080,2539,2027,0
38113.0,2080,2539,2019,0
38114.0,2078,2540,2026,0
38115.0,2086,2543,2021,0
38116.0,2081,2538,2020,0
38117.0,2083,2544,2026,0
38118.0,2078,2547,2024,0
38119.0,2076,2543,2028,0
38120.0,2082,2543,2028,0
38121.0,2075,2543,2019,0
38122.0,2078,2537,2025,0
38123.0,2081,2538,2035,0
38124.0,2087,2536,2028,0
38125.0,2080,2540,2026,0
38126.0,2079,2543,2030,0
38127.0,2091,2539,2026,0
38128.0,2092,2542,2034,0
38129.0,2090,2542,2028,0
38130.0,2087,2545,2026,0
38131.0,2080,2545,2036,0
38132.0,2078,2541,2027,0
38133.0,2087,2544,2021,0
38134.0,2075,2543,2028,0
38135.0,2076,2544,2026,0
38136.0,2081,2550,2018,0
38137.0,2076,2544,2024,0
38138.0,2074,2539,2017,0
38139.0,2074,2543,2021,0
38140.0,2072,2541,2016,0
38141.0,2072,2540,2008,0
38142.0,2068,2552,2013,0
38143.0,2063,2548,2014,0
38144.0,2058,2551,2011,0
38145.0,2045,2547,2024,0
38146.0,2043,2545,2025,0
38147.0,2061,2538,2027,0
38148.0,2061,2530,2017,0
38149.0,2075,2524,2011,0
38150.0,2074,2522,2018,0
38151.0,2060,2539,2027,0
38152.0,2062,2538,2027,0
38153.0,2068,2538,2031,0
38154.0,2077,2532,2045,0
38155.0,2080,2538,2032,0
38156.0,2090,2535,2030,0
38157.0,2093,2546,2018,0
38158.0,2087,2551,2016,0
38159.0,2095,2553,2023,0
38160.0,2098,2543,2028,0
38161.0,2110,2539,2031,0
38162.0,2110,2531,2032,0
38163.0,2094,2537,2033,0
38164.0,2093,2533,2025,0
38165.0,2091,2538,2026,0
38166.0,2081,2545,2026,0
38167.0,2087,2541,2026,0
38168.0,2082,2550,2026,0
38169.0,2079,2545,2030,0
38170.0,2081,2543,2027,0
38171.0,2090,2537,2031,0
38172.0,2098,2535,2029,0
38173.0,2092,2534,2028,0
38174.0,2097,2536,2020,0
38175.0,2102,2534,2021,0
38176.0,2105,2537,2027,0
38177.0,2098,2549,2023,0
38178.0,2093,2558,2028,0
38179.0,2085,2567,2025,0
38180.0,2089,2561,2034,0
38181.0,2096,2549,2018,0
38182.0,2091,2547,2029,0
38183.0,2072,2537,2028,0
38184.0,2071,2539,2023,0
38185.0,2079,2528,2011,0
38186.0,2084,2525,2018,0
38187.0,2080,2527,2023,0
38188.0,2079,2531,2025,0
38189.0,2080,2534,2028,0
38190.0,2080,2541,2027,0
38191.0,2086,2542,2012,0
38192.0,2078,2550,2020,0
38193.0,2075,2543,2023,0
38194.0,2074,2546,2031,0
38195.0,2078,2544,2039,0
38196.0,2078,2537,2035,0
38197.0,2076,2544,2035,0
38198.0,2078,2543,2034,0
38199.0,2085,2547,2035,0
38200.0,2078,2548,2035,0
38201.0,2089,2543,2030,0
38202.0,2084,2543,2031,0
38203.0,2085,2538,2027,0
38204.0,2090,2540,2023,0
38205.0,2081,2542,2023,0
38206.0,2083,2539,2024,0
38207.0,2083,2550,2014,0
38208.0,2078,2546,2017,0
38209.0,2079,2546,2014,0
38210.0,2080,2546,2014,0
38211.0,2078,2536,2011,0
38212.0,2080,2539,2018,0
38213.0,2078,2540,2017,0
38214.0,2078,2541,2012,0
38215.0,2081,2538,2015,0
38216.0,2083,2538,2009,0
38217.0,2086,2537,2013,0
38218.0,2082,2536,2016,0
38219.0,2079,2545,2009,0
38220.0,2082,2539,2016,0
38221.0,2083,2539,2016,0
38222.0,2083,2537,2015,0
38223.0,2087,2540,2018,0
38224.0,2082,2544,2014,0
38225.0,2079,2542,2012,0
38226.0,2079,2541,2018,0
38227.0,2086,2544,2023,0
38228.0,2087,2543,2020,0
38229.0,2082,2543,2026,0
38230.0,2074,2542,2020,0
38231.0,2082,2543,2023,0
38232.0,2081,2551,2021,0
38233.0,2084,2553,2017,0
38234.0,2075,2552,2029,0
38235.0,2071,2529,2031,0
38236.0,2078,2528,2035,0
38237.0,2081,2525,2031,0
38238.0,2083,2522,2022,0
38239.0,2084,2543,2011,0
38240.0,2080,2559,2008,0
38241.0,2075,2559,2013,0
38242.0,2078,2547,2019,0
38243.0,2086,2547,2021,0
38244.0,2079,2539,2019,0
38245.0,2079,2538,2020,0
38246.0,2076,2531,2020,0
38247.0,2082,2535,2023,0
38248.0,2082,2543,2018,0
38249.0,2086,2548,2018,0
38250.0,2090,2546,2011,0
38251.0,2088,2546,2014,0
38252.0,2087,2545,2016,0
38253.0,2085,2543,2017,0
38254.0,2082,2542,2020,0
38255.0,2080,2541,2021,0
38256.0,2081,2541,2019,0
38257.0,2082,2542,2017,0
38258.0,2083,2541,2014,0
38259.0,2082,2542,2013,0
38260.0,2083,2543,2013,0
38261.0,2083,2540,2012,0
38262.0,2084,2542,2018,0
38263.0,2082,2546,2020,0
38264.0,2078,2544,2015,0
38265.0,2076,2539,2017,0
38266.0,2080,2541,2015,0
38267.0,2081,2537,2020,0
38268.0,2077,2540,2017,0
38269.0,2074,2547,2005,0
38270.0,2067,2551,2009,0
38271.0,2054,2547,2019,0
38272.0,2059,2528,2002,0
38273.0,2062,2516,2001,0
38274.0,2049,2518,2015,0
38275.0,2054,2521,2024,0
38276.0,2072,2535,1994,0
38277.0,2072,2543,1997,0
38278.0,2074,2546,2002,0
38279.0,2057,2544,2015,0
38280.0,2070,2543,2026,0
38281.0,2096,2545,2029,0
38282.0,2116,2545,2019,0
38283.0,2118,2550,2039,0
38284.0,2114,2553,2037,0
38285.0,2083,2541,2036,0
38286.0,2115,2548,2081,0
38287.0,2102,2545,2053,0
38288.0,2119,2535,2063,0
38289.0,2127,2532,2077,0
38290.0,2132,2520,2076,0
38291.0,2127,2509,2054,0
38292.0,2127,2504,2071,0
38293.0,2134,2498,2100,0
38294.0,2136,2497,2108,0
38295.0,2139,2488,2111,0
38296.0,2135,2509,2115,0
38297.0,2168,2518,2110,0
38298.0,2176,2510,2127,0
38299.0,2167,2512,2117,0
38300.0,2189,2515,2130,0
38301.0,2186,2525,2165,0
38302.0,2185,2538,2173,0
38303.0,2183,2560,2203,0
38304.0,2201,2570,2238,0
38305.0,2227,2575,2261,0
38306.0,2257,2566,2275,0
38307.0,2276,2531,2295,0
38308.0,2301,2500,2340,0
38309.0,2296,2483,2320,0
38310.0,2251,2506,2350,0
38311.0,2238,2516,2341,0
38312.0,2240,2502,2315,0
38313.0,2222,2495,2331,0
38314.0,2279,2466,2331,0
38315.0,2300,2498,2345,0
38316.0,2256,2507,2345,0
38317.0,2241,2511,2288,0
38318.0,2267,2512,2239,0
38319.0,2272,2537,2222,0
38320.0,2274,2549,2250,0
38321.0,2278,2525,2260,0
38322.0,2289,2519,2239,0
38323.0,2304,2519,2215,0
38324.0,2291,2510,2220,0
38325.0,2283,2481,2217,0
38326.0,2275,2486,2194,0
38327.0,2231,2486,2195,0
38328.0,2255,2484,2197,0
38329.0,2275,2458,2191,0
38330.0,2276,2456,2181,0
38331.0,2251,2447,2176,0
38332.0,2234,2423,2160,0
38333.0,2240,2423,2114,0
38334.0,2231,2423,2073,0
38335.0,2220,2437,2064,0
38336.0,2208,2442,2069,0
38337.0,2213,2414,2076,0
38338.0,2215,2407,2086,0
38339.0,2199,2407,2086,0
38340.0,2183,2403,2098,0
38341.0,2188,2412,2123,0
38342.0,2179,2434,2130,0
38343.0,2160,2444,2130,0
38344.0,2185,2473,2129,0
38345.0,2173,2502,2118,0
38346.0,2187,2521,2087,0
38347.0,2156,2527,2078,0
38348.0,2175,2515,2103,0
38349.0,2155,2517,2137,0
38350.0,2147,2496,2139,0
38351.0,2131,2494,2134,0
38352.0,2105,2489,2144,0
38353.0,2109,2474,2138,0
38354.0,2102,2489,2146,0
38355.0,2094,2487,2136,0
38356.0,2105,2490,2127,0
38357.0,2089,2501,2127,0
38358.0,2061,2498,2132,0
38359.0,2068,2525,2141,0
38360.0,2100,2541,2145,0
38361.0,2087,2547,2132,0
38362.0,2133,2569,2116,0
38363.0,2107,2578,2084,0
38364.0,2089,2565,2048,0
38365.0,2114,2538,2076,0
38366.0,2104,2528,2095,0
38367.0,2107,2520,2111,0
38368.0,2129,2519,2105,0
38369.0,2133,2522,2102,0
38370.0,2121,2518,2099,0
38371.0,2112,2515,2101,0
38372.0,2107,2532,2100,0
38373.0,2100,2539,2102,0
38374.0,2099,2543,2101,0
38375.0,2101,2507,2075,0
38376.0,2130,2515,2058,0
38377.0,2123,2537,2082,0
38378.0,2111,2557,2092,0
38379.0,2076,2582,2109,0
38380.0,2087,2588,2145,0
38381.0,2067,2589,2155,0
38382.0,2108,2604,2122,0
38383.0,2128,2647,2074,0
38384.0,2158,2639,2010,0
38385.0,2172,2580,2014,0
38386.0,2156,2525,2051,0
38387.0,2169,2493,2076,0
38388.0,2167,2464,2102,0
38389.0,2191,2462,2107,0
38390.0,2226,2479,2083,0
38391.0,2239,2466,1993,0
38392.0,2231,2475,1941,0
38393.0,2199,2515,2035,0
38394.0,2190,2527,2097,0
38395.0,2176,2521,2099,0
38396.0,2173,2542,2067,0
38397.0,2176,2555,2056,0
38398.0,2145,2539,2055,0
38399.0,2127,2526,2057,0
38400.0,2143,2521,2052,0
38401.0,2147,2519,2048,0
38402.0,2149,2513,2013,0
38403.0,2142,2536,1999,0
38404.0,2153,2542,2023,0
38405.0,2145,2533,2021,0
38406.0,2149,2528,2008,0
38407.0,2156,2509,1993,0
38408.0,2154,2516,1983,0
38409.0,2130,2515,1991,0
38410.0,2113,2517,2012,0
38411.0,2118,2496,2025,0
38412.0,2095,2507,2016,0
38413.0,2101,2508,2028,0
38414.0,2135,2501,2005,0
38415.0,2137,2532,1966,0
38416.0,2125,2539,1951,0
38417.0,2097,2531,1980,0
38418.0,2077,2553,2007,0
38419.0,2083,2611,2024,0
38420.0,2126,2543,2082,0
38421.0,2125,2544,2083,0
38422.0,2136,2531,2080,0
38423.0,2139,2511,2044,0
38424.0,2104,2517,1968,0
38425.0,2101,2508,1971,0
38426.0,2106,2506,2046,0
38427.0,2093,2517,2079,0
38428.0,2100,2513,2097,0
38429.0,2122,2547,2137,0
38430.0,2102,2601,2169,0
38431.0,2088,2597,2124,0
38432.0,2075,2593,2052,0
38433.0,2077,2572,2037,0
38434.0,2092,2523,2050,0
38435.0,2088,2513,2054,0
38436.0,2088,2521,2069,0
38437.0,2069,2525,2089,0
38438.0,2079,2524,2096,0
38439.0,2094,2525,2075,0
38440.0,2094,2530,2047,0
38441.0,2090,2544,2030,0
38442.0,2086,2547,2041,0
38443.0,2073,2547,2069,0
38444.0,2064,2537,2073,0
38445.0,2049,2521,2065,0
38446.0,2045,2529,2059,0
38447.0,2040,2535,2056,0
38448.0,2036,2531,2045,0
38449.0,2037,2528,2055,0
38450.0,2037,2527,2068,0
38451.0,2041,2523,2070,0
38452.0,2048,2533,2060,0
38453.0,2042,2533,2042,0
38454.0,2046,2530,2038,0
38455.0,2053,2529,2044,0
38456.0,2048,2539,2047,0
38457.0,2041,2549,2053,0
38458.0,2041,2560,2050,0
38459.0,2035,2551,2047,0
38460.0,2037,2550,2039,0
38461.0,2025,2553,2019,0
38462.0,2018,2543,2030,0
38463.0,2013,2541,2042,0
38464.0,2021,2587,2067,0
38465.0,2029,2624,2098,0
38466.0,2039,2622,2082,0
38467.0,2028,2583,2049,0
38468.0,2063,2579,2031,0
38469.0,2079,2605,2088,0
38470.0,2095,2623,2119,0
38471.0,2129,2611,2127,0
38472.0,2164,2558,2118,0
38473.0,2201,2533,2090,0
38474.0,2201,2528,2065,0
38475.0,2199,2537,2017,0
38476.0,2232,2545,2019,0
38477.0,2228,2546,2062,0
38478.0,2218,2539,2125,0
38479.0,2224,2525,2132,0
38480.0,2231,2515,2075,0
38481.0,2239,2495,2019,0
38482.0,2235,2469,2042,0
38483.0,2228,2454,2084,0
38484.0,2217,2464,2093,0
38485.0,2189,2485,2087,0
38486.0,2180,2487,2080,0
38487.0,2185,2492,2078,0
38488.0,2180,2507,2073,0
38489.0,2188,2506,2078,0
38490.0,2198,2515,2079,0
38491.0,2217,2517,2072,0
38492.0,2221,2526,2045,0
38493.0,2220,2524,2031,0
38494.0,2221,2515,2036,0
38495.0,2203,2498,2047,0
38496.0,2207,2497,2064,0
38497.0,2218,2489,2071,0
38498.0,2209,2497,2068,0
38499.0,2209,2502,2054,0
38500.0,2209,2496,2057,0
38501.0,2216,2500,2050,0
38502.0,2224,2504,2047,0
38503.0,2227,2507,2049,0
38504.0,2208,2500,2046,0
38505.0,2215,2508,2042,0
38506.0,2207,2515,2044,0
38507.0,2195,2515,2051,0
38508.0,2185,2523,2058,0
38509.0,2183,2529,2060,0
38510.0,2185,2538,2046,0
38511.0,2191,2542,2050,0
38512.0,2194,2545,2049,0
38513.0,2200,2543,2043,0
38514.0,2199,2542,2030,0
38515.0,2198,2527,2021,0
38516.0,2193,2515,2023,0
38517.0,2188,2503,2031,0
38518.0,2177,2499,2033,0
38519.0,2170,2494,2041,0
38520.0,2152,2498,2035,0
38521.0,2137,2495,2033,0
38522.0,2127,2513,2052,0
38523.0,2120,2534,2070,0
38524.0,2127,2554,2071,0
38525.0,2134,2570,2082,0
38526.0,2149,2573,2071,0
38527.0,2143,2550,2061,0
38528.0,2136,2527,2068,0
38529.0,2127,2496,2082,0
38530.0,2126,2497,2106,0
38531.0,2129,2507,2130,0
38532.0,2145,2518,2122,0
38533.0,2128,2542,2090,0
38534.0,2119,2565,2059,0
38535.0,2088,2562,2063,0
38536.0,2075,2559,2076,0
38537.0,2067,2553,2103,0
38538.0,2063,2549,2119,0
38539.0,2055,2549,2124,0
38540.0,2066,2548,2108,0
38541.0,2082,2554,2092,0
38542.0,2090,2559,2076,0
38543.0,2094,2565,2080,0
38544.0,2096,2560,2083,0
38545.0,2085,2553,2089,0
38546.0,2087,2535,2090,0
38547.0,2090,2533,2091,0
38548.0,2087,2528,2094,0
38549.0,2075,2532,2103,0
38550.0,2069,2537,2125,0
38551.0,2060,2539,2130,0
38552.0,2066,2547,2112,0
38553.0,2075,2547,2085,0
38554.0,2080,2555,2060,0
38555.0,2078,2550,2073,0
38556.0,2065,2541,2108,0
38557.0,2050,2536,2119,0
38558.0,2057,2543,2100,0
38559.0,2063,2549,2085,0
38560.0,2056,2558,2067,0
38561.0,2051,2554,2061,0
38562.0,2050,2546,2064,0
38563.0,2046,2543,2087,0
38564.0,2040,2543,2097,0
38565.0,2035,2550,2098,0
38566.0,2034,2550,2104,0
38567.0,2045,2550,2107,0
38568.0,2043,2543,2099,0
38569.0,2047,2539,2104,0
38570.0,2049,2535,2099,0
38571.0,2050,2537,2098,0
38572.0,2051,2535,2095,0
38573.0,2046,2539,2094,0
38574.0,2044,2547,2103,0
38575.0,2055,2549,2096,0
38576.0,2060,2558,2083,0
38577.0,2066,2557,2079,0
38578.0,2077,2551,2081,0
38579.0,2082,2541,2094,0
38580.0,2085,2536,2099,0
38581.0,2084,2538,2096,0
38582.0,2079,2533,2095,0
38583.0,2065,2540,2092,0
38584.0,2055,2544,2093,0
38585.0,2054,2540,2089,0
38586.0,2054,2537,2086,0
38587.0,2055,2544,2089,0
38588.0,2056,2534,2095,0
38589.0,2056,2537,2098,0
38590.0,2037,2550,2096,0
38591.0,2038,2551,2099,0
38592.0,2033,2549,2106,0
38593.0,2049,2539,2107,0
38594.0,2073,2542,2095,0
38595.0,2072,2540,2078,0
38596.0,2064,2541,2086,0
38597.0,2064,2548,2082,0
38598.0,2051,2531,2088,0
38599.0,2063,2505,2092,0
38600.0,2085,2503,2101,0
38601.0,2107,2520,2081,0
38602.0,2100,2549,2055,0
38603.0,2083,2561,2037,0
38604.0,2075,2573,2068,0
38605.0,2077,2577,2092,0
38606.0,2080,2576,2089,0
38607.0,2083,2579,2061,0
38608.0,2087,2575,2037,0
38609.0,2087,2570,2029,0
38610.0,2078,2562,2046,0
38611.0,2067,2546,2068,0
38612.0,2061,2532,2070,0
38613.0,2053,2524,2068,0
38614.0,2044,2522,2061,0
38615.0,2046,2518,2064,0
38616.0,2048,2529,2075,0
38617.0,2043,2526,2079,0
38618.0,2045,2515,2076,0
38619.0,2043,2503,2062,0
38620.0,2050,2504,2071,0
38621.0,2062,2522,2077,0
38622.0,2062,2551,2077,0
38623.0,2053,2587,2076,0
38624.0,2049,2587,2074,0
38625.0,2041,2583,2064,0
38626.0,2038,2566,2053,0
38627.0,2042,2545,2071,0
38628.0,2045,2525,2097,0
38629.0,2033,2509,2103,0
38630.0,2043,2491,2106,0
38631.0,2048,2491,2102,0
38632.0,2034,2508,2109,0
38633.0,2029,2536,2107,0
38634.0,2042,2533,2099,0
38635.0,2051,2526,2084,0
38636.0,2050,2535,2074,0
38637.0,2046,2555,2065,0
38638.0,2019,2602,2055,0
38639.0,1968,2607,2077,0
38640.0,1964,2561,2125,0
38641.0,2001,2518,2142,0
38642.0,2023,2515,2111,0
38643.0,2035,2528,2092,0
38644.0,2021,2544,2093,0
38645.0,2009,2552,2091,0
38646.0,2028,2543,2072,0
38647.0,2033,2541,2065,0
38648.0,2027,2535,2082,0
38649.0,2023,2532,2104,0
38650.0,2030,2534,2125,0
38651.0,2037,2532,2111,0
38652.0,2039,2542,2099,0
38653.0,2033,2549,2085,0
38654.0,2027,2569,2079,0
38655.0,2048,2568,2073,0
38656.0,2054,2567,2072,0
38657.0,2058,2552,2079,0
38658.0,2042,2546,2084,0
38659.0,2032,2549,2095,0
38660.0,2034,2566,2111,0
38661.0,2020,2553,2122,0
38662.0,2050,2541,2096,0
38663.0,2035,2542,2070,0
38664.0,2023,2542,2066,0
38665.0,2017,2525,2087,0
38666.0,2040,2508,2088,0
38667.0,2048,2493,2083,0
38668.0,2052,2529,2082,0
38669.0,2038,2519,2059,0
38670.0,2015,2522,2040,0
38671.0,1989,2543,2083,0
38672.0,2000,2544,2099,0
38673.0,2016,2537,2101,0
38674.0,2004,2529,2086,0
38675.0,2018,2522,2073,0
38676.0,2024,2515,2081,0
38677.0,2019,2512,2082,0
38678.0,2014,2512,2092,0
38679.0,2004,2530,2125,0
38680.0,2005,2538,2116,0
38681.0,2016,2552,2108,0
38682.0,1998,2565,2091,0
38683.0,1996,2566,2078,0
38684.0,2002,2563,2070,0
38685.0,1997,2556,2082,0
38686.0,2003,2547,2087,0
38687.0,1997,2532,2096,0
38688.0,1997,2524,2122,0
38689.0,2005,2544,2116,0
38690.0,1996,2535,2126,0
38691.0,1993,2528,2126,0
38692.0,1994,2540,2121,0
38693.0,1988,2556,2115,0
38694.0,1978,2553,2107,0
38695.0,1988,2556,2105,0
38696.0,1991,2565,2100,0
38697.0,1993,2587,2097,0
38698.0,1983,2597,2094,0
38699.0,1992,2598,2091,0
38700.0,1992,2597,2087,0
38701.0,2006,2566,2084,0
38702.0,2022,2541,2094,0
38703.0,2025,2529,2098,0
38704.0,2041,2526,2106,0
38705.0,2038,2529,2125,0
38706.0,2043,2532,2123,0
38707.0,2058,2536,2090,0
38708.0,2095,2539,2074,0
38709.0,2113,2539,2069,0
38710.0,2091,2547,2074,0
38711.0,2083,2546,2093,0
38712.0,2087,2525,2111,0
38713.0,2098,2511,2116,0
38714.0,2089,2510,2115,0
38715.0,2106,2505,2118,0
38716.0,2103,2523,2101,0
38717.0,2115,2543,2083,0
38718.0,2123,2549,2065,0
38719.0,2113,2544,2058,0
38720.0,2109,2538,2054,0
38721.0,2101,2541,2059,0
38722.0,2093,2533,2068,0
38723.0,2086,2528,2074,0
38724.0,2073,2531,2076,0
38725.0,2071,2529,2069,0
38726.0,2063,2518,2080,0
38727.0,2067,2522,2071,0
38728.0,2081,2523,2065,0
38729.0,2085,2523,2056,0
38730.0,2066,2538,2061,0
38731.0,2070,2541,2059,0
38732.0,2073,2532,2051,0
38733.0,2071,2535,2043,0
38734.0,2070,2534,2044,0
38735.0,2068,2531,2053,0
38736.0,2058,2532,2060,0
38737.0,2056,2529,2065,0
38738.0,2045,2533,2053,0
38739.0,2048,2537,2044,0
38740.0,2052,2543,2045,0
38741.0,2037,2549,2055,0
38742.0,2050,2553,2057,0
38743.0,2064,2574,2050,0
38744.0,2063,2590,2042,0
38745.0,2042,2608,2039,0
38746.0,2033,2615,2040,0
38747.0,2026,2624,2054,0
38748.0,2041,2617,2071,0
38749.0,2030,2602,2106,0
38750.0,2035,2560,2118,0
38751.0,2043,2525,2113,0
38752.0,2052,2501,2091,0
38753.0,2058,2484,2083,0
38754.0,2059,2486,2105,0
38755.0,2053,2508,2127,0
38756.0,2044,2535,2149,0
38757.0,2045,2546,2161,0
38758.0,2049,2557,2153,0
38759.0,2035,2558,2132,0
38760.0,2026,2523,2086,0
38761.0,2024,2523,2087,0
38762.0,2025,2521,2089,0
38763.0,2024,2518,2090,0
38764.0,2022,2519,2089,0
38765.0,2019,2520,2086,0
38766.0,2015,2520,2084,0
38767.0,2026,2527,2082,0
38768.0,2035,2529,2088,0
38769.0,2035,2522,2087,0
38770.0,2033,2525,2087,0
38771.0,2029,2524,2077,0
38772.0,2035,2525,2065,0
38773.0,2023,2531,2065,0
38774.0,2021,2539,2073,0
38775.0,2015,2549,2079,0
38776.0,2009,2545,2078,0
38777.0,2003,2547,2077,0
38778.0,2003,2565,2079,0
38779.0,2003,2596,2066,0
38780.0,2000,2644,2072,0
38781.0,2013,2686,2068,0
38782.0,2024,2698,2052,0
38783.0,2033,2669,2032,0
38784.0,2048,2625,2049,0
38785.0,2045,2578,2095,0
38786.0,2071,2551,2129,0
38787.0,2108,2509,2160,0
38788.0,2135,2477,2126,0
38789.0,2155,2466,2102,0
38790.0,2161,2459,2092,0
38791.0,2162,2483,2076,0
38792.0,2127,2523,2073,0
38793.0,2108,2551,2083,0
38794.0,2095,2545,2081,0
38795.0,2093,2553,2079,0
38796.0,2084,2547,2074,0
38797.0,2078,2528,2082,0
38798.0,2085,2515,2093,0
38799.0,2083,2501,2095,0
38800.0,2077,2502,2076,0
38801.0,2064,2504,2062,0
38802.0,2053,2503,2069,0
38803.0,2065,2504,2071,0
38804.0,2071,2507,2050,0
38805.0,2083,2517,2033,0
38806.0,2073,2530,2018,0
38807.0,2067,2527,2020,0
38808.0,2051,2524,2035,0
38809.0,2041,2512,2055,0
38810.0,2049,2509,2076,0
38811.0,2055,2513,2074,0
38812.0,2063,2520,2057,0
38813.0,2060,2536,2045,0
38814.0,2063,2548,2040,0
38815.0,2069,2554,2044,0
38816.0,2064,2542,2043,0
38817.0,2070,2561,2048,0
38818.0,2071,2591,2047,0
38819.0,2058,2623,2012,0
38820.0,2032,2661,1998,0
38821.0,2006,2680,2014,0
38822.0,1997,2686,2068,0
38823.0,2016,2649,2150,0
38824.0,2062,2581,2181,0
38825.0,2097,2509,2150,0
38826.0,2114,2459,2119,0
38827.0,2110,2436,2079,0
38828.0,2115,2473,2066,0
38829.0,2095,2515,2098,0
38830.0,2084,2547,2128,0
38831.0,2054,2564,2152,0
38832.0,2037,2583,2138,0
38833.0,2060,2566,2098,0
38834.0,2076,2535,2066,0
38835.0,2079,2515,2069,0
38836.0,2084,2506,2084,0
38837.0,2074,2498,2112,0
38838.0,2066,2490,2132,0
38839.0,2064,2499,2103,0
38840.0,2069,2508,2070,0
38841.0,2064,2518,2063,0
38842.0,2045,2525,2068,0
38843.0,2044,2532,2079,0
38844.0,2030,2532,2083,0
38845.0,2032,2529,2084,0
38846.0,2041,2526,2072,0
38847.0,2038,2527,2062,0
38848.0,2026,2529,2047,0
38849.0,2035,2523,2066,0
38850.0,2032,2522,2074,0
38851.0,2038,2517,2076,0
38852.0,2033,2514,2068,0
38853.0,2041,2515,2081,0
38854.0,2040,2549,2082,0
38855.0,2026,2587,2078,0
38856.0,2015,2635,2074,0
38857.0,2026,2683,2063,0
38858.0,2034,2717,2038,0
38859.0,2039,2709,2007,0
38860.0,2049,2664,2028,0
38861.0,2052,2633,2090,0
38862.0,2040,2603,2156,0
38863.0,2083,2537,2162,0
38864.0,2120,2487,2124,0
38865.0,2139,2458,2114,0
38866.0,2146,2451,2096,0
38867.0,2149,2448,2085,0
38868.0,2128,2472,2081,0
38869.0,2110,2499,2084,0
38870.0,2093,2531,2097,0
38871.0,2072,2546,2100,0
38872.0,2067,2550,2105,0
38873.0,2059,2542,2088,0
38874.0,2068,2538,2082,0
38875.0,2065,2531,2086,0
38876.0,2066,2531,2087,0
38877.0,2086,2525,2070,0
38878.0,2078,2531,2064,0
38879.0,2075,2521,2061,0
38880.0,2079,2526,2063,0
38881.0,2079,2529,2053,0
38882.0,2063,2532,2053,0
38883.0,2048,2544,2048,0
38884.0,2055,2532,2044,0
38885.0,2054,2525,2038,0
38886.0,2045,2518,2046,0
38887.0,2051,2504,2065,0
38888.0,2048,2512,2077,0
38889.0,2056,2521,2071,0
38890.0,2055,2533,2067,0
38891.0,2046,2540,2070,0
38892.0,2054,2545,2065,0
38893.0,2068,2566,2074,0
38894.0,2081,2572,2065,0
38895.0,2089,2575,2007,0
38896.0,2063,2589,1964,0
38897.0,2028,2579,1997,0
38898.0,2001,2584,2059,0
38899.0,1975,2594,2102,0
38900.0,1964,2615,2122,0
38901.0,2004,2603,2133,0
38902.0,2022,2574,2108,0
38903.0,2053,2533,2071,0
38904.0,2094,2502,2053,0
38905.0,2114,2487,2050,0
38906.0,2115,2494,2038,0
38907.0,2096,2508,2049,0
38908.0,2069,2520,2078,0
38909.0,2040,2528,2101,0
38910.0,2034,2533,2121,0
38911.0,2036,2529,2129,0
38912.0,2041,2534,2116,0
38913.0,2036,2532,2108,0
38914.0,2042,2536,2113,0
38915.0,2043,2545,2122,0
38916.0,2044,2553,2110,0
38917.0,2055,2558,2101,0
38918.0,2056,2549,2094,0
38919.0,2036,2547,2101,0
38920.0,2025,2539,2131,0
38921.0,2033,2530,2123,0
38922.0,2039,2530,2095,0
38923.0,2046,2527,2087,0
38924.0,2037,2535,2075,0
38925.0,2043,2543,2082,0
38926.0,2030,2551,2086,0
38927.0,2026,2557,2090,0
38928.0,2036,2555,2095,0
38929.0,2033,2547,2107,0
38930.0,2026,2556,2095,0
38931.0,2025,2556,2095,0
38932.0,2024,2556,2093,0
38933.0,2025,2555,2093,0
38934.0,2027,2556,2093,0
38935.0,2033,2557,2088,0
38936.0,2050,2564,2090,0
38937.0,2043,2563,2091,0
38938.0,2046,2559,2088,0
38939.0,2054,2550,2075,0
38940.0,2061,2533,2073,0
38941.0,2058,2525,2077,0
38942.0,2061,2524,2082,0
38943.0,2069,2523,2097,0
38944.0,2067,2530,2092,0
38945.0,2064,2523,2086,0
38946.0,2067,2531,2074,0
38947.0,2072,2529,2075,0
38948.0,2063,2538,2078,0
38949.0,2062,2541,2083,0
38950.0,2063,2551,2078,0
38951.0,2059,2555,2073,0
38952.0,2060,2549,2079,0
38953.0,2062,2546,2067,0
38954.0,2059,2548,2072,0
38955.0,2058,2550,2073,0
38956.0,2064,2546,2072,0
38957.0,2070,2541,2071,0
38958.0,2070,2535,2063,0
38959.0,2067,2531,2063,0
38960.0,2070,2529,2069,0
38961.0,2069,2531,2064,0
38962.0,2065,2533,2065,0
38963.0,2059,2543,2067,0
38964.0,2051,2550,2072,0
38965.0,2061,2559,2082,0
38966.0,2049,2557,2078,0
38967.0,2057,2560,2078,0
38968.0,2060,2553,2070,0
38969.0,2055,2547,2073,0
38970.0,2051,2537,2067,0
38971.0,2060,2534,2074,0
38972.0,2055,2537,2070,0
38973.0,2046,2535,2067,0
38974.0,2046,2540,2064,0
38975.0,2051,2539,2067,0
38976.0,2051,2547,2066,0
38977.0,2049,2548,2066,0
38978.0,2053,2550,2068,0
38979.0,2050,2547,2068,0
38980.0,2060,2545,2071,0
38981.0,2059,2539,2075,0
38982.0,2054,2541,2071,0
38983.0,2057,2537,2072,0
38984.0,2047,2535,2067,0
38985.0,2049,2539,2066,0
38986.0,2046,2543,2070,0
38987.0,2042,2543,2071,0
38988.0,2051,2539,2070,0
38989.0,2054,2543,2068,0
38990.0,2051,2546,2069,0
38991.0,2045,2542,2076,0
38992.0,2046,2542,2069,0
38993.0,2057,2540,2065,0
38994.0,2055,2543,2067,0
38995.0,2049,2540,2072,0
38996.0,2047,2543,2071,0
38997.0,2052,2545,2068,0
38998.0,2053,2546,2068,0
38999.0,2049,2541,2073,0
39000.0,2053,2546,2071,0
39001.0,2054,2547,2075,0
39002.0,2049,2544,2072,0
39003.0,2046,2543,2069,0
39004.0,2049,2537,2070,0
39005.0,2053,2541,2076,0
39006.0,2051,2542,2076,0
39007.0,2048,2547,2072,0
39008.0,2055,2542,2077,0
39009.0,2044,2539,2071,0
39010.0,2044,2547,2077,0
39011.0,2050,2542,2072,0
39012.0,2043,2541,2072,0
39013.0,2050,2543,2069,0
39014.0,2053,2539,2076,0
39015.0,2047,2543,2076,0
39016.0,2051,2544,2077,0
39017.0,2049,2538,2071,0
39018.0,2041,2543,2071,0
39019.0,2051,2542,2077,0
39020.0,2050,2545,2074,0
39021.0,2047,2546,2075,0
39022.0,2048,2547,2075,0
39023.0,2054,2545,2072,0
39024.0,2046,2540,2073,0
39025.0,2049,2542,2069,0
39026.0,2039,2540,2072,0
39027.0,2044,2543,2072,0
39028.0,2052,2551,2070,0
39029.0,2048,2546,2073,0
39030.0,2047,2543,2080,0
39031.0,2047,2539,2077,0
39032.0,2048,2536,2072,0
39033.0,2049,2536,2075,0
39034.0,2048,2542,2075,0
39035.0,2046,2539,2070,0
39036.0,2041,2543,2075,0
39037.0,2049,2542,2074,0
39038.0,2045,2547,2072,0
39039.0,2039,2540,2075,0
39040.0,2049,2546,2072,0
39041.0,2044,2544,2073,0
39042.0,2049,2539,2074,0
39043.0,2048,2543,2074,0
39044.0,2049,2544,2076,0
39045.0,2049,2543,2076,0
39046.0,2049,2540,2072,0
39047.0,2047,2539,2073,0
39048.0,2046,2541,2075,0
39049.0,2050,2543,2079,0
39050.0,2050,2540,2080,0
39051.0,2053,2535,2086,0
39052.0,2054,2542,2084,0
39053.0,2051,2543,2075,0
39054.0,2049,2540,2082,0
39055.0,2048,2546,2084,0
39056.0,2051,2553,2081,0
39057.0,2043,2551,2074,0
39058.0,2065,2544,2074,0
39059.0,2085,2539,2073,0
39060.0,2066,2542,2063,0
39061.0,2052,2541,2068,0
39062.0,2048,2542,2086,0
39063.0,2044,2534,2102,0
39064.0,2038,2543,2095,0
39065.0,2067,2545,2084,0
39066.0,2043,2552,2070,0
39067.0,2050,2548,2066,0
39068.0,2055,2542,2095,0
39069.0,2061,2538,2099,0
39070.0,2058,2529,2084,0
39071.0,2071,2529,2086,0
39072.0,2074,2525,2094,0
39073.0,2084,2526,2094,0
39074.0,2091,2536,2096,0
39075.0,2095,2530,2094,0
39076.0,2095,2532,2096,0
39077.0,2133,2544,2099,0
39078.0,2139,2556,2092,0
39079.0,2138,2573,2065,0
39080.0,2130,2588,2044,0
39081.0,2137,2577,2051,0
39082.0,2152,2539,2068,0
39083.0,2174,2509,2077,0
39084.0,2170,2521,2036,0
39085.0,2153,2548,2013,0
39086.0,2136,2540,2039,0
39087.0,2102,2518,2072,0
39088.0,2089,2532,2068,0
39089.0,2082,2541,2067,0
39090.0,2071,2548,2082,0
39091.0,2058,2554,2105,0
39092.0,2081,2551,2102,0
39093.0,2113,2545,2076,0
39094.0,2135,2534,2071,0
39095.0,2133,2537,2064,0
39096.0,2152,2544,2028,0
39097.0,2166,2524,2038,0
39098.0,2182,2509,2086,0
39099.0,2195,2538,2072,0
39100.0,2147,2511,2080,0
39101.0,2149,2511,2082,0
39102.0,2154,2519,2085,0
39103.0,2147,2529,2077,0
39104.0,2149,2527,2078,0
39105.0,2159,2527,2052,0
39106.0,2161,2539,2034,0
39107.0,2148,2534,2052,0
39108.0,2152,2544,2039,0
39109.0,2149,2547,2051,0
39110.0,2147,2523,2079,0
39111.0,2147,2505,2093,0
39112.0,2148,2517,2086,0
39113.0,2151,2535,2064,0
39114.0,2155,2538,2039,0
39115.0,2159,2534,2042,0
39116.0,2153,2543,2057,0
39117.0,2155,2534,2061,0
39118.0,2159,2535,2056,0
39119.0,2148,2522,2069,0
39120.0,2157,2533,2061,0
39121.0,2151,2546,2040,0
39122.0,2145,2549,2024,0
39123.0,2140,2545,2044,0
39124.0,2133,2532,2070,0
39125.0,2133,2527,2077,0
39126.0,2135,2523,2097,0
39127.0,2133,2533,2087,0
39128.0,2141,2543,2059,0
39129.0,2145,2544,2038,0
39130.0,2153,2545,2036,0
39131.0,2149,2554,2050,0
39132.0,2140,2538,2061,0
39133.0,2143,2547,2072,0
39134.0,2119,2540,2080,0
39135.0,2117,2532,2090,0
39136.0,2125,2532,2083,0
39137.0,2147,2532,2086,0
39138.0,2154,2519,2095,0
39139.0,2156,2526,2082,0
39140.0,2143,2532,2068,0
39141.0,2144,2531,2073,0
39142.0,2137,2549,2074,0
39143.0,2120,2549,2076,0
39144.0,2111,2527,2073,0
39145.0,2107,2521,2082,0
39146.0,2130,2549,2079,0
39147.0,2153,2573,2072,0
39148.0,2158,2562,2064,0
39149.0,2100,2541,2065,0
39150.0,2083,2529,2070,0
39151.0,2100,2525,2103,0
39152.0,2114,2551,2103,0
39153.0,2124,2572,2089,0
39154.0,2091,2576,2068,0
39155.0,2042,2557,2075,0
39156.0,2056,2528,2127,0
39157.0,2103,2527,2117,0
39158.0,2110,2509,2109,0
39159.0,2141,2509,2117,0
39160.0,2177,2530,2106,0
39161.0,2171,2553,2085,0
39162.0,2155,2565,2038,0
39163.0,2123,2561,2013,0
39164.0,2066,2556,2056,0
39165.0,2020,2525,2129,0
39166.0,2051,2521,2154,0
39167.0,2055,2539,2132,0
39168.0,2065,2537,2112,0
39169.0,2096,2528,2091,0
39170.0,2087,2544,2083,0
39171.0,2077,2530,2103,0
39172.0,2062,2523,2106,0
39173.0,2055,2521,2105,0
39174.0,2072,2529,2112,0
39175.0,2079,2537,2107,0
39176.0,2088,2538,2087,0
39177.0,2071,2542,2074,0
39178.0,2082,2548,2063,0
39179.0,2088,2561,2072,0
39180.0,2082,2563,2079,0
39181.0,2049,2555,2104,0
39182.0,2037,2561,2138,0
39183.0,2087,2564,2132,0
39184.0,2112,2570,2085,0
39185.0,2083,2551,2079,0
39186.0,2057,2534,2117,0
39187.0,2070,2517,2114,0
39188.0,2083,2523,2106,0
39189.0,2076,2535,2119,0
39190.0,2090,2521,2125,0
39191.0,2082,2530,2112,0
39192.0,2077,2529,2109,0
39193.0,2056,2519,2111,0
39194.0,2047,2523,2102,0
39195.0,2050,2534,2106,0
39196.0,2034,2527,2106,0
39197.0,2027,2507,2099,0
39198.0,2055,2524,2088,0
39199.0,2037,2567,2090,0
39200.0,2008,2559,2072,0
39201.0,1984,2567,2059,0
39202.0,1955,2512,2066,0
39203.0,1990,2514,2067,0
39204.0,2043,2553,2083,0
39205.0,2048,2577,2083,0
39206.0,2027,2568,2073,0
39207.0,2044,2552,2067,0
39208.0,2048,2553,2063,0
39209.0,2050,2549,2053,0
39210.0,2053,2551,2048,0
39211.0,2046,2566,2058,0
39212.0,2065,2580,2072,0
39213.0,2070,2583,2094,0
39214.0,2043,2565,2101,0
39215.0,2025,2554,2103,0
39216.0,2020,2559,2089,0
39217.0,2072,2500,2073,0
39218.0,2073,2466,2072,0
39219.0,2037,2466,2084,0
39220.0,2030,2486,2093,0
39221.0,2066,2548,2102,0
39222.0,2094,2581,2090,0
39223.0,2083,2587,2054,0
39224.0,2070,2608,2012,0
39225.0,2091,2607,2004,0
39226.0,2084,2540,2027,0
39227.0,2055,2514,2050,0
39228.0,2048,2524,2051,0
39229.0,2067,2521,2067,0
39230.0,2081,2495,2090,0
39231.0,2074,2523,2102,0
39232.0,2074,2550,2105,0
39233.0,2081,2554,2088,0
39234.0,2076,2554,2071,0
39235.0,2079,2550,2069,0
39236.0,2083,2543,2079,0
39237.0,2091,2550,2076,0
39238.0,2093,2552,2053,0
39239.0,2101,2546,2051,0
39240.0,2085,2533,2069,0
39241.0,2083,2522,2085,0
39242.0,2113,2541,2067,0
39243.0,2120,2548,1988,0
39244.0,2030,2578,2036,0
39245.0,2108,2586,2042,0
39246.0,2206,2559,1982,0
39247.0,2119,2524,2041,0
39248.0,2096,2498,1940,0
39249.0,2059,2598,2104,0
39250.0,2015,2619,2195,0
39251.0,1996,2464,2155,0
39252.0,2103,2478,2087,0
39253.0,2148,2567,2039,0
39254.0,2106,2577,1915,0
39255.0,2069,2527,1969,0
39256.0,2045,2545,2004,0
39257.0,2092,2527,2043,0
39258.0,2095,2534,2059,0
39259.0,2106,2532,2055,0
39260.0,2095,2535,2027,0
39261.0,2121,2529,2013,0
39262.0,2131,2540,2016,0
39263.0,2128,2528,2018,0
39264.0,2174,2561,2027,0
39265.0,2146,2554,2012,0
39266.0,2152,2513,2019,0
39267.0,2159,2533,2041,0
39268.0,2151,2534,2039,0
39269.0,2145,2528,2028,0
39270.0,2134,2516,2030,0
39271.0,2136,2517,2031,0
39272.0,2138,2519,2031,0
39273.0,2137,2522,2031,0
39274.0,2139,2523,2030,0
39275.0,2142,2523,2033,0
39276.0,2141,2522,2034,0
39277.0,2124,2485,2026,0
39278.0,2136,2501,2019,0
39279.0,2136,2522,2032,0
39280.0,2125,2523,2049,0
39281.0,2090,2543,2078,0
39282.0,2085,2553,2085,0
39283.0,2030,2507,2068,0
39284.0,2008,2546,2062,0
39285.0,2004,2581,2070,0
39286.0,2070,2636,2068,0
39287.0,2075,2598,2047,0
39288.0,2094,2589,1981,0
39289.0,2099,2551,1975,0
39290.0,2077,2562,2029,0
39291.0,2074,2557,2089,0
39292.0,2089,2564,2097,0
39293.0,2103,2554,2063,0
39294.0,2115,2576,2068,0
39295.0,2045,2555,2034,0
39296.0,2047,2525,2037,0
39297.0,2025,2505,2039,0
39298.0,2028,2517,2052,0
39299.0,2041,2491,2067,0
39300.0,2030,2515,2079,0
39301.0,2035,2560,2063,0
39302.0,2016,2589,2024,0
39303.0,2019,2621,1996,0
39304.0,2037,2603,2053,0
39305.0,2039,2559,2099,0
39306.0,2057,2510,2093,0
39307.0,2067,2515,2100,0
39308.0,2076,2534,2116,0
39309.0,2071,2506,2084,0
39310.0,2078,2546,2050,0
39311.0,2111,2517,2031,0
39312.0,2135,2539,2014,0
39313.0,2122,2552,2005,0
39314.0,2073,2553,2020,0
39315.0,2045,2527,2069,0
39316.0,2015,2533,2097,0
39317.0,2033,2541,2107,0
39318.0,2109,2508,2104,0
39319.0,2094,2512,2084,0
39320.0,2115,2533,2038,0
39321.0,2114,2589,2051,0
39322.0,2107,2547,2079,0
39323.0,2108,2564,2095,0
39324.0,2090,2568,2095,0
39325.0,2103,2548,2095,0
39326.0,2115,2526,2090,0
39327.0,2147,2547,2085,0
39328.0,2100,2520,2093,0
39329.0,2181,2514,2026,0
39330.0,2139,2599,2018,0
39331.0,2114,2587,2000,0
39332.0,2039,2526,2014,0
39333.0,2072,2494,2075,0
39334.0,2088,2545,2095,0
39335.0,2068,2575,2072,0
39336.0,2074,2560,2074,0
39337.0,2086,2510,2075,0
39338.0,2081,2477,2058,0
39339.0,2097,2476,2043,0
39340.0,2126,2541,2020,0
39341.0,2109,2550,2011,0
39342.0,2104,2525,2021,0
39343.0,2106,2539,2012,0
39344.0,2117,2569,2017,0
39345.0,2119,2567,2046,0
39346.0,2126,2564,2077,0
39347.0,2118,2559,2106,0
39348.0,2093,2560,2081,0
39349.0,2088,2553,2045,0
39350.0,2102,2528,2075,0
39351.0,2117,2531,2080,0
39352.0,2105,2537,2086,0
39353.0,2107,2551,2065,0
39354.0,2074,2551,2054,0
39355.0,2083,2540,2080,0
39356.0,2081,2533,2079,0
39357.0,2096,2551,2070,0
39358.0,2099,2538,2107,0
39359.0,2094,2545,2173,0
39360.0,2063,2544,2141,0
39361.0,2106,2546,2042,0
39362.0,2114,2541,2034,0
39363.0,2081,2535,2060,0
39364.0,2086,2505,2114,0
39365.0,2059,2510,2101,0
39366.0,2049,2545,2042,0
39367.0,2057,2555,2014,0
39368.0,2069,2553,1976,0
39369.0,2086,2575,1989,0
39370.0,2107,2573,2007,0
39371.0,2087,2545,2023,0
39372.0,2114,2606,2038,0
39373.0,2075,2601,2036,0
39374.0,2091,2590,2082,0
39375.0,2054,2552,2085,0
39376.0,2055,2530,2103,0
39377.0,2084,2511,2104,0
39378.0,2119,2507,2101,0
39379.0,2107,2511,2092,0
39380.0,2102,2541,1999,0
39381.0,2124,2525,1943,0
39382.0,2117,2532,1928,0
39383.0,2104,2541,1945,0
39384.0,2093,2525,1965,0
39385.0,2099,2541,1980,0
39386.0,2091,2541,1988,0
39387.0,2082,2568,2016,0
39388.0,2083,2584,2030,0
39389.0,2084,2574,2043,0
39390.0,2101,2563,2029,0
39391.0,2107,2536,2019,0
39392.0,2122,2511,1982,0
39393.0,2083,2555,1932,0
39394.0,2121,2545,1993,0
39395.0,2106,2568,2049,0
39396.0,2089,2556,2049,0
39397.0,2042,2536,2050,0
39398.0,2081,2531,2057,0
39399.0,2073,2538,2058,0
39400.0,2074,2545,2083,0
39401.0,2076,2535,2096,0
39402.0,2081,2536,2081,0
39403.0,2083,2531,2063,0
39404.0,2089,2526,2060,0
39405.0,2089,2532,2056,0
39406.0,2084,2533,2053,0
39407.0,2082,2517,2053,0
39408.0,2085,2536,2060,0
39409.0,2091,2541,2067,0
166740.0,2065,2534,2060,0
