timestamp,accX,accY,accZ,class
44150.0,1990,2283,1760,2
44151.0,1996,2285,1756,2
44152.0,1989,2281,1755,2
44153.0,1989,2281,1758,2
44154.0,1990,2285,1758,2
44155.0,1983,2287,1760,2
44156.0,1988,2283,1756,2
44157.0,1988,2284,1761,2
44158.0,1991,2286,1748,2
44159.0,1994,2281,1754,2
44160.0,1987,2285,1760,2
44161.0,1992,2281,1757,2
44162.0,1989,2281,1758,2
44163.0,1994,2285,1758,2
44164.0,1991,2286,1753,2
44165.0,1988,2279,1754,2
44166.0,1990,2283,1758,2
44167.0,1989,2284,1759,2
44168.0,1988,2287,1757,2
44169.0,1986,2285,1756,2
44170.0,1989,2288,1756,2
44171.0,1992,2283,1757,2
44172.0,1992,2282,1762,2
44173.0,1991,2287,1761,2
44174.0,1985,2282,1756,2
44175.0,1987,2287,1755,2
44176.0,1992,2281,1757,2
44177.0,1992,2284,1759,2
44178.0,1987,2280,1754,2
44179.0,1990,2286,1756,2
44180.0,1990,2283,1753,2
44181.0,1990,2286,1762,2
44182.0,1987,2282,1756,2
44183.0,1989,2283,1757,2
44184.0,1996,2285,1753,2
44185.0,1989,2288,1752,2
44186.0,1985,2282,1760,2
44187.0,1988,2282,1757,2
44188.0,1989,2282,1756,2
44189.0,1995,2284,1757,2
44190.0,1991,2284,1755,2
44191.0,1988,2284,1758,2
44192.0,1991,2278,1758,2
44193.0,1994,2278,1754,2
44194.0,1992,2283,1755,2
44195.0,1989,2277,1758,2
44196.0,1991,2287,1754,2
44197.0,1989,2281,1754,2
44198.0,1988,2281,1755,2
44199.0,1994,2286,1760,2
44200.0,1986,2279,1763,2
44201.0,1989,2280,1763,2
44202.0,1989,2278,1753,2
44203.0,1985,2283,1758,2
44204.0,1989,2285,1754,2
44205.0,1988,2278,1757,2
44206.0,1985,2283,1753,2
44207.0,1989,2280,1759,2
44208.0,1990,2283,1752,2
44209.0,1987,2275,1759,2
44210.0,1993,2284,1758,2
44211.0,1995,2278,1757,2
44212.0,1990,2283,1758,2
44213.0,1989,2283,1757,2
44214.0,1991,2283,1759,2
44215.0,1990,2280,1751,2
44216.0,1985,2283,1756,2
44217.0,1988,2282,1758,2
44218.0,1986,2284,1761,2
44219.0,1998,2280,1760,2
44220.0,1989,2287,1756,2
44221.0,1991,2282,1760,2
44222.0,1991,2282,1761,2
44223.0,1989,2284,1756,2
44224.0,1987,2285,1755,2
44225.0,1986,2281,1753,2
44226.0,1990,2284,1759,2
44227.0,1981,2281,1755,2
44228.0,1988,2282,1755,2
44229.0,1995,2282,1757,2
44230.0,1995,2283,1755,2
44231.0,1990,2283,1757,2
44232.0,1993,2279,1752,2
44233.0,1989,2283,1759,2
44234.0,1990,2280,1759,2
44235.0,1989,2280,1754,2
44236.0,1991,2279,1756,2
44237.0,1990,2281,1756,2
44238.0,1987,2281,1760,2
44239.0,1986,2279,1755,2
44240.0,1993,2281,1754,2
44241.0,1986,2280,1760,2
44242.0,1983,2280,1751,2
44243.0,1987,2279,1753,2
44244.0,1987,2279,1758,2
44245.0,1992,2284,1757,2
44246.0,1993,2279,1754,2
44247.0,1989,2284,1757,2
44248.0,1989,2281,1759,2
44249.0,1994,2284,1753,2
44250.0,1989,2282,1753,2
44251.0,1991,2283,1756,2
44252.0,1992,2285,1752,2
44253.0,1985,2287,1758,2
44254.0,1989,2285,1750,2
44255.0,1986,2281,1754,2
44256.0,1994,2281,1757,2
44257.0,1990,2282,1755,2
44258.0,1991,2287,1756,2
44259.0,1986,2279,1756,2
44260.0,1989,2283,1758,2
44261.0,1987,2279,1753,2
44262.0,1987,2283,1754,2
44263.0,1986,2283,1759,2
44264.0,1988,2285,1762,2
44265.0,1987,2277,1758,2
44266.0,1991,2280,1759,2
44267.0,1985,2282,1754,2
44268.0,1985,2284,1760,2
44269.0,1993,2279,1753,2
44270.0,1982,2284,1749,2
44271.0,1987,2285,1755,2
44272.0,1989,2281,1755,2
44273.0,1991,2284,1757,2
44274.0,1991,2284,1755,2
44275.0,1994,2282,1758,2
44276.0,1993,2285,1760,2
44277.0,1987,2283,1757,2
44278.0,1986,2282,1754,2
44279.0,1990,2285,1762,2
44280.0,1992,2284,1753,2
44281.0,1985,2279,1755,2
44282.0,1993,2283,1756,2
44283.0,1990,2282,1749,2
44284.0,1991,2276,1753,2
44285.0,1991,2284,1758,2
44286.0,1989,2282,1759,2
44287.0,1989,2277,1760,2
44288.0,1990,2278,1762,2
44289.0,1990,2289,1756,2
44290.0,1994,2283,1752,2
44291.0,1989,2281,1760,2
44292.0,1992,2285,1758,2
44293.0,1992,2280,1757,2
44294.0,1987,2286,1760,2
44295.0,1990,2285,1756,2
44296.0,1990,2280,1758,2
44297.0,1991,2285,1752,2
44298.0,1987,2285,1753,2
44299.0,1988,2289,1749,2
44300.0,1989,2281,1755,2
44301.0,1988,2282,1756,2
44302.0,1987,2283,1752,2
44303.0,1987,2278,1758,2
44304.0,1991,2284,1755,2
44305.0,1990,2283,1758,2
44306.0,1989,2287,1754,2
44307.0,1988,2278,1755,2
44308.0,1989,2280,1758,2
44309.0,1987,2286,1756,2
44310.0,1990,2290,1760,2
44311.0,1988,2284,1760,2
44312.0,1988,2283,1759,2
44313.0,1989,2278,1757,2
44314.0,1992,2279,1752,2
44315.0,1991,2282,1754,2
44316.0,1991,2278,1753,2
44317.0,1989,2285,1749,2
44318.0,1991,2279,1752,2
44319.0,1985,2282,1750,2
44320.0,1991,2277,1759,2
44321.0,1990,2281,1756,2
44322.0,1986,2285,1755,2
44323.0,1988,2285,1754,2
44324.0,1986,2282,1755,2
44325.0,1988,2281,1756,2
44326.0,1985,2280,1755,2
44327.0,1987,2278,1756,2
44328.0,1991,2283,1749,2
44329.0,1987,2283,1760,2
44330.0,1988,2281,1757,2
44331.0,1986,2281,1757,2
44332.0,1987,2284,1752,2
44333.0,1989,2282,1752,2
44334.0,1986,2277,1759,2
44335.0,1987,2282,1755,2
44336.0,1986,2280,1757,2
44337.0,1987,2281,1751,2
44338.0,1987,2279,1755,2
44339.0,1981,2278,1752,2
44340.0,1987,2282,1753,2
44341.0,1992,2279,1752,2
44342.0,1991,2278,1753,2
44343.0,1993,2283,1754,2
44344.0,1987,2278,1754,2
44345.0,1989,2283,1752,2
44346.0,1985,2274,1758,2
44347.0,1984,2283,1757,2
44348.0,1989,2283,1758,2
44349.0,1984,2283,1754,2
44350.0,1991,2276,1760,2
44351.0,1993,2279,1751,2
44352.0,1989,2280,1753,2
44353.0,1989,2284,1755,2
44354.0,1991,2285,1758,2
44355.0,1986,2280,1755,2
44356.0,1991,2279,1754,2
44357.0,1987,2279,1755,2
44358.0,1992,2282,1752,2
44359.0,1991,2280,1752,2
44360.0,1989,2278,1754,2
44361.0,1990,2281,1758,2
44362.0,1990,2282,1749,2
44363.0,1991,2285,1756,2
44364.0,1988,2280,1756,2
44365.0,1985,2281,1751,2
44366.0,1986,2277,1754,2
44367.0,1992,2278,1751,2
44368.0,1982,2284,1753,2
44369.0,1989,2279,1754,2
44370.0,1986,2273,1754,2
44371.0,1987,2274,1756,2
44372.0,1989,2277,1756,2
44373.0,1986,2281,1754,2
44374.0,1991,2279,1755,2
44375.0,1990,2282,1754,2
44376.0,1986,2281,1754,2
44377.0,1990,2278,1755,2
44378.0,1987,2282,1751,2
44379.0,1991,2287,1750,2
44380.0,1987,2279,1757,2
44381.0,1990,2282,1751,2
44382.0,1989,2279,1755,2
44383.0,1990,2277,1754,2
44384.0,1987,2277,1761,2
44385.0,1990,2283,1758,2
44386.0,1995,2280,1753,2
44387.0,1990,2279,1755,2
44388.0,1993,2278,1759,2
44389.0,1989,2278,1750,2
44390.0,1989,2279,1750,2
44391.0,1990,2282,1759,2
44392.0,1994,2279,1753,2
44393.0,1991,2280,1755,2
44394.0,1992,2281,1752,2
44395.0,1989,2283,1757,2
44396.0,1986,2277,1758,2
44397.0,1992,2283,1757,2
44398.0,1988,2279,1757,2
44399.0,1988,2278,1754,2
44400.0,1991,2278,1758,2
44401.0,1985,2283,1757,2
44402.0,1988,2278,1754,2
44403.0,1986,2276,1755,2
44404.0,1988,2280,1756,2
44405.0,1990,2279,1754,2
44406.0,1995,2282,1759,2
44407.0,1990,2281,1756,2
44408.0,1986,2281,1753,2
44409.0,1995,2287,1755,2
44410.0,1992,2283,1761,2
44411.0,1992,2283,1759,2
44412.0,1991,2282,1758,2
44413.0,1992,2281,1753,2
44414.0,1991,2280,1758,2
44415.0,1988,2281,1757,2
44416.0,1991,2285,1759,2
44417.0,1990,2281,1755,2
44418.0,1986,2279,1762,2
44419.0,1987,2280,1754,2
44420.0,1989,2280,1753,2
44421.0,1987,2282,1753,2
44422.0,1986,2282,1755,2
44423.0,1994,2283,1757,2
44424.0,1985,2282,1755,2
44425.0,1992,2284,1756,2
44426.0,1987,2282,1753,2
44427.0,1991,2282,1752,2
44428.0,1993,2285,1753,2
44429.0,1990,2281,1759,2
44430.0,1995,2282,1758,2
44431.0,1993,2284,1759,2
44432.0,1988,2281,1757,2
44433.0,1989,2278,1751,2
44434.0,1983,2280,1753,2
44435.0,1989,2283,1756,2
44436.0,1987,2279,1755,2
44437.0,1991,2283,1753,2
44438.0,1988,2283,1753,2
44439.0,1992,2284,1757,2
44440.0,1988,2277,1754,2
44441.0,1990,2285,1758,2
44442.0,1993,2279,1757,2
44443.0,1988,2286,1765,2
44444.0,1987,2280,1757,2
44445.0,1989,2285,1759,2
44446.0,1987,2281,1758,2
44447.0,1987,2280,1753,2
44448.0,1986,2282,1751,2
44449.0,1990,2280,1755,2
44450.0,1986,2280,1749,2
44451.0,1987,2285,1752,2
44452.0,1988,2282,1751,2
44453.0,1982,2285,1755,2
44454.0,1991,2278,1754,2
44455.0,1990,2281,1756,2
44456.0,1992,2279,1756,2
44457.0,1990,2280,1749,2
44458.0,1990,2275,1754,2
44459.0,1989,2277,1755,2
44460.0,1982,2281,1756,2
44461.0,1989,2276,1758,2
44462.0,1985,2280,1753,2
44463.0,1987,2280,1755,2
44464.0,1990,2283,1752,2
44465.0,1990,2279,1755,2
44466.0,1991,2284,1758,2
44467.0,1987,2281,1751,2
44468.0,1987,2274,1750,2
44469.0,1989,2281,1752,2
44470.0,1990,2281,1758,2
44471.0,1990,2277,1751,2
44472.0,1987,2277,1756,2
44473.0,1986,2277,1753,2
44474.0,1985,2280,1753,2
44475.0,1988,2282,1753,2
44476.0,1986,2283,1755,2
44477.0,1988,2283,1757,2
44478.0,1985,2281,1756,2
44479.0,1985,2281,1754,2
44480.0,1986,2280,1755,2
44481.0,1992,2280,1756,2
44482.0,1989,2281,1749,2
44483.0,1990,2279,1753,2
44484.0,1987,2283,1755,2
44485.0,1988,2276,1754,2
44486.0,1986,2278,1752,2
44487.0,1992,2274,1754,2
44488.0,1991,2279,1756,2
44489.0,1992,2282,1754,2
44490.0,1985,2278,1751,2
44491.0,1988,2277,1755,2
44492.0,1987,2281,1753,2
44493.0,1983,2285,1756,2
44494.0,1989,2278,1754,2
44495.0,1985,2281,1754,2
44496.0,1987,2283,1758,2
44497.0,1990,2279,1749,2
44498.0,1987,2284,1756,2
44499.0,1989,2283,1756,2
44500.0,1995,2279,1757,2
44501.0,1986,2280,1756,2
44502.0,1990,2286,1757,2
44503.0,1983,2283,1757,2
44504.0,1986,2280,1756,2
44505.0,1988,2279,1750,2
44506.0,1988,2279,1759,2
44507.0,1986,2280,1753,2
44508.0,1994,2285,1754,2
44509.0,1989,2281,1755,2
44510.0,1989,2282,1758,2
44511.0,1991,2283,1753,2
44512.0,1986,2278,1752,2
44513.0,1991,2286,1759,2
44514.0,1994,2284,1753,2
44515.0,1990,2283,1755,2
44516.0,1987,2281,1757,2
44517.0,1985,2278,1754,2
44518.0,1987,2283,1752,2
44519.0,1990,2283,1758,2
44520.0,1991,2276,1754,2
44521.0,1996,2280,1752,2
44522.0,1985,2279,1753,2
44523.0,1992,2277,1753,2
44524.0,1990,2281,1754,2
44525.0,1992,2278,1754,2
44526.0,1989,2274,1752,2
44527.0,1989,2283,1760,2
44528.0,1990,2282,1760,2
44529.0,1990,2281,1753,2
44530.0,1989,2284,1761,2
44531.0,1984,2283,1754,2
44532.0,1987,2282,1750,2
44533.0,1985,2278,1751,2
44534.0,1989,2276,1754,2
44535.0,1988,2282,1755,2
44536.0,1987,2277,1754,2
44537.0,1992,2279,1756,2
44538.0,1991,2282,1761,2
44539.0,1989,2281,1755,2
44540.0,1989,2280,1757,2
44541.0,1990,2281,1758,2
44542.0,1993,2280,1752,2
44543.0,1985,2283,1746,2
44544.0,1989,2279,1754,2
44545.0,1991,2282,1755,2
44546.0,1985,2283,1753,2
44547.0,1985,2278,1752,2
44548.0,1991,2281,1750,2
44549.0,1991,2286,1756,2
44550.0,1989,2283,1754,2
44551.0,1983,2281,1756,2
44552.0,1986,2283,1759,2
44553.0,1992,2283,1755,2
44554.0,1989,2279,1756,2
44555.0,1987,2275,1754,2
44556.0,1987,2284,1749,2
44557.0,1990,2284,1755,2
44558.0,1995,2281,1751,2
44559.0,1990,2278,1753,2
44560.0,1988,2276,1756,2
44561.0,1991,2279,1752,2
44562.0,1987,2279,1752,2
44563.0,1992,2283,1757,2
44564.0,1988,2281,1754,2
44565.0,1991,2280,1758,2
44566.0,1986,2285,1757,2
44567.0,1989,2282,1759,2
44568.0,1990,2282,1753,2
44569.0,1986,2279,1758,2
44570.0,1991,2278,1754,2
44571.0,1987,2278,1759,2
44572.0,1991,2285,1755,2
44573.0,1989,2281,1753,2
44574.0,1986,2282,1760,2
44575.0,1982,2286,1751,2
44576.0,1990,2283,1757,2
44577.0,1995,2281,1759,2
44578.0,1988,2287,1752,2
44579.0,1985,2283,1755,2
44580.0,1987,2282,1753,2
44581.0,1987,2279,1755,2
44582.0,1984,2279,1752,2
44583.0,1985,2283,1755,2
44584.0,1990,2282,1755,2
44585.0,1989,2285,1755,2
44586.0,1983,2286,1756,2
44587.0,1988,2284,1759,2
44588.0,1990,2278,1755,2
44589.0,1987,2282,1758,2
44590.0,1987,2284,1758,2
44591.0,1985,2281,1756,2
44592.0,1989,2281,1755,2
44593.0,1987,2282,1754,2
44594.0,1989,2282,1756,2
44595.0,1989,2279,1756,2
44596.0,1994,2279,1754,2
44597.0,1992,2287,1755,2
44598.0,1991,2281,1755,2
44599.0,1988,2279,1757,2
44600.0,1992,2277,1759,2
44601.0,1987,2279,1756,2
44602.0,1985,2280,1756,2
44603.0,1987,2281,1758,2
44604.0,1987,2282,1756,2
44605.0,1988,2282,1747,2
44606.0,1986,2278,1757,2
44607.0,1989,2280,1751,2
44608.0,1990,2281,1754,2
44609.0,1990,2279,1758,2
44610.0,1986,2282,1754,2
44611.0,1986,2281,1756,2
44612.0,1988,2277,1752,2
44613.0,1986,2284,1754,2
44614.0,1990,2283,1752,2
44615.0,1986,2282,1753,2
44616.0,1990,2282,1751,2
44617.0,1989,2277,1758,2
44618.0,1991,2279,1754,2
44619.0,1991,2281,1754,2
44620.0,1992,2281,1757,2
44621.0,1989,2282,1749,2
44622.0,1989,2281,1752,2
44623.0,1992,2285,1753,2
44624.0,1987,2286,1755,2
44625.0,1988,2282,1750,2
44626.0,1991,2286,1755,2
44627.0,1986,2283,1757,2
44628.0,1990,2278,1757,2
44629.0,1987,2279,1755,2
44630.0,1990,2279,1759,2
44631.0,1983,2278,1756,2
44632.0,1989,2279,1755,2
44633.0,1990,2279,1756,2
44634.0,1993,2277,1755,2
44635.0,1981,2279,1752,2
44636.0,1987,2275,1751,2
44637.0,1987,2279,1753,2
44638.0,1984,2276,1756,2
44639.0,1989,2277,1751,2
44640.0,1994,2282,1751,2
44641.0,1989,2277,1754,2
44642.0,1990,2282,1756,2
44643.0,1991,2282,1761,2
44644.0,1991,2281,1755,2
44645.0,1990,2270,1754,2
44646.0,1989,2276,1752,2
44647.0,1987,2277,1751,2
44648.0,1988,2278,1754,2
44649.0,1987,2281,1751,2
44650.0,1985,2285,1753,2
44651.0,1985,2281,1758,2
44652.0,1990,2278,1753,2
44653.0,1987,2281,1752,2
44654.0,1989,2281,1753,2
44655.0,1990,2281,1749,2
44656.0,1989,2283,1752,2
44657.0,1991,2279,1753,2
44658.0,1990,2278,1755,2
44659.0,1988,2275,1756,2
44660.0,1995,2279,1748,2
44661.0,1990,2280,1755,2
44662.0,1987,2275,1751,2
44663.0,1994,2282,1754,2
44664.0,1991,2283,1752,2
44665.0,1987,2278,1751,2
44666.0,1989,2283,1753,2
44667.0,1986,2275,1752,2
44668.0,1990,2277,1755,2
44669.0,1987,2280,1756,2
44670.0,1989,2278,1757,2
44671.0,1990,2277,1754,2
44672.0,1988,2279,1750,2
44673.0,1988,2277,1755,2
44674.0,1994,2277,1751,2
44675.0,1991,2280,1751,2
44676.0,1987,2279,1756,2
44677.0,1993,2278,1752,2
44678.0,1989,2279,1751,2
44679.0,1991,2279,1756,2
44680.0,1987,2277,1754,2
44681.0,1989,2279,1752,2
44682.0,1988,2278,1755,2
44683.0,1989,2276,1753,2
44684.0,1986,2284,1759,2
44685.0,1985,2281,1751,2
44686.0,1987,2283,1752,2
44687.0,1987,2279,1752,2
44688.0,1991,2279,1752,2
44689.0,1987,2281,1751,2
44690.0,1987,2281,1752,2
44691.0,1981,2279,1759,2
44692.0,1986,2279,1761,2
44693.0,1995,2279,1753,2
44694.0,1989,2278,1752,2
44695.0,1989,2279,1759,2
44696.0,1988,2285,1756,2
44697.0,1990,2279,1756,2
44698.0,1991,2282,1753,2
44699.0,1996,2282,1753,2
44700.0,1990,2281,1754,2
44701.0,1990,2281,1755,2
44702.0,1994,2283,1756,2
44703.0,1987,2279,1759,2
44704.0,1990,2281,1752,2
44705.0,1988,2278,1755,2
44706.0,1988,2283,1753,2
44707.0,1991,2286,1760,2
44708.0,1985,2281,1754,2
44709.0,1989,2280,1752,2
44710.0,1983,2284,1753,2
44711.0,1982,2282,1753,2
44712.0,1988,2282,1756,2
44713.0,1990,2274,1758,2
44714.0,1986,2284,1756,2
44715.0,1992,2282,1754,2
44716.0,1993,2280,1758,2
44717.0,1985,2286,1759,2
44718.0,1988,2281,1758,2
44719.0,1989,2276,1753,2
44720.0,1992,2284,1759,2
44721.0,1990,2284,1754,2
44722.0,1990,2280,1753,2
44723.0,1984,2283,1757,2
44724.0,1991,2283,1759,2
44725.0,1985,2282,1759,2
44726.0,1990,2279,1758,2
44727.0,1986,2282,1756,2
44728.0,1987,2279,1753,2
44729.0,1992,2281,1753,2
44730.0,1988,2282,1754,2
44731.0,1984,2278,1749,2
44732.0,1990,2280,1755,2
44733.0,1989,2278,1756,2
44734.0,1986,2277,1758,2
44735.0,1988,2279,1753,2
44736.0,1990,2282,1756,2
44737.0,1988,2281,1754,2
44738.0,1992,2278,1759,2
44739.0,1982,2281,1758,2
44740.0,1990,2282,1756,2
44741.0,1986,2277,1754,2
44742.0,1993,2275,1753,2
44743.0,1987,2278,1754,2
44744.0,1991,2279,1752,2
44745.0,1990,2280,1752,2
44746.0,1994,2282,1756,2
44747.0,1989,2279,1753,2
44748.0,1987,2280,1758,2
44749.0,1992,2281,1750,2
44750.0,1991,2281,1756,2
44751.0,1992,2279,1748,2
44752.0,1988,2279,1760,2
44753.0,1987,2280,1756,2
44754.0,1990,2278,1752,2
44755.0,1990,2280,1755,2
44756.0,1986,2281,1757,2
44757.0,1989,2277,1757,2
44758.0,1990,2283,1755,2
44759.0,1989,2279,1754,2
44760.0,1990,2276,1758,2
44761.0,1989,2282,1753,2
44762.0,1985,2279,1752,2
44763.0,1990,2279,1749,2
44764.0,1995,2279,1758,2
44765.0,1992,2276,1750,2
44766.0,1988,2278,1755,2
44767.0,1985,2279,1753,2
44768.0,1984,2282,1746,2
44769.0,1991,2277,1750,2
44770.0,1991,2281,1753,2
44771.0,1980,2277,1751,2
44772.0,1994,2282,1751,2
44773.0,1986,2278,1757,2
44774.0,1991,2276,1753,2
44775.0,1988,2275,1754,2
44776.0,1988,2278,1752,2
44777.0,1986,2278,1756,2
44778.0,1987,2283,1748,2
44779.0,1988,2277,1754,2
44780.0,1988,2283,1759,2
44781.0,1989,2275,1751,2
44782.0,1989,2278,1753,2
44783.0,1989,2279,1755,2
44784.0,1991,2282,1749,2
44785.0,1988,2282,1751,2
44786.0,1988,2277,1759,2
44787.0,1988,2277,1759,2
44788.0,1989,2281,1756,2
44789.0,1983,2285,1757,2
44790.0,1983,2279,1756,2
44791.0,1993,2282,1755,2
44792.0,1995,2284,1755,2
44793.0,1989,2277,1756,2
44794.0,1986,2279,1750,2
44795.0,1986,2274,1752,2
44796.0,1989,2277,1756,2
44797.0,1987,2277,1758,2
44798.0,1994,2281,1757,2
44799.0,1988,2278,1750,2
44800.0,1984,2279,1757,2
44801.0,1989,2275,1758,2
44802.0,1990,2274,1752,2
44803.0,1985,2280,1755,2
44804.0,1991,2281,1758,2
44805.0,1991,2275,1752,2
44806.0,1986,2277,1751,2
44807.0,1988,2283,1753,2
44808.0,1993,2276,1749,2
44809.0,1986,2282,1761,2
44810.0,1989,2277,1752,2
44811.0,1983,2280,1750,2
44812.0,1986,2278,1752,2
44813.0,1986,2279,1758,2
44814.0,1989,2279,1754,2
44815.0,1989,2278,1749,2
44816.0,1985,2281,1753,2
44817.0,1991,2278,1753,2
44818.0,1987,2286,1756,2
44819.0,1985,2274,1753,2
44820.0,1990,2278,1756,2
44821.0,1990,2279,1754,2
44822.0,1985,2278,1761,2
44823.0,1993,2279,1753,2
44824.0,1983,2285,1761,2
44825.0,1991,2279,1757,2
44826.0,1985,2275,1751,2
44827.0,1993,2280,1750,2
44828.0,1989,2276,1753,2
44829.0,1988,2277,1756,2
44830.0,1987,2283,1754,2
44831.0,1988,2285,1753,2
44832.0,1987,2282,1754,2
44833.0,1987,2282,1752,2
44834.0,1987,2281,1756,2
44835.0,1989,2283,1759,2
44836.0,1982,2277,1753,2
44837.0,1986,2281,1749,2
44838.0,1985,2278,1757,2
44839.0,1988,2283,1755,2
44840.0,1991,2283,1757,2
44841.0,1988,2281,1750,2
44842.0,1986,2283,1754,2
44843.0,1988,2280,1754,2
44844.0,1991,2274,1754,2
44845.0,1989,2278,1754,2
44846.0,1991,2286,1754,2
44847.0,1992,2277,1755,2
44848.0,1988,2282,1755,2
44849.0,1986,2279,1753,2
44850.0,1984,2283,1755,2
44851.0,1987,2285,1755,2
44852.0,1988,2279,1757,2
44853.0,1987,2283,1756,2
44854.0,1989,2281,1755,2
44855.0,1989,2278,1756,2
44856.0,1988,2279,1751,2
44857.0,1985,2282,1754,2
44858.0,1990,2278,1756,2
44859.0,1989,2282,1752,2
44860.0,1991,2281,1756,2
44861.0,1987,2285,1751,2
44862.0,1989,2285,1756,2
44863.0,1988,2285,1756,2
44864.0,1988,2280,1754,2
44865.0,1988,2283,1751,2
44866.0,1992,2280,1754,2
44867.0,1985,2280,1759,2
44868.0,1990,2280,1757,2
44869.0,1990,2283,1756,2
44870.0,1985,2278,1754,2
44871.0,1986,2279,1755,2
44872.0,1987,2281,1761,2
44873.0,1988,2279,1758,2
44874.0,1990,2279,1752,2
44875.0,1994,2282,1756,2
44876.0,1986,2281,1753,2
44877.0,1992,2278,1755,2
44878.0,1988,2279,1753,2
44879.0,1986,2277,1754,2
44880.0,1996,2279,1758,2
44881.0,1994,2279,1755,2
44882.0,1993,2279,1753,2
44883.0,1990,2279,1757,2
44884.0,1988,2283,1753,2
44885.0,1991,2275,1751,2
44886.0,1989,2284,1757,2
44887.0,1994,2279,1757,2
44888.0,1987,2279,1754,2
44889.0,1988,2281,1753,2
44890.0,1986,2276,1756,2
44891.0,1990,2283,1753,2
44892.0,1989,2275,1758,2
44893.0,1989,2277,1750,2
44894.0,1985,2282,1753,2
44895.0,1987,2282,1755,2
44896.0,1985,2283,1754,2
44897.0,1979,2281,1751,2
44898.0,1981,2279,1753,2
44899.0,1982,2282,1753,2
44900.0,1986,2280,1753,2
44901.0,1992,2279,1748,2
44902.0,1981,2280,1747,2
44903.0,1986,2279,1752,2
44904.0,1991,2281,1750,2
44905.0,1991,2282,1754,2
44906.0,1988,2278,1755,2
44907.0,1987,2279,1751,2
44908.0,1989,2276,1751,2
44909.0,1991,2283,1755,2
44910.0,1986,2281,1753,2
44911.0,1991,2280,1753,2
44912.0,1983,2279,1757,2
44913.0,1991,2282,1757,2
44914.0,1991,2281,1754,2
44915.0,1988,2278,1746,2
44916.0,1988,2275,1752,2
44917.0,1987,2283,1754,2
44918.0,1989,2284,1755,2
44919.0,1985,2282,1754,2
44920.0,1990,2276,1752,2
44921.0,1988,2279,1753,2
44922.0,1990,2277,1756,2
44923.0,1989,2276,1751,2
44924.0,1989,2280,1756,2
44925.0,1990,2279,1754,2
44926.0,1982,2271,1756,2
44927.0,1989,2277,1753,2
44928.0,1991,2279,1753,2
44929.0,1993,2278,1752,2
44930.0,1986,2279,1754,2
44931.0,1987,2274,1753,2
44932.0,1990,2282,1754,2
44933.0,1989,2279,1746,2
44934.0,1990,2279,1751,2
44935.0,1988,2280,1753,2
44936.0,1985,2280,1752,2
44937.0,1990,2283,1747,2
44938.0,1987,2280,1754,2
44939.0,1986,2275,1751,2
44940.0,1987,2279,1755,2
44941.0,1987,2281,1752,2
44942.0,1987,2278,1753,2
44943.0,1987,2281,1757,2
44944.0,1991,2286,1757,2
44945.0,1987,2278,1750,2
44946.0,1989,2280,1750,2
44947.0,1985,2278,1747,2
44948.0,1988,2276,1751,2
44949.0,1990,2283,1753,2
44950.0,1986,2279,1750,2
44951.0,1989,2282,1751,2
44952.0,1988,2282,1755,2
44953.0,1989,2274,1755,2
44954.0,1991,2277,1753,2
44955.0,1985,2278,1757,2
44956.0,1992,2279,1755,2
44957.0,1995,2278,1752,2
44958.0,1987,2276,1753,2
44959.0,1983,2279,1756,2
44960.0,1989,2276,1754,2
44961.0,1987,2283,1750,2
44962.0,1989,2277,1752,2
44963.0,1990,2280,1752,2
44964.0,1987,2279,1752,2
44965.0,1988,2281,1752,2
44966.0,1994,2278,1752,2
44967.0,1993,2281,1753,2
44968.0,1987,2280,1754,2
44969.0,1984,2278,1755,2
44970.0,1988,2277,1756,2
44971.0,1986,2279,1751,2
44972.0,1991,2281,1750,2
44973.0,1992,2273,1754,2
44974.0,1990,2280,1755,2
44975.0,1988,2279,1757,2
44976.0,1993,2280,1756,2
44977.0,1990,2279,1753,2
44978.0,1990,2280,1757,2
44979.0,1987,2284,1752,2
44980.0,1988,2281,1752,2
44981.0,1985,2279,1749,2
44982.0,1993,2281,1750,2
44983.0,1987,2286,1750,2
44984.0,1991,2280,1755,2
44985.0,1985,2281,1754,2
44986.0,1991,2284,1751,2
44987.0,1989,2282,1753,2
44988.0,1990,2278,1756,2
44989.0,1989,2279,1751,2
44990.0,1990,2285,1760,2
44991.0,1989,2279,1755,2
44992.0,1983,2280,1752,2
44993.0,1985,2279,1751,2
44994.0,1988,2283,1756,2
44995.0,1988,2282,1756,2
44996.0,1985,2278,1754,2
44997.0,1985,2280,1757,2
44998.0,1987,2271,1755,2
44999.0,1988,2281,1754,2
45000.0,1992,2282,1754,2
45001.0,1987,2279,1753,2
45002.0,1988,2279,1754,2
45003.0,1986,2281,1755,2
45004.0,1984,2286,1752,2
45005.0,1987,2280,1751,2
45006.0,1988,2279,1751,2
45007.0,1993,2279,1758,2
45008.0,1994,2279,1748,2
45009.0,1988,2281,1749,2
45010.0,1985,2278,1755,2
45011.0,1987,2279,1755,2
45012.0,1987,2283,1756,2
45013.0,1988,2277,1751,2
45014.0,1982,2275,1752,2
45015.0,1990,2280,1748,2
45016.0,1993,2283,1751,2
45017.0,1988,2282,1755,2
45018.0,1985,2279,1755,2
45019.0,1985,2281,1753,2
45020.0,1992,2281,1756,2
45021.0,1988,2278,1755,2
45022.0,1990,2278,1753,2
45023.0,1988,2278,1750,2
45024.0,1988,2278,1750,2
45025.0,1988,2279,1755,2
45026.0,1987,2275,1751,2
45027.0,1987,2281,1750,2
45028.0,1985,2275,1754,2
45029.0,1987,2282,1756,2
45030.0,1986,2282,1751,2
45031.0,1987,2281,1754,2
45032.0,1992,2275,1756,2
45033.0,1990,2279,1754,2
45034.0,1991,2283,1752,2
45035.0,1987,2276,1754,2
45036.0,1988,2282,1756,2
45037.0,1990,2283,1757,2
45038.0,1989,2282,1749,2
45039.0,1989,2279,1755,2
45040.0,1991,2279,1757,2
45041.0,1986,2279,1754,2
45042.0,1990,2281,1753,2
45043.0,1986,2279,1751,2
45044.0,1985,2280,1751,2
45045.0,1990,2278,1758,2
45046.0,1990,2278,1755,2
45047.0,1989,2276,1752,2
45048.0,1986,2278,1756,2
45049.0,1989,2280,1751,2
45050.0,1995,2279,1754,2
45051.0,1997,2279,1755,2
45052.0,1987,2282,1751,2
45053.0,1986,2279,1757,2
45054.0,1986,2278,1746,2
45055.0,1989,2279,1750,2
45056.0,1991,2279,1754,2
45057.0,1992,2280,1749,2
45058.0,1990,2277,1755,2
45059.0,1986,2283,1755,2
45060.0,1986,2277,1753,2
45061.0,1990,2276,1757,2
45062.0,1988,2276,1755,2
45063.0,1991,2282,1756,2
45064.0,1989,2278,1752,2
45065.0,1991,2279,1750,2
45066.0,1989,2278,1753,2
45067.0,1988,2279,1751,2
45068.0,1989,2279,1752,2
45069.0,1990,2282,1754,2
45070.0,1990,2279,1753,2
45071.0,1990,2276,1753,2
45072.0,1990,2278,1751,2
45073.0,1987,2283,1752,2
45074.0,1987,2285,1753,2
45075.0,1990,2278,1750,2
45076.0,1989,2280,1755,2
45077.0,1993,2283,1756,2
45078.0,1987,2279,1754,2
45079.0,1985,2278,1751,2
45080.0,1986,2279,1758,2
45081.0,1994,2278,1750,2
45082.0,1988,2278,1754,2
45083.0,1991,2276,1753,2
45084.0,1990,2279,1751,2
45085.0,1988,2277,1750,2
45086.0,1988,2278,1752,2
45087.0,1987,2277,1763,2
45088.0,1987,2278,1755,2
45089.0,1990,2276,1753,2
45090.0,1992,2275,1748,2
45091.0,1986,2284,1751,2
45092.0,1989,2279,1753,2
45093.0,1987,2278,1755,2
45094.0,1992,2281,1752,2
45095.0,1990,2288,1751,2
45096.0,1992,2279,1749,2
45097.0,1987,2276,1755,2
45098.0,1991,2282,1752,2
45099.0,1990,2281,1757,2
45100.0,1992,2277,1759,2
45101.0,1992,2278,1752,2
45102.0,1987,2280,1751,2
45103.0,1988,2279,1750,2
45104.0,1995,2282,1753,2
45105.0,1985,2276,1748,2
45106.0,1986,2277,1750,2
45107.0,1989,2284,1752,2
45108.0,1988,2281,1751,2
45109.0,1990,2273,1752,2
45110.0,1987,2284,1749,2
45111.0,1987,2278,1757,2
45112.0,1985,2281,1759,2
45113.0,1990,2284,1755,2
45114.0,1987,2281,1755,2
45115.0,1988,2281,1758,2
45116.0,1986,2279,1754,2
45117.0,1991,2280,1755,2
45118.0,1991,2281,1757,2
45119.0,1986,2281,1752,2
45120.0,1991,2276,1759,2
45121.0,1989,2277,1755,2
45122.0,1994,2278,1755,2
45123.0,1985,2280,1755,2
45124.0,1991,2279,1751,2
45125.0,1990,2281,1758,2
45126.0,1984,2280,1754,2
45127.0,1990,2282,1754,2
45128.0,1984,2279,1752,2
45129.0,1989,2285,1758,2
45130.0,1983,2283,1755,2
45131.0,1987,2279,1753,2
45132.0,1989,2285,1752,2
45133.0,1991,2280,1755,2
45134.0,1988,2279,1756,2
45135.0,1991,2283,1753,2
45136.0,1990,2283,1757,2
45137.0,1986,2278,1751,2
45138.0,1990,2279,1758,2
45139.0,1987,2280,1760,2
45140.0,1988,2281,1757,2
45141.0,1984,2281,1752,2
45142.0,1992,2282,1751,2
45143.0,1985,2277,1754,2
45144.0,1988,2275,1752,2
45145.0,1981,2277,1756,2
45146.0,1989,2279,1752,2
45147.0,1992,2282,1753,2
45148.0,1988,2283,1752,2
45149.0,1990,2278,1750,2
45150.0,1990,2277,1753,2
45151.0,1991,2278,1752,2
45152.0,1988,2280,1751,2
45153.0,1984,2283,1757,2
45154.0,1994,2283,1756,2
45155.0,1989,2278,1753,2
45156.0,1992,2281,1752,2
45157.0,1994,2281,1752,2
45158.0,1991,2279,1750,2
45159.0,1988,2275,1749,2
45160.0,1983,2282,1754,2
45161.0,1987,2285,1753,2
45162.0,1988,2285,1754,2
45163.0,1988,2282,1752,2
45164.0,1982,2285,1758,2
45165.0,1989,2287,1760,2
45166.0,1981,2286,1759,2
45167.0,1983,2287,1761,2
45168.0,1977,2280,1756,2
45169.0,1984,2281,1756,2
45170.0,1980,2286,1763,2
45171.0,1986,2289,1758,2
45172.0,1981,2291,1762,2
45173.0,1981,2283,1761,2
45174.0,1980,2284,1760,2
45175.0,1982,2284,1763,2
45176.0,1979,2285,1766,2
45177.0,1983,2285,1765,2
45178.0,1980,2279,1766,2
45179.0,1975,2283,1765,2
45180.0,1981,2280,1759,2
45181.0,1983,2274,1751,2
45182.0,1987,2283,1753,2
45183.0,1994,2283,1746,2
45184.0,1991,2286,1745,2
45185.0,1993,2287,1752,2
45186.0,1993,2285,1750,2
45187.0,1989,2288,1757,2
45188.0,1988,2285,1763,2
45189.0,1986,2286,1769,2
45190.0,1983,2284,1766,2
45191.0,1985,2288,1762,2
45192.0,1988,2293,1762,2
45193.0,1991,2290,1763,2
45194.0,1984,2293,1766,2
45195.0,1982,2295,1770,2
45196.0,1986,2293,1767,2
45197.0,1984,2294,1763,2
45198.0,1981,2299,1760,2
45199.0,1981,2302,1770,2
45200.0,1982,2297,1769,2
45201.0,1978,2295,1770,2
45202.0,1979,2297,1771,2
45203.0,1973,2292,1773,2
45204.0,1970,2300,1771,2
45205.0,1974,2295,1763,2
45206.0,1971,2293,1775,2
45207.0,1972,2296,1770,2
45208.0,1965,2302,1773,2
45209.0,1969,2295,1772,2
45210.0,1972,2301,1772,2
45211.0,1967,2293,1770,2
45212.0,1969,2301,1769,2
45213.0,1966,2300,1767,2
45214.0,1965,2303,1773,2
45215.0,1965,2310,1774,2
45216.0,1977,2306,1775,2
45217.0,1938,2301,1783,2
45218.0,1966,2310,1780,2
45219.0,1969,2309,1781,2
45220.0,1956,2293,1781,2
45221.0,1958,2295,1783,2
45222.0,1957,2297,1784,2
45223.0,1948,2290,1778,2
45224.0,1955,2294,1779,2
45225.0,1956,2297,1778,2
45226.0,1955,2295,1774,2
45227.0,1957,2295,1763,2
45228.0,1953,2298,1773,2
45229.0,1960,2291,1776,2
45230.0,1959,2300,1770,2
45231.0,1969,2295,1769,2
45232.0,1962,2292,1768,2
45233.0,1966,2299,1767,2
45234.0,1963,2303,1776,2
45235.0,1964,2297,1774,2
45236.0,1972,2293,1773,2
45237.0,1975,2291,1768,2
45238.0,1970,2292,1764,2
45239.0,1973,2291,1774,2
45240.0,1976,2296,1766,2
45241.0,1974,2293,1761,2
45242.0,1973,2294,1773,2
45243.0,1965,2294,1766,2
45244.0,1967,2295,1763,2
45245.0,1969,2294,1768,2
45246.0,1971,2290,1767,2
45247.0,1970,2294,1762,2
45248.0,1966,2291,1768,2
45249.0,1972,2295,1767,2
45250.0,1967,2291,1763,2
45251.0,1961,2295,1771,2
45252.0,1963,2292,1769,2
45253.0,1963,2294,1768,2
45254.0,1972,2298,1766,2
45255.0,1969,2297,1763,2
45256.0,1972,2306,1764,2
45257.0,1962,2298,1771,2
45258.0,1959,2298,1776,2
45259.0,1944,2289,1785,2
45260.0,1973,2310,1775,2
45261.0,1958,2302,1782,2
45262.0,1961,2304,1789,2
45263.0,1956,2296,1797,2
45264.0,1958,2297,1790,2
45265.0,1959,2309,1782,2
45266.0,1964,2303,1776,2
45267.0,1959,2300,1773,2
45268.0,1958,2309,1780,2
45269.0,1965,2301,1773,2
45270.0,1958,2303,1781,2
45271.0,1962,2299,1781,2
45272.0,1958,2302,1775,2
45273.0,1960,2293,1773,2
45274.0,1957,2291,1775,2
45275.0,1961,2294,1776,2
45276.0,1963,2295,1777,2
45277.0,1963,2290,1776,2
45278.0,1967,2301,1772,2
45279.0,1966,2306,1770,2
45280.0,1972,2307,1763,2
45281.0,1973,2296,1762,2
45282.0,1972,2293,1765,2
45283.0,1970,2293,1765,2
45284.0,1974,2291,1762,2
45285.0,1970,2294,1758,2
45286.0,1974,2291,1766,2
45287.0,1972,2292,1765,2
45288.0,1967,2290,1771,2
45289.0,1966,2295,1765,2
45290.0,1967,2296,1766,2
45291.0,1966,2295,1766,2
45292.0,1969,2295,1765,2
45293.0,1969,2296,1768,2
45294.0,1970,2293,1766,2
45295.0,1966,2289,1763,2
45296.0,1973,2292,1763,2
45297.0,1974,2290,1767,2
45298.0,1969,2287,1764,2
45299.0,1969,2291,1766,2
45300.0,1969,2291,1764,2
45301.0,1969,2290,1763,2
45302.0,1969,2287,1760,2
45303.0,1965,2292,1762,2
45304.0,1967,2290,1766,2
45305.0,1971,2291,1769,2
45306.0,1968,2294,1764,2
45307.0,1970,2292,1764,2
45308.0,1962,2295,1768,2
45309.0,1968,2291,1763,2
45310.0,1967,2293,1763,2
45311.0,1963,2291,1763,2
45312.0,1969,2288,1770,2
45313.0,1966,2291,1766,2
45314.0,1963,2290,1763,2
45315.0,1970,2293,1764,2
45316.0,1969,2293,1769,2
45317.0,1961,2293,1770,2
45318.0,1974,2297,1763,2
45319.0,1967,2290,1770,2
45320.0,1971,2286,1764,2
45321.0,1969,2294,1768,2
45322.0,1964,2288,1763,2
45323.0,1972,2295,1763,2
45324.0,1968,2290,1762,2
45325.0,1976,2291,1764,2
45326.0,1975,2296,1761,2
45327.0,1969,2300,1760,2
45328.0,1971,2301,1760,2
45329.0,1956,2289,1767,2
45330.0,1942,2284,1783,2
45331.0,1961,2289,1783,2
45332.0,1955,2281,1784,2
45333.0,1966,2297,1765,2
45334.0,1967,2295,1769,2
45335.0,1963,2297,1770,2
45336.0,1967,2296,1766,2
45337.0,1964,2285,1761,2
45338.0,1963,2286,1772,2
45339.0,1964,2291,1768,2
45340.0,1968,2296,1761,2
45341.0,1969,2292,1763,2
45342.0,1973,2295,1766,2
45343.0,1973,2294,1760,2
45344.0,1974,2291,1760,2
45345.0,1969,2295,1768,2
45346.0,1967,2293,1770,2
45347.0,1971,2289,1767,2
45348.0,1967,2289,1770,2
45349.0,1965,2291,1770,2
45350.0,1970,2293,1767,2
45351.0,1969,2291,1760,2
45352.0,1969,2290,1773,2
45353.0,1967,2287,1768,2
45354.0,1970,2290,1765,2
45355.0,1967,2287,1770,2
45356.0,1966,2286,1764,2
45357.0,1970,2285,1765,2
45358.0,1967,2286,1760,2
45359.0,1969,2289,1759,2
45360.0,1975,2295,1755,2
45361.0,1973,2287,1765,2
45362.0,1977,2291,1761,2
45363.0,1967,2289,1765,2
45364.0,1969,2289,1765,2
45365.0,1971,2291,1760,2
45366.0,1969,2288,1765,2
45367.0,1970,2288,1765,2
45368.0,1965,2287,1765,2
45369.0,1972,2292,1767,2
45370.0,1971,2291,1766,2
45371.0,1967,2291,1767,2
45372.0,1977,2289,1763,2
45373.0,1962,2285,1758,2
45374.0,1968,2288,1763,2
45375.0,1972,2292,1764,2
45376.0,1968,2289,1763,2
45377.0,1972,2284,1767,2
45378.0,1967,2287,1761,2
45379.0,1974,2292,1759,2
45380.0,1973,2286,1760,2
45381.0,1969,2292,1763,2
45382.0,1972,2287,1767,2
45383.0,1971,2293,1766,2
45384.0,1969,2289,1766,2
45385.0,1969,2289,1764,2
45386.0,1966,2288,1766,2
45387.0,1967,2292,1766,2
45388.0,1974,2291,1767,2
45389.0,1971,2290,1764,2
45390.0,1973,2290,1764,2
45391.0,1970,2288,1766,2
45392.0,1967,2287,1763,2
45393.0,1975,2294,1765,2
45394.0,1966,2291,1764,2
45395.0,1964,2292,1760,2
45396.0,1970,2291,1768,2
45397.0,1972,2289,1766,2
45398.0,1972,2290,1765,2
45399.0,1971,2285,1762,2
45400.0,1969,2288,1764,2
45401.0,1967,2291,1763,2
45402.0,1968,2294,1766,2
45403.0,1967,2289,1763,2
45404.0,1965,2291,1761,2
45405.0,1970,2288,1764,2
45406.0,1969,2288,1763,2
45407.0,1970,2293,1761,2
45408.0,1965,2288,1766,2
45409.0,1972,2290,1764,2
45410.0,1973,2287,1765,2
45411.0,1969,2289,1764,2
45412.0,1967,2287,1762,2
45413.0,1969,2286,1763,2
45414.0,1975,2295,1761,2
45415.0,1968,2291,1763,2
45416.0,1969,2283,1759,2
45417.0,1964,2293,1766,2
45418.0,1970,2290,1761,2
45419.0,1968,2288,1764,2
45420.0,1973,2290,1761,2
45421.0,1969,2289,1758,2
45422.0,1965,2287,1766,2
45423.0,1975,2289,1763,2
45424.0,1971,2293,1764,2
45425.0,1972,2287,1766,2
45426.0,1973,2287,1760,2
45427.0,1962,2295,1765,2
45428.0,1974,2289,1762,2
45429.0,1974,2287,1764,2
45430.0,1968,2286,1766,2
45431.0,1975,2284,1760,2
45432.0,1966,2290,1764,2
45433.0,1974,2294,1764,2
45434.0,1969,2287,1770,2
45435.0,1968,2285,1765,2
45436.0,1969,2289,1765,2
45437.0,1969,2291,1764,2
45438.0,1969,2284,1759,2
45439.0,1966,2288,1761,2
45440.0,1971,2282,1763,2
45441.0,1974,2286,1765,2
45442.0,1968,2287,1761,2
45443.0,1974,2292,1760,2
45444.0,1967,2288,1768,2
45445.0,1973,2284,1761,2
45446.0,1973,2292,1761,2
45447.0,1974,2294,1763,2
45448.0,1964,2285,1767,2
45449.0,1967,2289,1764,2
45450.0,1970,2299,1761,2
45451.0,1971,2292,1763,2
45452.0,1970,2288,1761,2
45453.0,1972,2290,1764,2
45454.0,1960,2289,1760,2
45455.0,1964,2287,1759,2
45456.0,1970,2287,1762,2
45457.0,1972,2289,1761,2
45458.0,1967,2285,1762,2
45459.0,1969,2287,1763,2
45460.0,1973,2287,1763,2
45461.0,1969,2286,1760,2
45462.0,1969,2282,1761,2
45463.0,1972,2286,1762,2
45464.0,1969,2287,1759,2
45465.0,1968,2287,1763,2
45466.0,1968,2288,1765,2
45467.0,1968,2290,1763,2
45468.0,1971,2291,1763,2
45469.0,1970,2286,1765,2
45470.0,1975,2292,1764,2
45471.0,1969,2286,1763,2
45472.0,1969,2286,1764,2
45473.0,1971,2293,1761,2
45474.0,1966,2284,1761,2
45475.0,1966,2287,1757,2
45476.0,1967,2291,1757,2
45477.0,1967,2288,1761,2
45478.0,1969,2284,1761,2
45479.0,1970,2291,1762,2
45480.0,1969,2288,1762,2
45481.0,1969,2287,1764,2
45482.0,1964,2283,1766,2
45483.0,1968,2282,1757,2
45484.0,1967,2288,1763,2
45485.0,1968,2296,1764,2
45486.0,1965,2291,1764,2
45487.0,1973,2284,1757,2
45488.0,1970,2290,1765,2
45489.0,1970,2289,1765,2
45490.0,1974,2287,1763,2
45491.0,1971,2287,1758,2
45492.0,1970,2286,1762,2
45493.0,1969,2290,1762,2
45494.0,1966,2286,1759,2
45495.0,1964,2289,1762,2
45496.0,1964,2286,1760,2
45497.0,1969,2295,1764,2
45498.0,1972,2292,1763,2
45499.0,1973,2290,1759,2
45500.0,1971,2287,1761,2
45501.0,1967,2288,1759,2
45502.0,1970,2289,1763,2
45503.0,1968,2289,1764,2
45504.0,1974,2287,1758,2
45505.0,1966,2288,1765,2
45506.0,1974,2293,1760,2
45507.0,1976,2285,1766,2
45508.0,1967,2294,1761,2
45509.0,1972,2290,1764,2
45510.0,1968,2289,1766,2
45511.0,1971,2289,1762,2
45512.0,1970,2289,1762,2
45513.0,1969,2288,1764,2
45514.0,1971,2288,1765,2
45515.0,1970,2286,1765,2
45516.0,1971,2288,1757,2
45517.0,1974,2289,1764,2
45518.0,1970,2293,1767,2
45519.0,1971,2290,1766,2
45520.0,1970,2290,1763,2
45521.0,1967,2287,1765,2
45522.0,1967,2292,1766,2
45523.0,1966,2292,1765,2
45524.0,1966,2293,1764,2
45525.0,1969,2289,1761,2
45526.0,1972,2285,1767,2
45527.0,1973,2288,1762,2
45528.0,1964,2292,1768,2
45529.0,1966,2290,1767,2
45530.0,1964,2288,1768,2
45531.0,1970,2290,1764,2
45532.0,1973,2293,1769,2
45533.0,1970,2294,1763,2
45534.0,1967,2287,1763,2
45535.0,1973,2290,1766,2
45536.0,1972,2294,1767,2
45537.0,1973,2290,1765,2
45538.0,1977,2287,1762,2
45539.0,1967,2288,1763,2
45540.0,1970,2292,1766,2
45541.0,1971,2289,1769,2
45542.0,1969,2292,1763,2
45543.0,1966,2288,1764,2
45544.0,1966,2288,1763,2
45545.0,1970,2294,1764,2
45546.0,1973,2290,1762,2
45547.0,1965,2288,1767,2
45548.0,1966,2294,1770,2
45549.0,1973,2295,1761,2
45550.0,1971,2284,1762,2
45551.0,1971,2291,1757,2
45552.0,1965,2291,1762,2
45553.0,1966,2284,1765,2
45554.0,1973,2286,1770,2
45555.0,1969,2289,1764,2
45556.0,1972,2287,1768,2
45557.0,1974,2286,1765,2
45558.0,1964,2290,1767,2
45559.0,1965,2290,1766,2
45560.0,1972,2290,1767,2
45561.0,1974,2293,1767,2
45562.0,1973,2290,1764,2
45563.0,1970,2292,1767,2
45564.0,1971,2287,1763,2
45565.0,1968,2292,1765,2
45566.0,1968,2290,1761,2
45567.0,1966,2289,1767,2
45568.0,1972,2291,1772,2
45569.0,1969,2295,1761,2
45570.0,1971,2289,1763,2
45571.0,1966,2292,1765,2
45572.0,1967,2287,1762,2
45573.0,1967,2293,1762,2
45574.0,1968,2285,1764,2
45575.0,1963,2287,1767,2
45576.0,1967,2289,1766,2
45577.0,1970,2291,1760,2
45578.0,1968,2291,1759,2
45579.0,1972,2296,1765,2
45580.0,1967,2292,1759,2
45581.0,1972,2297,1767,2
45582.0,1976,2294,1766,2
45583.0,1972,2289,1761,2
45584.0,1969,2286,1769,2
45585.0,1959,2288,1768,2
45586.0,1971,2286,1766,2
45587.0,1961,2284,1766,2
45588.0,1969,2293,1766,2
45589.0,1968,2285,1762,2
45590.0,1968,2289,1763,2
45591.0,1965,2293,1759,2
45592.0,1968,2288,1762,2
45593.0,1969,2287,1762,2
45594.0,1969,2291,1761,2
45595.0,1974,2287,1761,2
45596.0,1968,2288,1759,2
45597.0,1971,2284,1762,2
45598.0,1972,2291,1757,2
45599.0,1970,2284,1765,2
45600.0,1973,2294,1763,2
45601.0,1966,2290,1769,2
45602.0,1962,2287,1767,2
45603.0,1970,2288,1765,2
45604.0,1966,2286,1762,2
45605.0,1968,2287,1761,2
45606.0,1970,2291,1752,2
45607.0,1971,2291,1761,2
45608.0,1969,2281,1760,2
45609.0,1970,2291,1759,2
45610.0,1967,2288,1758,2
45611.0,1968,2287,1763,2
45612.0,1966,2291,1761,2
45613.0,1970,2292,1766,2
45614.0,1970,2288,1767,2
45615.0,1968,2287,1763,2
45616.0,1973,2291,1758,2
45617.0,1969,2290,1759,2
45618.0,1971,2286,1762,2
45619.0,1972,2291,1762,2
45620.0,1965,2285,1767,2
45621.0,1970,2291,1766,2
45622.0,1974,2289,1761,2
45623.0,1970,2294,1762,2
45624.0,1971,2291,1758,2
45625.0,1974,2289,1763,2
45626.0,1962,2290,1766,2
45627.0,1967,2288,1763,2
45628.0,1960,2285,1764,2
45629.0,1967,2285,1767,2
45630.0,1959,2286,1757,2
45631.0,1966,2285,1762,2
45632.0,1971,2294,1759,2
45633.0,1970,2296,1758,2
45634.0,1973,2291,1757,2
45635.0,1969,2291,1756,2
45636.0,1964,2289,1762,2
45637.0,1968,2295,1768,2
45638.0,1964,2285,1761,2
45639.0,1963,2281,1772,2
45640.0,1961,2288,1766,2
45641.0,1965,2289,1765,2
45642.0,1973,2289,1755,2
45643.0,1968,2286,1755,2
45644.0,1975,2290,1761,2
45645.0,1971,2287,1756,2
45646.0,1969,2288,1761,2
45647.0,1967,2284,1761,2
45648.0,1968,2287,1759,2
45649.0,1969,2288,1760,2
45650.0,1970,2293,1759,2
45651.0,1970,2293,1757,2
45652.0,1972,2291,1766,2
45653.0,1967,2287,1766,2
45654.0,1969,2283,1766,2
45655.0,1963,2287,1768,2
45656.0,1964,2287,1767,2
45657.0,1970,2289,1764,2
45658.0,1971,2293,1764,2
45659.0,1969,2288,1764,2
45660.0,1975,2292,1760,2
45661.0,1975,2290,1757,2
45662.0,1973,2288,1763,2
45663.0,1971,2288,1761,2
45664.0,1971,2289,1765,2
45665.0,1975,2288,1763,2
45666.0,1973,2290,1767,2
45667.0,1969,2291,1764,2
45668.0,1970,2289,1766,2
45669.0,1968,2289,1758,2
45670.0,1968,2288,1769,2
45671.0,1967,2287,1770,2
45672.0,1969,2291,1766,2
45673.0,1970,2292,1766,2
45674.0,1965,2284,1764,2
45675.0,1967,2292,1764,2
45676.0,1973,2294,1761,2
45677.0,1968,2293,1762,2
45678.0,1969,2291,1771,2
45679.0,1971,2294,1765,2
45680.0,1967,2295,1765,2
45681.0,1974,2289,1761,2
45682.0,1975,2294,1762,2
45683.0,1972,2290,1767,2
45684.0,1973,2292,1769,2
45685.0,1973,2290,1765,2
45686.0,1970,2290,1764,2
45687.0,1973,2294,1763,2
45688.0,1969,2290,1766,2
45689.0,1972,2293,1763,2
45690.0,1971,2293,1762,2
45691.0,1970,2295,1767,2
45692.0,1969,2291,1765,2
45693.0,1975,2297,1763,2
45694.0,1966,2295,1766,2
45695.0,1967,2289,1763,2
45696.0,1965,2290,1772,2
45697.0,1963,2287,1775,2
45698.0,1963,2287,1765,2
45699.0,1963,2281,1767,2
45700.0,1965,2291,1764,2
45701.0,1966,2285,1766,2
45702.0,1965,2291,1759,2
45703.0,1965,2287,1766,2
45704.0,1970,2294,1763,2
45705.0,1974,2295,1758,2
45706.0,1972,2287,1766,2
45707.0,1970,2290,1762,2
45708.0,1975,2290,1761,2
45709.0,1973,2286,1762,2
45710.0,1970,2289,1763,2
45711.0,1974,2287,1765,2
45712.0,1972,2289,1770,2
45713.0,1969,2289,1766,2
45714.0,1966,2284,1767,2
45715.0,1963,2287,1759,2
45716.0,1971,2285,1761,2
45717.0,1966,2292,1759,2
45718.0,1977,2289,1763,2
45719.0,1971,2289,1760,2
45720.0,1975,2289,1759,2
45721.0,1975,2290,1760,2
45722.0,1975,2284,1763,2
45723.0,1975,2286,1762,2
45724.0,1975,2284,1761,2
45725.0,1972,2286,1757,2
45726.0,1974,2291,1762,2
45727.0,1972,2283,1763,2
45728.0,1968,2283,1765,2
45729.0,1968,2289,1761,2
45730.0,1967,2283,1755,2
45731.0,1966,2283,1755,2
45732.0,1967,2288,1763,2
45733.0,1974,2288,1759,2
45734.0,1975,2285,1760,2
45735.0,1970,2287,1758,2
45736.0,1975,2286,1759,2
45737.0,1971,2287,1760,2
45738.0,1967,2283,1762,2
45739.0,1973,2286,1755,2
45740.0,1970,2285,1764,2
45741.0,1971,2289,1757,2
45742.0,1970,2289,1764,2
45743.0,1972,2289,1758,2
45744.0,1969,2289,1760,2
45745.0,1969,2283,1759,2
45746.0,1963,2287,1757,2
45747.0,1968,2283,1762,2
45748.0,1974,2285,1759,2
45749.0,1969,2285,1759,2
45750.0,1967,2290,1764,2
45751.0,1968,2289,1759,2
45752.0,1967,2286,1764,2
45753.0,1966,2286,1770,2
45754.0,1967,2291,1764,2
45755.0,1971,2285,1768,2
45756.0,1968,2285,1761,2
45757.0,1971,2286,1754,2
45758.0,1966,2285,1757,2
45759.0,1965,2291,1759,2
45760.0,1967,2292,1760,2
45761.0,1975,2289,1759,2
45762.0,1973,2285,1761,2
45763.0,1967,2289,1755,2
45764.0,1976,2288,1759,2
45765.0,1971,2287,1761,2
45766.0,1972,2286,1761,2
45767.0,1973,2288,1762,2
45768.0,1971,2284,1761,2
45769.0,1971,2289,1763,2
45770.0,1968,2289,1758,2
45771.0,1970,2284,1759,2
45772.0,1972,2288,1762,2
45773.0,1972,2289,1758,2
45774.0,1970,2281,1762,2
45775.0,1964,2291,1758,2
45776.0,1969,2291,1758,2
45777.0,1970,2288,1758,2
45778.0,1966,2290,1762,2
45779.0,1973,2289,1764,2
45780.0,1966,2287,1761,2
45781.0,1969,2290,1766,2
45782.0,1974,2291,1762,2
45783.0,1971,2290,1762,2
45784.0,1969,2284,1759,2
45785.0,1971,2284,1766,2
45786.0,1973,2287,1762,2
45787.0,1974,2281,1758,2
45788.0,1967,2290,1765,2
45789.0,1968,2288,1761,2
45790.0,1969,2293,1761,2
45791.0,1972,2287,1766,2
45792.0,1969,2286,1763,2
45793.0,1968,2285,1762,2
45794.0,1969,2286,1757,2
45795.0,1967,2284,1762,2
45796.0,1970,2282,1759,2
45797.0,1971,2281,1760,2
45798.0,1971,2286,1755,2
45799.0,1969,2287,1758,2
45800.0,1969,2284,1758,2
45801.0,1965,2285,1761,2
45802.0,1970,2288,1760,2
45803.0,1963,2287,1760,2
45804.0,1966,2287,1765,2
45805.0,1965,2292,1760,2
45806.0,1973,2291,1766,2
45807.0,1969,2290,1769,2
45808.0,1972,2295,1769,2
45809.0,1971,2293,1765,2
45810.0,1975,2291,1772,2
45811.0,1972,2292,1760,2
45812.0,1971,2286,1762,2
45813.0,1970,2288,1759,2
45814.0,1969,2289,1764,2
45815.0,1972,2289,1755,2
45816.0,1967,2286,1765,2
45817.0,1963,2293,1765,2
45818.0,1969,2293,1761,2
45819.0,1973,2285,1763,2
45820.0,1969,2294,1764,2
45821.0,1967,2286,1764,2
45822.0,1969,2293,1765,2
45823.0,1970,2294,1763,2
45824.0,1975,2291,1760,2
45825.0,1965,2290,1764,2
45826.0,1966,2293,1761,2
45827.0,1972,2291,1762,2
45828.0,1973,2293,1763,2
45829.0,1965,2288,1766,2
45830.0,1971,2291,1766,2
45831.0,1970,2291,1762,2
45832.0,1976,2292,1765,2
45833.0,1975,2289,1767,2
45834.0,1971,2290,1763,2
45835.0,1972,2286,1765,2
45836.0,1970,2293,1764,2
45837.0,1974,2291,1760,2
45838.0,1966,2289,1767,2
45839.0,1974,2292,1768,2
45840.0,1970,2293,1764,2
45841.0,1971,2286,1762,2
45842.0,1970,2291,1765,2
45843.0,1971,2293,1772,2
45844.0,1965,2291,1767,2
45845.0,1975,2291,1763,2
45846.0,1971,2283,1766,2
45847.0,1969,2290,1763,2
45848.0,1968,2293,1764,2
45849.0,1968,2289,1767,2
45850.0,1970,2294,1757,2
45851.0,1970,2293,1762,2
45852.0,1970,2292,1761,2
45853.0,1965,2287,1763,2
45854.0,1967,2292,1770,2
45855.0,1972,2288,1764,2
45856.0,1970,2286,1765,2
45857.0,1968,2291,1762,2
45858.0,1967,2289,1764,2
45859.0,1969,2286,1766,2
45860.0,1971,2289,1764,2
45861.0,1963,2293,1761,2
45862.0,1972,2292,1760,2
45863.0,1969,2294,1759,2
45864.0,1974,2291,1760,2
45865.0,1972,2293,1769,2
45866.0,1969,2290,1765,2
45867.0,1971,2286,1765,2
45868.0,1967,2290,1762,2
45869.0,1972,2286,1763,2
45870.0,1969,2286,1763,2
45871.0,1971,2285,1760,2
45872.0,1967,2287,1762,2
45873.0,1975,2286,1765,2
45874.0,1971,2288,1762,2
45875.0,1972,2293,1759,2
45876.0,1971,2291,1763,2
45877.0,1971,2289,1763,2
45878.0,1968,2292,1763,2
45879.0,1967,2290,1759,2
45880.0,1968,2285,1759,2
45881.0,1970,2287,1765,2
45882.0,1972,2284,1757,2
45883.0,1971,2285,1755,2
45884.0,1967,2291,1760,2
45885.0,1970,2289,1761,2
45886.0,1969,2291,1763,2
45887.0,1968,2287,1763,2
45888.0,1973,2287,1763,2
45889.0,1968,2290,1759,2
45890.0,1972,2288,1760,2
45891.0,1968,2289,1765,2
45892.0,1973,2285,1758,2
45893.0,1969,2291,1756,2
45894.0,1968,2286,1768,2
45895.0,1973,2285,1761,2
45896.0,1972,2291,1759,2
45897.0,1968,2287,1756,2
45898.0,1971,2287,1762,2
45899.0,1969,2289,1766,2
45900.0,1979,2285,1759,2
45901.0,1977,2286,1758,2
45902.0,1972,2289,1762,2
45903.0,1971,2291,1762,2
45904.0,1968,2289,1762,2
45905.0,1971,2286,1759,2
45906.0,1971,2285,1765,2
45907.0,1969,2290,1759,2
45908.0,1968,2294,1761,2
45909.0,1974,2282,1758,2
45910.0,1970,2283,1762,2
45911.0,1969,2287,1765,2
45912.0,1967,2287,1759,2
45913.0,1967,2286,1763,2
45914.0,1965,2288,1762,2
45915.0,1970,2293,1763,2
45916.0,1969,2291,1766,2
45917.0,1973,2287,1765,2
45918.0,1971,2286,1762,2
45919.0,1966,2286,1764,2
45920.0,1968,2283,1767,2
45921.0,1972,2287,1758,2
45922.0,1969,2295,1761,2
45923.0,1968,2285,1769,2
45924.0,1973,2287,1761,2
45925.0,1972,2287,1765,2
45926.0,1970,2288,1759,2
45927.0,1970,2290,1760,2
45928.0,1963,2287,1758,2
45929.0,1968,2288,1762,2
45930.0,1973,2283,1761,2
45931.0,1969,2292,1760,2
45932.0,1967,2286,1764,2
45933.0,1969,2286,1759,2
45934.0,1970,2285,1771,2
45935.0,1971,2286,1764,2
45936.0,1968,2288,1767,2
45937.0,1968,2287,1762,2
45938.0,1964,2286,1763,2
45939.0,1969,2288,1761,2
45940.0,1968,2285,1764,2
45941.0,1968,2287,1761,2
45942.0,1977,2292,1761,2
45943.0,1969,2295,1760,2
45944.0,1972,2281,1760,2
45945.0,1969,2285,1763,2
45946.0,1965,2287,1764,2
45947.0,1968,2291,1764,2
45948.0,1970,2290,1764,2
45949.0,1970,2287,1764,2
45950.0,1972,2289,1760,2
45951.0,1971,2287,1764,2
45952.0,1972,2289,1763,2
45953.0,1966,2292,1764,2
45954.0,1971,2285,1763,2
45955.0,1975,2291,1761,2
45956.0,1971,2289,1762,2
45957.0,1971,2291,1763,2
45958.0,1969,2289,1765,2
45959.0,1972,2291,1766,2
45960.0,1974,2288,1768,2
45961.0,1965,2290,1767,2
45962.0,1973,2286,1769,2
45963.0,1973,2289,1768,2
45964.0,1972,2289,1763,2
45965.0,1972,2291,1760,2
45966.0,1971,2290,1767,2
45967.0,1973,2287,1762,2
45968.0,1974,2289,1764,2
45969.0,1968,2294,1763,2
45970.0,1968,2288,1757,2
45971.0,1966,2288,1769,2
45972.0,1975,2288,1760,2
45973.0,1971,2294,1764,2
45974.0,1970,2289,1762,2
45975.0,1970,2287,1767,2
45976.0,1968,2290,1764,2
45977.0,1970,2290,1764,2
45978.0,1972,2291,1758,2
45979.0,1969,2289,1763,2
45980.0,1971,2288,1763,2
45981.0,1971,2287,1766,2
45982.0,1970,2290,1767,2
45983.0,1974,2292,1759,2
45984.0,1972,2285,1755,2
45985.0,1975,2290,1766,2
45986.0,1971,2285,1762,2
45987.0,1974,2290,1764,2
45988.0,1970,2286,1762,2
45989.0,1968,2288,1758,2
45990.0,1968,2284,1763,2
45991.0,1972,2289,1765,2
45992.0,1971,2292,1764,2
45993.0,1970,2287,1765,2
45994.0,1971,2284,1762,2
45995.0,1971,2289,1764,2
45996.0,1972,2289,1764,2
45997.0,1971,2289,1759,2
45998.0,1968,2291,1766,2
45999.0,1972,2288,1762,2
46000.0,1974,2289,1764,2
46001.0,1972,2289,1761,2
46002.0,1972,2289,1764,2
46003.0,1971,2289,1763,2
46004.0,1975,2291,1758,2
46005.0,1970,2287,1760,2
46006.0,1971,2290,1756,2
46007.0,1967,2287,1766,2
46008.0,1969,2288,1759,2
46009.0,1968,2286,1758,2
46010.0,1975,2289,1755,2
46011.0,1968,2288,1760,2
46012.0,1969,2293,1761,2
46013.0,1971,2288,1766,2
46014.0,1967,2283,1769,2
46015.0,1971,2288,1769,2
46016.0,1969,2285,1762,2
46017.0,1969,2292,1759,2
46018.0,1965,2286,1759,2
46019.0,1967,2287,1761,2
46020.0,1969,2284,1762,2
46021.0,1970,2287,1761,2
46022.0,1977,2286,1757,2
46023.0,1970,2285,1764,2
46024.0,1972,2285,1766,2
46025.0,1970,2282,1759,2
46026.0,1968,2293,1767,2
46027.0,1977,2294,1764,2
46028.0,1975,2292,1760,2
46029.0,1976,2291,1759,2
46030.0,1980,2293,1756,2
46031.0,1969,2292,1759,2
46032.0,1967,2287,1755,2
46033.0,1972,2293,1754,2
46034.0,1981,2289,1760,2
46035.0,1985,2285,1757,2
46036.0,1976,2291,1763,2
46037.0,1981,2294,1763,2
46038.0,1976,2290,1766,2
46039.0,1975,2295,1771,2
46040.0,1973,2292,1775,2
46041.0,1973,2283,1765,2
46042.0,1978,2290,1766,2
46043.0,1972,2290,1761,2
46044.0,1977,2289,1768,2
46045.0,1973,2289,1763,2
46046.0,1972,2293,1761,2
46047.0,1980,2291,1761,2
46048.0,1978,2282,1763,2
46049.0,1971,2278,1764,2
46050.0,1976,2287,1761,2
46051.0,1979,2289,1757,2
46052.0,1977,2289,1761,2
46053.0,1978,2288,1764,2
46054.0,1975,2287,1764,2
46055.0,1980,2286,1761,2
46056.0,1979,2284,1760,2
46057.0,1975,2286,1759,2
46058.0,1969,2286,1761,2
46059.0,1975,2285,1764,2
46060.0,1976,2287,1762,2
46061.0,1979,2288,1758,2
46062.0,1979,2294,1756,2
46063.0,1984,2285,1757,2
46064.0,1978,2285,1760,2
46065.0,1974,2289,1768,2
46066.0,1979,2284,1766,2
46067.0,1973,2284,1755,2
46068.0,1972,2282,1764,2
46069.0,1978,2286,1755,2
46070.0,1973,2283,1763,2
46071.0,1972,2286,1763,2
46072.0,1977,2284,1759,2
46073.0,1973,2285,1760,2
46074.0,1978,2289,1758,2
46075.0,1978,2287,1759,2
46076.0,1976,2291,1765,2
46077.0,1978,2288,1758,2
46078.0,1976,2291,1759,2
46079.0,1975,2285,1764,2
46080.0,1970,2287,1758,2
46081.0,1974,2288,1760,2
46082.0,1975,2287,1757,2
46083.0,1976,2288,1763,2
46084.0,1980,2289,1762,2
46085.0,1980,2288,1758,2
46086.0,1980,2289,1762,2
46087.0,1976,2288,1762,2
46088.0,1981,2286,1757,2
46089.0,1978,2291,1759,2
46090.0,1976,2288,1760,2
46091.0,1981,2283,1756,2
46092.0,1972,2285,1759,2
46093.0,1978,2286,1761,2
46094.0,1974,2284,1751,2
46095.0,1974,2285,1759,2
46096.0,1976,2279,1766,2
46097.0,1972,2286,1756,2
46098.0,1973,2286,1763,2
46099.0,1979,2283,1760,2
46100.0,1972,2293,1762,2
46101.0,1976,2289,1759,2
46102.0,1980,2284,1760,2
46103.0,1975,2289,1761,2
46104.0,1978,2292,1759,2
46105.0,1980,2290,1762,2
46106.0,1982,2287,1760,2
46107.0,1979,2285,1766,2
46108.0,1978,2288,1754,2
46109.0,1975,2285,1758,2
46110.0,1980,2284,1760,2
46111.0,1974,2288,1760,2
46112.0,1975,2286,1763,2
46113.0,1978,2285,1759,2
46114.0,1980,2284,1762,2
46115.0,1977,2289,1759,2
46116.0,1973,2285,1759,2
46117.0,1979,2285,1756,2
46118.0,1979,2285,1758,2
46119.0,1973,2283,1763,2
46120.0,1976,2284,1759,2
46121.0,1978,2287,1756,2
46122.0,1978,2285,1761,2
46123.0,1984,2286,1758,2
46124.0,1979,2285,1759,2
46125.0,1980,2286,1759,2
46126.0,1979,2283,1759,2
46127.0,1973,2286,1761,2
46128.0,1974,2285,1762,2
46129.0,1981,2286,1759,2
46130.0,1983,2288,1755,2
46131.0,1973,2283,1755,2
46132.0,1979,2290,1751,2
46133.0,1979,2287,1760,2
46134.0,1981,2286,1759,2
46135.0,1983,2284,1760,2
46136.0,1976,2285,1757,2
46137.0,1979,2287,1755,2
46138.0,1978,2289,1763,2
46139.0,1975,2288,1761,2
46140.0,1978,2284,1759,2
46141.0,1975,2288,1764,2
46142.0,1971,2284,1762,2
46143.0,1971,2289,1763,2
46144.0,1972,2287,1762,2
46145.0,1971,2289,1758,2
46146.0,1981,2286,1759,2
46147.0,1982,2289,1761,2
46148.0,1979,2290,1754,2
46149.0,1980,2289,1755,2
46150.0,1975,2283,1755,2
46151.0,1975,2287,1757,2
46152.0,1976,2288,1755,2
46153.0,1983,2287,1752,2
46154.0,1974,2283,1759,2
46155.0,1970,2278,1769,2
46156.0,1965,2297,1770,2
46157.0,1981,2303,1763,2
46158.0,1970,2300,1771,2
46159.0,1971,2304,1779,2
46160.0,1965,2300,1770,2
46161.0,1964,2298,1776,2
46162.0,1965,2298,1779,2
46163.0,1965,2300,1784,2
46164.0,1963,2289,1788,2
46165.0,1955,2294,1795,2
46166.0,1964,2304,1788,2
46167.0,1960,2298,1775,2
46168.0,1968,2301,1768,2
46169.0,1961,2299,1773,2
46170.0,1961,2301,1785,2
46171.0,1960,2295,1775,2
46172.0,1967,2297,1769,2
46173.0,1969,2296,1759,2
46174.0,1968,2292,1767,2
46175.0,1978,2295,1765,2
46176.0,1979,2296,1762,2
46177.0,1977,2296,1770,2
46178.0,1976,2297,1764,2
46179.0,1973,2292,1767,2
46180.0,1975,2297,1768,2
46181.0,1973,2292,1775,2
46182.0,1972,2291,1769,2
46183.0,1975,2293,1766,2
46184.0,1977,2295,1763,2
46185.0,1975,2290,1765,2
46186.0,1976,2297,1773,2
46187.0,1976,2301,1765,2
46188.0,1973,2293,1758,2
46189.0,1976,2293,1765,2
46190.0,1978,2289,1764,2
46191.0,1977,2287,1763,2
46192.0,1971,2292,1764,2
46193.0,1977,2291,1767,2
46194.0,1972,2291,1768,2
46195.0,1975,2291,1765,2
46196.0,1973,2287,1760,2
46197.0,1971,2287,1764,2
46198.0,1973,2290,1765,2
46199.0,1972,2294,1764,2
46200.0,1973,2293,1762,2
46201.0,1973,2289,1763,2
46202.0,1980,2286,1763,2
46203.0,1982,2291,1765,2
46204.0,1976,2286,1766,2
46205.0,1974,2291,1762,2
46206.0,1971,2287,1762,2
46207.0,1976,2292,1763,2
46208.0,1973,2290,1761,2
46209.0,1973,2293,1762,2
46210.0,1971,2291,1759,2
46211.0,1974,2286,1763,2
46212.0,1972,2293,1760,2
46213.0,1976,2292,1758,2
46214.0,1972,2291,1763,2
46215.0,1973,2287,1764,2
46216.0,1969,2290,1765,2
46217.0,1975,2292,1764,2
46218.0,1977,2291,1767,2
46219.0,1977,2291,1767,2
46220.0,1976,2289,1765,2
46221.0,1979,2291,1763,2
46222.0,1975,2288,1760,2
46223.0,1976,2291,1765,2
46224.0,1976,2287,1765,2
46225.0,1972,2292,1759,2
46226.0,1976,2291,1762,2
46227.0,1977,2291,1761,2
46228.0,1977,2289,1764,2
46229.0,1975,2284,1767,2
46230.0,1971,2293,1763,2
46231.0,1971,2293,1764,2
46232.0,1977,2288,1761,2
46233.0,1978,2291,1764,2
46234.0,1975,2291,1759,2
46235.0,1975,2287,1761,2
46236.0,1974,2290,1764,2
46237.0,1975,2292,1763,2
46238.0,1979,2289,1763,2
46239.0,1972,2287,1760,2
46240.0,1967,2284,1768,2
46241.0,1969,2285,1767,2
46242.0,1970,2281,1763,2
46243.0,1973,2286,1761,2
46244.0,1973,2287,1765,2
46245.0,1976,2289,1759,2
46246.0,1973,2289,1767,2
46247.0,1975,2289,1762,2
46248.0,1975,2289,1767,2
46249.0,1969,2289,1766,2
46250.0,1975,2283,1767,2
46251.0,1978,2289,1759,2
46252.0,1977,2287,1762,2
46253.0,1977,2285,1761,2
46254.0,1975,2288,1757,2
46255.0,1972,2285,1764,2
46256.0,1968,2287,1759,2
46257.0,1974,2285,1757,2
46258.0,1981,2294,1758,2
46259.0,1973,2291,1765,2
46260.0,1977,2290,1757,2
46261.0,1975,2289,1762,2
46262.0,1976,2288,1764,2
46263.0,1979,2287,1760,2
46264.0,1978,2295,1767,2
46265.0,1978,2284,1762,2
46266.0,1974,2287,1769,2
46267.0,1973,2290,1761,2
46268.0,1973,2291,1763,2
46269.0,1971,2287,1760,2
46270.0,1976,2292,1764,2
46271.0,1977,2290,1767,2
46272.0,1974,2286,1767,2
46273.0,1971,2286,1759,2
46274.0,1966,2287,1764,2
46275.0,1971,2289,1760,2
46276.0,1979,2286,1762,2
46277.0,1972,2284,1765,2
46278.0,1976,2289,1764,2
46279.0,1975,2290,1761,2
46280.0,1976,2287,1760,2
46281.0,1976,2288,1763,2
46282.0,1971,2285,1764,2
46283.0,1976,2289,1758,2
46284.0,1972,2284,1761,2
46285.0,1973,2288,1761,2
46286.0,1973,2287,1764,2
46287.0,1971,2289,1761,2
46288.0,1973,2287,1762,2
46289.0,1976,2290,1760,2
46290.0,1974,2285,1760,2
46291.0,1975,2287,1762,2
46292.0,1974,2288,1766,2
46293.0,1975,2287,1756,2
46294.0,1972,2288,1760,2
46295.0,1971,2287,1765,2
46296.0,1974,2289,1765,2
46297.0,1978,2293,1763,2
46298.0,1973,2285,1758,2
46299.0,1973,2292,1761,2
46300.0,1977,2287,1759,2
46301.0,1974,2287,1763,2
46302.0,1977,2291,1761,2
46303.0,1978,2287,1760,2
46304.0,1976,2286,1761,2
46305.0,1973,2287,1759,2
46306.0,1974,2289,1766,2
46307.0,1973,2287,1766,2
46308.0,1975,2285,1760,2
46309.0,1975,2285,1766,2
46310.0,1973,2291,1764,2
46311.0,1972,2285,1759,2
46312.0,1971,2288,1759,2
46313.0,1973,2287,1765,2
46314.0,1973,2288,1761,2
46315.0,1976,2283,1757,2
46316.0,1975,2285,1760,2
46317.0,1974,2291,1762,2
46318.0,1979,2285,1763,2
46319.0,1978,2286,1763,2
46320.0,1975,2284,1763,2
46321.0,1971,2290,1761,2
46322.0,1979,2290,1756,2
46323.0,1975,2287,1756,2
46324.0,1974,2288,1762,2
46325.0,1980,2285,1762,2
46326.0,1973,2288,1761,2
46327.0,1972,2287,1759,2
46328.0,1977,2288,1759,2
46329.0,1977,2284,1765,2
46330.0,1977,2287,1762,2
46331.0,1977,2285,1759,2
46332.0,1975,2286,1763,2
46333.0,1973,2294,1757,2
46334.0,1976,2290,1766,2
46335.0,1976,2288,1763,2
46336.0,1982,2290,1761,2
46337.0,1975,2293,1762,2
46338.0,1977,2287,1765,2
46339.0,1975,2291,1761,2
46340.0,1971,2289,1766,2
46341.0,1977,2285,1763,2
46342.0,1975,2279,1766,2
46343.0,1975,2290,1766,2
46344.0,1972,2291,1758,2
46345.0,1978,2288,1759,2
46346.0,1977,2288,1762,2
46347.0,1972,2285,1765,2
46348.0,1976,2284,1758,2
46349.0,1976,2283,1763,2
46350.0,1972,2287,1765,2
46351.0,1976,2292,1759,2
46352.0,1975,2289,1765,2
46353.0,1975,2288,1764,2
46354.0,1974,2286,1762,2
46355.0,1975,2287,1764,2
46356.0,1978,2288,1763,2
46357.0,1971,2286,1761,2
46358.0,1973,2290,1766,2
46359.0,1976,2291,1759,2
46360.0,1976,2289,1760,2
46361.0,1974,2296,1762,2
46362.0,1974,2291,1768,2
46363.0,1972,2286,1765,2
46364.0,1979,2290,1765,2
46365.0,1974,2288,1766,2
46366.0,1973,2287,1767,2
46367.0,1976,2286,1762,2
46368.0,1971,2285,1763,2
46369.0,1977,2293,1764,2
46370.0,1975,2289,1761,2
46371.0,1979,2288,1762,2
46372.0,1979,2292,1763,2
46373.0,1975,2289,1763,2
46374.0,1976,2289,1766,2
46375.0,1972,2287,1759,2
46376.0,1975,2285,1760,2
46377.0,1973,2286,1765,2
46378.0,1974,2288,1756,2
46379.0,1972,2289,1757,2
46380.0,1977,2284,1764,2
46381.0,1973,2287,1761,2
46382.0,1979,2287,1761,2
46383.0,1972,2287,1762,2
46384.0,1978,2291,1758,2
46385.0,1974,2287,1762,2
46386.0,1971,2282,1761,2
46387.0,1983,2289,1755,2
46388.0,1971,2283,1755,2
46389.0,1982,2285,1757,2
46390.0,1971,2282,1771,2
46391.0,1983,2290,1768,2
46392.0,1978,2289,1768,2
46393.0,1972,2293,1769,2
46394.0,1979,2292,1768,2
46395.0,1976,2292,1752,2
46396.0,1978,2299,1755,2
46397.0,1979,2290,1757,2
46398.0,1982,2297,1768,2
46399.0,1978,2289,1759,2
46400.0,1976,2293,1767,2
46401.0,1973,2290,1773,2
46402.0,1974,2294,1771,2
46403.0,1974,2292,1767,2
46404.0,1973,2297,1769,2
46405.0,1984,2288,1763,2
46406.0,1974,2287,1758,2
46407.0,1976,2289,1768,2
46408.0,1976,2290,1762,2
46409.0,1975,2291,1758,2
46410.0,1983,2287,1766,2
46411.0,1984,2287,1763,2
46412.0,1981,2284,1762,2
46413.0,1982,2287,1764,2
46414.0,1981,2286,1757,2
46415.0,1979,2287,1761,2
46416.0,1975,2288,1771,2
46417.0,1981,2292,1766,2
46418.0,1978,2291,1769,2
46419.0,1975,2291,1766,2
46420.0,1979,2286,1762,2
46421.0,1973,2283,1763,2
46422.0,1980,2285,1763,2
46423.0,1983,2286,1761,2
46424.0,1975,2288,1756,2
46425.0,1979,2290,1757,2
46426.0,1984,2288,1762,2
46427.0,1981,2290,1764,2
46428.0,1978,2289,1763,2
46429.0,1980,2293,1761,2
46430.0,1979,2285,1762,2
46431.0,1979,2285,1770,2
46432.0,1975,2286,1759,2
46433.0,1975,2291,1765,2
46434.0,1979,2287,1767,2
46435.0,1981,2290,1757,2
46436.0,1981,2284,1763,2
46437.0,1973,2288,1762,2
46438.0,1973,2290,1759,2
46439.0,1976,2281,1763,2
46440.0,1975,2286,1763,2
46441.0,1980,2286,1759,2
46442.0,1978,2289,1765,2
46443.0,1975,2288,1760,2
46444.0,1977,2284,1762,2
46445.0,1977,2286,1764,2
46446.0,1979,2291,1758,2
46447.0,1976,2293,1759,2
46448.0,1975,2287,1759,2
46449.0,1975,2288,1763,2
46450.0,1974,2289,1759,2
46451.0,1981,2288,1760,2
46452.0,1973,2285,1759,2
46453.0,1979,2286,1763,2
46454.0,1976,2287,1766,2
46455.0,1977,2285,1759,2
46456.0,1977,2288,1759,2
46457.0,1979,2288,1757,2
46458.0,1975,2291,1759,2
46459.0,1975,2287,1760,2
46460.0,1978,2288,1755,2
46461.0,1980,2285,1756,2
46462.0,1980,2289,1762,2
46463.0,1980,2290,1762,2
46464.0,1983,2289,1760,2
46465.0,1975,2287,1763,2
46466.0,1976,2291,1763,2
46467.0,1977,2285,1761,2
46468.0,1982,2294,1761,2
46469.0,1977,2288,1765,2
46470.0,1978,2283,1765,2
46471.0,1980,2287,1761,2
46472.0,1979,2286,1756,2
46473.0,1977,2289,1763,2
46474.0,1982,2286,1761,2
46475.0,1982,2288,1761,2
46476.0,1974,2288,1758,2
46477.0,1980,2285,1759,2
46478.0,1977,2286,1759,2
46479.0,1981,2289,1761,2
46480.0,1981,2289,1761,2
46481.0,1985,2286,1763,2
46482.0,1982,2289,1758,2
46483.0,1986,2290,1755,2
46484.0,1981,2289,1758,2
46485.0,1983,2288,1761,2
46486.0,1977,2291,1763,2
46487.0,1981,2289,1762,2
46488.0,1978,2285,1758,2
46489.0,1982,2284,1764,2
46490.0,1976,2291,1761,2
46491.0,1979,2286,1762,2
46492.0,1977,2287,1762,2
46493.0,1983,2287,1764,2
46494.0,1981,2291,1759,2
46495.0,1984,2285,1760,2
46496.0,1978,2288,1763,2
46497.0,1979,2291,1762,2
46498.0,1982,2292,1764,2
46499.0,1976,2288,1764,2
46500.0,1978,2285,1770,2
46501.0,1981,2285,1763,2
46502.0,1973,2289,1764,2
46503.0,1978,2291,1761,2
46504.0,1979,2287,1765,2
46505.0,1981,2286,1763,2
46506.0,1979,2291,1758,2
46507.0,1977,2289,1763,2
46508.0,1982,2287,1760,2
46509.0,1980,2290,1763,2
46510.0,1975,2294,1760,2
46511.0,1980,2285,1763,2
46512.0,1976,2291,1765,2
46513.0,1977,2288,1761,2
46514.0,1982,2289,1760,2
46515.0,1978,2293,1762,2
46516.0,1978,2283,1759,2
46517.0,1980,2288,1763,2
46518.0,1980,2287,1763,2
46519.0,1979,2286,1754,2
46520.0,1977,2289,1755,2
46521.0,1977,2287,1760,2
46522.0,1981,2287,1760,2
46523.0,1981,2286,1760,2
46524.0,1977,2291,1762,2
46525.0,1978,2286,1765,2
46526.0,1978,2284,1757,2
46527.0,1977,2288,1761,2
46528.0,1979,2282,1759,2
46529.0,1978,2284,1762,2
46530.0,1981,2291,1760,2
46531.0,1981,2287,1757,2
46532.0,1983,2285,1759,2
46533.0,1980,2287,1761,2
46534.0,1977,2287,1758,2
46535.0,1983,2289,1757,2
46536.0,1981,2288,1759,2
46537.0,1981,2283,1767,2
46538.0,1979,2287,1764,2
46539.0,1979,2288,1759,2
46540.0,1985,2291,1760,2
46541.0,1980,2284,1761,2
46542.0,1978,2285,1759,2
46543.0,1980,2286,1760,2
46544.0,1979,2285,1766,2
46545.0,1981,2287,1761,2
46546.0,1982,2289,1762,2
46547.0,1979,2287,1766,2
46548.0,1982,2285,1754,2
46549.0,1977,2283,1764,2
46550.0,1979,2287,1756,2
46551.0,1977,2285,1756,2
46552.0,1977,2287,1761,2
46553.0,1983,2286,1759,2
46554.0,1975,2281,1756,2
46555.0,1974,2281,1763,2
46556.0,1982,2287,1759,2
46557.0,1977,2285,1758,2
46558.0,1982,2290,1759,2
46559.0,1979,2287,1763,2
46560.0,1983,2283,1758,2
46561.0,1979,2285,1761,2
46562.0,1982,2286,1759,2
46563.0,1977,2290,1760,2
46564.0,1977,2285,1761,2
46565.0,1977,2283,1767,2
46566.0,1982,2288,1762,2
46567.0,1979,2288,1761,2
46568.0,1976,2287,1755,2
46569.0,1976,2286,1759,2
46570.0,1979,2284,1758,2
46571.0,1977,2290,1760,2
46572.0,1978,2277,1758,2
46573.0,1982,2283,1763,2
46574.0,1977,2285,1763,2
46575.0,1979,2287,1758,2
46576.0,1982,2289,1764,2
46577.0,1980,2286,1758,2
46578.0,1980,2287,1765,2
46579.0,1978,2286,1763,2
46580.0,1978,2286,1764,2
46581.0,1980,2288,1764,2
46582.0,1981,2285,1759,2
46583.0,1983,2288,1760,2
46584.0,1980,2287,1760,2
46585.0,1977,2285,1759,2
46586.0,1982,2284,1758,2
46587.0,1981,2292,1761,2
46588.0,1979,2286,1760,2
46589.0,1975,2286,1763,2
46590.0,1981,2282,1761,2
46591.0,1979,2287,1761,2
46592.0,1980,2284,1753,2
46593.0,1983,2287,1755,2
46594.0,1983,2289,1761,2
46595.0,1976,2287,1758,2
46596.0,1979,2283,1752,2
46597.0,1980,2283,1752,2
46598.0,1982,2287,1755,2
46599.0,1983,2285,1759,2
46600.0,1979,2286,1757,2
46601.0,1981,2285,1758,2
46602.0,1978,2282,1759,2
46603.0,1977,2289,1759,2
46604.0,1978,2284,1759,2
46605.0,1981,2284,1759,2
46606.0,1978,2288,1764,2
46607.0,1981,2283,1758,2
46608.0,1977,2284,1758,2
46609.0,1978,2283,1762,2
46610.0,1978,2288,1758,2
46611.0,1979,2287,1760,2
46612.0,1976,2282,1755,2
46613.0,1981,2285,1755,2
46614.0,1980,2283,1758,2
46615.0,1978,2286,1762,2
46616.0,1978,2283,1763,2
46617.0,1978,2287,1755,2
46618.0,1986,2287,1760,2
46619.0,1981,2287,1762,2
46620.0,1977,2286,1759,2
46621.0,1978,2282,1763,2
46622.0,1978,2288,1758,2
46623.0,1982,2289,1765,2
46624.0,1981,2284,1760,2
46625.0,1975,2292,1762,2
46626.0,1973,2285,1764,2
46627.0,1983,2290,1763,2
46628.0,1979,2291,1762,2
46629.0,1983,2284,1760,2
46630.0,1980,2288,1763,2
46631.0,1979,2283,1764,2
46632.0,1975,2289,1761,2
46633.0,1983,2285,1765,2
46634.0,1975,2286,1766,2
46635.0,1979,2286,1762,2
46636.0,1980,2288,1758,2
46637.0,1979,2288,1758,2
46638.0,1978,2288,1759,2
46639.0,1977,2287,1757,2
46640.0,1981,2288,1760,2
46641.0,1980,2291,1758,2
46642.0,1973,2290,1765,2
46643.0,1976,2291,1759,2
46644.0,1976,2285,1763,2
46645.0,1981,2291,1757,2
46646.0,1981,2287,1766,2
46647.0,1987,2289,1758,2
46648.0,1977,2291,1761,2
46649.0,1982,2289,1758,2
46650.0,1979,2290,1755,2
46651.0,1980,2287,1760,2
46652.0,1973,2288,1762,2
46653.0,1976,2290,1762,2
46654.0,1979,2288,1761,2
46655.0,1976,2291,1767,2
46656.0,1979,2293,1762,2
46657.0,1986,2293,1764,2
46658.0,1980,2289,1763,2
46659.0,1980,2288,1766,2
46660.0,1976,2287,1759,2
46661.0,1977,2284,1766,2
46662.0,1982,2282,1759,2
46663.0,1975,2287,1762,2
46664.0,1978,2283,1762,2
46665.0,1981,2286,1759,2
46666.0,1972,2290,1763,2
46667.0,1976,2283,1762,2
46668.0,1974,2287,1758,2
46669.0,1977,2284,1759,2
46670.0,1978,2290,1761,2
46671.0,1977,2291,1758,2
46672.0,1975,2289,1763,2
46673.0,1980,2285,1762,2
46674.0,1978,2288,1759,2
46675.0,1981,2286,1763,2
46676.0,1981,2283,1761,2
46677.0,1976,2288,1764,2
46678.0,1985,2285,1758,2
46679.0,1978,2286,1755,2
46680.0,1979,2287,1756,2
46681.0,1980,2286,1761,2
46682.0,1978,2291,1764,2
46683.0,1980,2283,1756,2
46684.0,1977,2286,1755,2
46685.0,1985,2281,1759,2
46686.0,1978,2286,1757,2
46687.0,1981,2282,1760,2
46688.0,1975,2289,1759,2
46689.0,1976,2283,1758,2
46690.0,1983,2287,1760,2
46691.0,1977,2287,1762,2
46692.0,1977,2284,1764,2
46693.0,1978,2286,1762,2
46694.0,1979,2280,1761,2
46695.0,1976,2287,1755,2
46696.0,1981,2283,1761,2
46697.0,1982,2287,1763,2
46698.0,1976,2281,1755,2
46699.0,1975,2281,1759,2
46700.0,1981,2286,1760,2
46701.0,1979,2287,1756,2
46702.0,1976,2284,1755,2
46703.0,1980,2288,1758,2
46704.0,1978,2286,1758,2
46705.0,1979,2281,1756,2
46706.0,1980,2282,1759,2
46707.0,1977,2286,1757,2
46708.0,1982,2285,1752,2
46709.0,1979,2281,1757,2
46710.0,1977,2282,1757,2
46711.0,1978,2283,1759,2
46712.0,1980,2282,1754,2
46713.0,1974,2286,1755,2
46714.0,1984,2282,1760,2
46715.0,1978,2281,1755,2
46716.0,1977,2286,1758,2
46717.0,1976,2281,1755,2
46718.0,1975,2286,1754,2
46719.0,1979,2285,1760,2
46720.0,1981,2287,1756,2
46721.0,1980,2285,1755,2
46722.0,1979,2282,1759,2
46723.0,1979,2284,1759,2
46724.0,1981,2284,1759,2
46725.0,1978,2282,1756,2
46726.0,1976,2285,1754,2
46727.0,1983,2282,1764,2
46728.0,1977,2287,1754,2
46729.0,1976,2283,1757,2
46730.0,1978,2285,1757,2
46731.0,1977,2284,1754,2
46732.0,1977,2282,1750,2
46733.0,1976,2284,1758,2
46734.0,1977,2283,1761,2
46735.0,1974,2287,1756,2
46736.0,1980,2284,1755,2
46737.0,1982,2283,1760,2
46738.0,1980,2279,1758,2
46739.0,1977,2285,1759,2
46740.0,1980,2287,1759,2
46741.0,1979,2282,1762,2
46742.0,1981,2281,1753,2
46743.0,1979,2287,1757,2
46744.0,1976,2285,1756,2
46745.0,1975,2284,1757,2
46746.0,1980,2283,1752,2
46747.0,1980,2287,1758,2
46748.0,1973,2288,1757,2
46749.0,1979,2282,1762,2
46750.0,1970,2291,1756,2
46751.0,1971,2294,1754,2
46752.0,1976,2306,1761,2
46753.0,1978,2303,1763,2
46754.0,1975,2307,1764,2
46755.0,1974,2313,1758,2
46756.0,1976,2306,1764,2
46757.0,1971,2302,1766,2
46758.0,1975,2307,1770,2
46759.0,1983,2307,1768,2
46760.0,1976,2298,1773,2
46761.0,1985,2300,1775,2
46762.0,1981,2305,1780,2
46763.0,1980,2301,1782,2
46764.0,1972,2299,1775,2
46765.0,1988,2306,1774,2
46766.0,1998,2309,1775,2
46767.0,2009,2309,1777,2
46768.0,2006,2307,1780,2
46769.0,2011,2303,1770,2
46770.0,2011,2293,1767,2
46771.0,2008,2274,1764,2
46772.0,2008,2261,1754,2
46773.0,2009,2261,1755,2
46774.0,2011,2264,1749,2
46775.0,2017,2264,1755,2
46776.0,2026,2260,1752,2
46777.0,2025,2263,1751,2
46778.0,2036,2261,1753,2
46779.0,2031,2263,1751,2
46780.0,2029,2263,1739,2
46781.0,2033,2259,1741,2
46782.0,2033,2263,1735,2
46783.0,2021,2269,1738,2
46784.0,2021,2263,1737,2
46785.0,2023,2261,1742,2
46786.0,2020,2263,1743,2
46787.0,2023,2259,1746,2
46788.0,2029,2257,1752,2
46789.0,2027,2270,1745,2
46790.0,2029,2268,1739,2
46791.0,2022,2269,1746,2
46792.0,2027,2259,1747,2
46793.0,2027,2259,1753,2
46794.0,2033,2257,1751,2
46795.0,2036,2259,1753,2
46796.0,2040,2267,1753,2
46797.0,2045,2262,1759,2
46798.0,2040,2273,1749,2
46799.0,2034,2269,1748,2
46800.0,2038,2265,1748,2
46801.0,2021,2259,1745,2
46802.0,2027,2253,1733,2
46803.0,2024,2254,1729,2
46804.0,2023,2277,1728,2
46805.0,2030,2276,1736,2
46806.0,2055,2244,1753,2
46807.0,2040,2261,1742,2
46808.0,2020,2252,1743,2
46809.0,2003,2252,1732,2
46810.0,2031,2243,1729,2
46811.0,2002,2238,1734,2
46812.0,2037,2232,1736,2
46813.0,1993,2245,1708,2
46814.0,2019,2227,1725,2
46815.0,2017,2235,1728,2
46816.0,2017,2235,1728,2
46817.0,2023,2235,1721,2
46818.0,2029,2243,1715,2
46819.0,2010,2227,1722,2
46820.0,2011,2227,1715,2
46821.0,2020,2235,1737,2
46822.0,2009,2245,1749,2
46823.0,2005,2246,1742,2
46824.0,2007,2250,1750,2
46825.0,2002,2259,1725,2
46826.0,1991,2276,1735,2
46827.0,1920,2342,1777,2
46828.0,2002,2311,1766,2
46829.0,2097,2177,1694,2
46830.0,2046,2222,1733,2
46831.0,2030,2269,1809,2
46832.0,2029,2266,1779,2
46833.0,2060,2243,1717,2
46834.0,2062,2284,1722,2
46835.0,2045,2289,1746,2
46836.0,2031,2278,1765,2
46837.0,1996,2308,1779,2
46838.0,2013,2273,1779,2
46839.0,1989,2290,1732,2
46840.0,1946,2334,1813,2
46841.0,1956,2370,1804,2
46842.0,1968,2341,1807,2
46843.0,2012,2305,1814,2
46844.0,2019,2302,1798,2
46845.0,2013,2315,1793,2
46846.0,1980,2325,1811,2
46847.0,1985,2333,1819,2
46848.0,1987,2332,1821,2
46849.0,1976,2326,1800,2
46850.0,1973,2324,1795,2
46851.0,1971,2330,1797,2
46852.0,1975,2335,1810,2
46853.0,1975,2335,1808,2
46854.0,1979,2333,1788,2
46855.0,1983,2338,1797,2
46856.0,1986,2350,1813,2
46857.0,1986,2349,1821,2
46858.0,1980,2335,1823,2
46859.0,1975,2327,1819,2
46860.0,1981,2321,1819,2
46861.0,1976,2322,1824,2
46862.0,1971,2327,1825,2
46863.0,1978,2324,1821,2
46864.0,1976,2328,1819,2
46865.0,1979,2330,1813,2
46866.0,1975,2328,1808,2
46867.0,1975,2333,1808,2
46868.0,1976,2334,1808,2
46869.0,1973,2335,1803,2
46870.0,1974,2332,1809,2
46871.0,1969,2334,1804,2
46872.0,1971,2330,1803,2
46873.0,1978,2331,1800,2
46874.0,1976,2329,1798,2
46875.0,1974,2319,1805,2
46876.0,1976,2324,1805,2
46877.0,1978,2322,1800,2
46878.0,1977,2323,1803,2
46879.0,1975,2328,1806,2
46880.0,1972,2325,1803,2
46881.0,1978,2322,1804,2
46882.0,1978,2326,1811,2
46883.0,1975,2327,1795,2
46884.0,1978,2317,1795,2
46885.0,1978,2323,1797,2
46886.0,1976,2327,1796,2
46887.0,1978,2323,1802,2
46888.0,1975,2317,1812,2
46889.0,1973,2323,1806,2
46890.0,1971,2324,1807,2
46891.0,1965,2318,1801,2
46892.0,1975,2317,1807,2
46893.0,1974,2327,1805,2
46894.0,1982,2320,1798,2
46895.0,1976,2320,1798,2
46896.0,1976,2318,1799,2
46897.0,1968,2316,1791,2
46898.0,1978,2314,1794,2
46899.0,1974,2320,1791,2
46900.0,1977,2314,1799,2
46901.0,1971,2316,1799,2
46902.0,1970,2311,1799,2
46903.0,1979,2313,1795,2
46904.0,1976,2313,1793,2
46905.0,1980,2315,1792,2
46906.0,1973,2312,1795,2
46907.0,1974,2315,1792,2
46908.0,1969,2319,1797,2
46909.0,1971,2314,1795,2
46910.0,1976,2318,1793,2
46911.0,1978,2315,1791,2
46912.0,1974,2315,1794,2
46913.0,1975,2313,1796,2
46914.0,1976,2312,1794,2
46915.0,1978,2310,1796,2
46916.0,1977,2313,1790,2
46917.0,1983,2314,1793,2
46918.0,1979,2306,1800,2
46919.0,1979,2310,1797,2
46920.0,1975,2312,1797,2
46921.0,1977,2312,1797,2
46922.0,1975,2311,1799,2
46923.0,1978,2311,1800,2
46924.0,1982,2318,1796,2
46925.0,1981,2308,1791,2
46926.0,1977,2317,1791,2
46927.0,1983,2315,1791,2
46928.0,1984,2313,1792,2
46929.0,1979,2312,1791,2
46930.0,1978,2312,1795,2
46931.0,1978,2306,1796,2
46932.0,1980,2318,1795,2
46933.0,1980,2318,1791,2
46934.0,1980,2318,1789,2
46935.0,1978,2311,1788,2
46936.0,1986,2315,1792,2
46937.0,1979,2317,1794,2
46938.0,1979,2319,1792,2
46939.0,1983,2313,1791,2
46940.0,1981,2312,1793,2
46941.0,1980,2312,1792,2
46942.0,1982,2309,1795,2
46943.0,1982,2313,1798,2
46944.0,1981,2316,1794,2
46945.0,1978,2310,1794,2
46946.0,1980,2312,1798,2
46947.0,1981,2313,1794,2
46948.0,1983,2311,1795,2
46949.0,1985,2311,1792,2
46950.0,1981,2314,1791,2
46951.0,1978,2316,1788,2
46952.0,1981,2321,1788,2
46953.0,1978,2315,1791,2
46954.0,1986,2312,1789,2
46955.0,1984,2309,1790,2
46956.0,1979,2316,1790,2
46957.0,1981,2311,1789,2
46958.0,1977,2315,1796,2
46959.0,1975,2311,1791,2
46960.0,1977,2309,1788,2
46961.0,1977,2310,1792,2
46962.0,1975,2308,1790,2
46963.0,1977,2309,1789,2
46964.0,1978,2313,1788,2
46965.0,1977,2312,1792,2
46966.0,1978,2312,1791,2
46967.0,1977,2311,1789,2
46968.0,1975,2311,1788,2
46969.0,1981,2313,1790,2
46970.0,1981,2313,1786,2
46971.0,1983,2311,1789,2
46972.0,1980,2317,1784,2
46973.0,1978,2309,1787,2
46974.0,1981,2307,1795,2
46975.0,1982,2311,1787,2
46976.0,1979,2311,1786,2
46977.0,1981,2312,1791,2
46978.0,1980,2312,1786,2
46979.0,1981,2316,1793,2
46980.0,1976,2311,1789,2
46981.0,1979,2313,1786,2
46982.0,1980,2312,1787,2
46983.0,1980,2314,1793,2
46984.0,1982,2308,1790,2
46985.0,1977,2316,1789,2
46986.0,1977,2314,1790,2
46987.0,1979,2311,1788,2
46988.0,1981,2310,1791,2
46989.0,1983,2309,1790,2
46990.0,1974,2313,1788,2
46991.0,1977,2311,1790,2
46992.0,1983,2315,1790,2
46993.0,1983,2309,1787,2
46994.0,1979,2315,1787,2
46995.0,1978,2316,1788,2
46996.0,1975,2311,1785,2
46997.0,1977,2315,1787,2
46998.0,1978,2327,1776,2
46999.0,1973,2327,1779,2
47000.0,1965,2330,1788,2
47001.0,1964,2332,1791,2
47002.0,1955,2344,1808,2
47003.0,1949,2341,1813,2
47004.0,1943,2348,1823,2
47005.0,1963,2346,1820,2
47006.0,1957,2325,1833,2
47007.0,1961,2309,1831,2
47008.0,1940,2311,1842,2
47009.0,1917,2331,1851,2
47010.0,1911,2345,1850,2
47011.0,1910,2339,1850,2
47012.0,1966,2296,1847,2
47013.0,1952,2283,1831,2
47014.0,1978,2298,1852,2
47015.0,1955,2318,1857,2
47016.0,1971,2339,1851,2
47017.0,1975,2356,1842,2
47018.0,1993,2356,1817,2
47019.0,1999,2344,1801,2
47020.0,1987,2338,1771,2
47021.0,1975,2322,1759,2
47022.0,1974,2304,1763,2
47023.0,1977,2288,1781,2
47024.0,1976,2303,1783,2
47025.0,1983,2307,1787,2
47026.0,1985,2315,1784,2
47027.0,1985,2322,1777,2
47028.0,1997,2322,1782,2
47029.0,1991,2315,1779,2
47030.0,1988,2302,1773,2
47031.0,2000,2291,1781,2
47032.0,1999,2287,1779,2
47033.0,2008,2288,1775,2
47034.0,1993,2301,1779,2
47035.0,1998,2313,1779,2
47036.0,1980,2293,1775,2
47037.0,1979,2303,1765,2
47038.0,1981,2313,1757,2
47039.0,1984,2305,1775,2
47040.0,2019,2292,1772,2
47041.0,1999,2287,1786,2
47042.0,1997,2275,1781,2
47043.0,2001,2280,1774,2
47044.0,2004,2271,1755,2
47045.0,1996,2268,1739,2
47046.0,1993,2265,1758,2
47047.0,1983,2267,1763,2
47048.0,1985,2288,1777,2
47049.0,1984,2281,1785,2
47050.0,1987,2268,1782,2
47051.0,1978,2286,1767,2
47052.0,1975,2319,1751,2
47053.0,1931,2284,1773,2
47054.0,1973,2319,1755,2
47055.0,1963,2305,1783,2
47056.0,1953,2293,1804,2
47057.0,1965,2282,1800,2
47058.0,1951,2295,1796,2
47059.0,1927,2305,1799,2
47060.0,1921,2292,1823,2
47061.0,1921,2315,1815,2
47062.0,1930,2327,1820,2
47063.0,1907,2360,1806,2
47064.0,1931,2401,1775,2
47065.0,1891,2418,1766,2
47066.0,1893,2427,1775,2
47067.0,1952,2355,1844,2
47068.0,1935,2327,1876,2
47069.0,1914,2378,1878,2
47070.0,1872,2466,1867,2
47071.0,1833,2504,1914,2
47072.0,1883,2498,1944,2
47073.0,1929,2456,1941,2
47074.0,1915,2386,1967,2
47075.0,1905,2429,1971,2
47076.0,1843,2443,1941,2
47077.0,1819,2479,1950,2
47078.0,1863,2455,1972,2
47079.0,1890,2443,1966,2
47080.0,1903,2389,1944,2
47081.0,1894,2409,1945,2
47082.0,1903,2449,1917,2
47083.0,1911,2479,1970,2
47084.0,1905,2458,2016,2
47085.0,1928,2453,2066,2
47086.0,1998,2445,2005,2
47087.0,1968,2414,1994,2
47088.0,1934,2443,1981,2
47089.0,1913,2470,1980,2
47090.0,1974,2412,2007,2
47091.0,1970,2412,2007,2
47092.0,1939,2424,2007,2
47093.0,1954,2410,2023,2
47094.0,2016,2403,2028,2
47095.0,2029,2381,2030,2
47096.0,1999,2357,2023,2
47097.0,2011,2348,2027,2
47098.0,2006,2327,2042,2
47099.0,1970,2290,2013,2
47100.0,1993,2284,2018,2
47101.0,1985,2246,2001,2
47102.0,2011,2225,2009,2
47103.0,2018,2213,2020,2
47104.0,2039,2214,2028,2
47105.0,2046,2236,2052,2
47106.0,2076,2231,2051,2
47107.0,2106,2234,2073,2
47108.0,2144,2242,2111,2
47109.0,2174,2263,2093,2
47110.0,2151,2277,2047,2
47111.0,2136,2306,2015,2
47112.0,2104,2343,2011,2
47113.0,2103,2357,2021,2
47114.0,2116,2367,2022,2
47115.0,2123,2367,2015,2
47116.0,2123,2367,1996,2
47117.0,2114,2369,1985,2
47118.0,2114,2365,1974,2
47119.0,2094,2367,1974,2
47120.0,2082,2352,1977,2
47121.0,2073,2348,1977,2
47122.0,2069,2369,1977,2
47123.0,2087,2371,1964,2
47124.0,2112,2384,1956,2
47125.0,2113,2373,1974,2
47126.0,2062,2372,2024,2
47127.0,2074,2339,2006,2
47128.0,2049,2312,1988,2
47129.0,2034,2304,1996,2
47130.0,2027,2316,2018,2
47131.0,2020,2343,2031,2
47132.0,2035,2384,2042,2
47133.0,2067,2409,2011,2
47134.0,2096,2403,1989,2
47135.0,2085,2386,1943,2
47136.0,2080,2355,1915,2
47137.0,2081,2337,1907,2
47138.0,2098,2345,1907,2
47139.0,2081,2349,1919,2
47140.0,2033,2373,1938,2
47141.0,2003,2384,1953,2
47142.0,2010,2375,1971,2
47143.0,2035,2348,1957,2
47144.0,2050,2338,1933,2
47145.0,2067,2334,1927,2
47146.0,2114,2336,1917,2
47147.0,2086,2332,1938,2
47148.0,2086,2345,1961,2
47149.0,2076,2362,2007,2
47150.0,2063,2401,2034,2
47151.0,2033,2417,2017,2
47152.0,2022,2407,1992,2
47153.0,2016,2421,1999,2
47154.0,2002,2436,2017,2
47155.0,2017,2430,2052,2
47156.0,2114,2442,2040,2
47157.0,2200,2466,2038,2
47158.0,2260,2467,2054,2
47159.0,2272,2408,2058,2
47160.0,2230,2354,2021,2
47161.0,2183,2334,2007,2
47162.0,2144,2319,2010,2
47163.0,2125,2333,2011,2
47164.0,2114,2349,2003,2
47165.0,2113,2344,1986,2
47166.0,2125,2304,1995,2
47167.0,2123,2297,2018,2
47168.0,2115,2333,2053,2
47169.0,2089,2351,2081,2
47170.0,2065,2374,2062,2
47171.0,2043,2395,2036,2
47172.0,2062,2396,2020,2
47173.0,2077,2387,1986,2
47174.0,2088,2376,1964,2
47175.0,2085,2363,1954,2
47176.0,2076,2362,1947,2
47177.0,2073,2367,1975,2
47178.0,2076,2375,2010,2
47179.0,2074,2374,2044,2
47180.0,2073,2366,2047,2
47181.0,2075,2359,2045,2
47182.0,2068,2366,2048,2
47183.0,2062,2371,2030,2
47184.0,2060,2364,2017,2
47185.0,2062,2373,2005,2
47186.0,2069,2385,1996,2
47187.0,2069,2379,1982,2
47188.0,2075,2365,1994,2
47189.0,2067,2359,2002,2
47190.0,2058,2362,2011,2
47191.0,2043,2371,2008,2
47192.0,2039,2389,1993,2
47193.0,2028,2416,1989,2
47194.0,2007,2414,1973,2
47195.0,1999,2408,1957,2
47196.0,2015,2403,1917,2
47197.0,2022,2382,1899,2
47198.0,2016,2364,1885,2
47199.0,2007,2370,1871,2
47200.0,1999,2383,1910,2
47201.0,2018,2383,1931,2
47202.0,2032,2357,1967,2
47203.0,2059,2364,2003,2
47204.0,2064,2365,2031,2
47205.0,2058,2367,2037,2
47206.0,2041,2367,2015,2
47207.0,2014,2370,1990,2
47208.0,2013,2384,1967,2
47209.0,2003,2403,1958,2
47210.0,2008,2426,1958,2
47211.0,2003,2445,1969,2
47212.0,2007,2431,1976,2
47213.0,2019,2421,1984,2
47214.0,2031,2399,1978,2
47215.0,2039,2375,1982,2
47216.0,2038,2376,1987,2
47217.0,2032,2384,1993,2
47218.0,2035,2392,1997,2
47219.0,2039,2388,1979,2
47220.0,2018,2386,1970,2
47221.0,2011,2393,1965,2
47222.0,2016,2392,1964,2
47223.0,2017,2401,1967,2
47224.0,2023,2407,1961,2
47225.0,2029,2406,1974,2
47226.0,2034,2396,1975,2
47227.0,2033,2388,1975,2
47228.0,2043,2379,1979,2
47229.0,2039,2378,1982,2
47230.0,2045,2383,1980,2
47231.0,2044,2370,1981,2
47232.0,2052,2358,1978,2
47233.0,2040,2340,1962,2
47234.0,2029,2343,1959,2
47235.0,2021,2353,1961,2
47236.0,2021,2345,1980,2
47237.0,2034,2357,1983,2
47238.0,2036,2358,1981,2
47239.0,2042,2355,1976,2
47240.0,2043,2354,1968,2
47241.0,2045,2357,1964,2
47242.0,2042,2356,1966,2
47243.0,2040,2357,1961,2
47244.0,2036,2354,1957,2
47245.0,2047,2367,1951,2
47246.0,2059,2371,1946,2
47247.0,2064,2371,1938,2
47248.0,2067,2380,1936,2
47249.0,2070,2385,1936,2
47250.0,2088,2395,1931,2
47251.0,2095,2401,1940,2
47252.0,2105,2394,1950,2
47253.0,2109,2412,1954,2
47254.0,2090,2423,1964,2
47255.0,2082,2407,1964,2
47256.0,2113,2391,1989,2
47257.0,2141,2379,2017,2
47258.0,2171,2375,2050,2
47259.0,2171,2347,2073,2
47260.0,2078,2357,2060,2
47261.0,2080,2355,2063,2
47262.0,2082,2358,2060,2
47263.0,2054,2380,2066,2
47264.0,2038,2408,2074,2
47265.0,2039,2404,2071,2
47266.0,2075,2386,2064,2
47267.0,2104,2381,2049,2
47268.0,2131,2366,2025,2
47269.0,2151,2341,2007,2
47270.0,2166,2314,1977,2
47271.0,2130,2315,1981,2
47272.0,2115,2323,1987,2
47273.0,2112,2337,1982,2
47274.0,2121,2346,1988,2
47275.0,2118,2348,1987,2
47276.0,2121,2353,1984,2
47277.0,2118,2356,1980,2
47278.0,2112,2346,1966,2
47279.0,2104,2343,1958,2
47280.0,2101,2343,1955,2
47281.0,2093,2356,1956,2
47282.0,2091,2399,1960,2
47283.0,2095,2453,1972,2
47284.0,2096,2449,1974,2
47285.0,2070,2372,1978,2
47286.0,2020,2378,1999,2
47287.0,1955,2405,2005,2
47288.0,1911,2456,2046,2
47289.0,1945,2488,2006,2
47290.0,1992,2400,1982,2
47291.0,2079,2407,1950,2
47292.0,2123,2433,1927,2
47293.0,2110,2368,1950,2
47294.0,2157,2339,1938,2
47295.0,2153,2297,1909,2
47296.0,2125,2300,1914,2
47297.0,2099,2291,1902,2
47298.0,2090,2272,1909,2
47299.0,2074,2302,1934,2
47300.0,2063,2328,1937,2
47301.0,2087,2344,1932,2
47302.0,2114,2362,1910,2
47303.0,2136,2369,1892,2
47304.0,2157,2385,1883,2
47305.0,2153,2426,1879,2
47306.0,2092,2460,1902,2
47307.0,2044,2516,1948,2
47308.0,1960,2459,2032,2
47309.0,2050,2361,1990,2
47310.0,2115,2263,1962,2
47311.0,2133,2265,1981,2
47312.0,2076,2334,2026,2
47313.0,2060,2399,2023,2
47314.0,2044,2417,2010,2
47315.0,2031,2416,2015,2
47316.0,2046,2387,2007,2
47317.0,2067,2334,2009,2
47318.0,2096,2310,1993,2
47319.0,2106,2300,1973,2
47320.0,2102,2326,1958,2
47321.0,2099,2353,1955,2
47322.0,2101,2369,1966,2
47323.0,2093,2367,1997,2
47324.0,2077,2360,2012,2
47325.0,2082,2365,2025,2
47326.0,2080,2361,2022,2
47327.0,2064,2349,2007,2
47328.0,2036,2318,2005,2
47329.0,2036,2346,2004,2
47330.0,2037,2360,2005,2
47331.0,2051,2383,2023,2
47332.0,2050,2417,2034,2
47333.0,2048,2437,2039,2
47334.0,2046,2485,2043,2
47335.0,2042,2507,2028,2
47336.0,2031,2516,2014,2
47337.0,2041,2501,1970,2
47338.0,2045,2447,1939,2
47339.0,2013,2389,1934,2
47340.0,1938,2376,1935,2
47341.0,1864,2387,1931,2
47342.0,1870,2425,1905,2
47343.0,1900,2402,1866,2
47344.0,1997,2374,1866,2
47345.0,2076,2362,1890,2
47346.0,2097,2355,1914,2
47347.0,2155,2363,1954,2
47348.0,2157,2346,2000,2
47349.0,2109,2346,2008,2
47350.0,2054,2320,1992,2
47351.0,2021,2307,1956,2
47352.0,2034,2301,1937,2
47353.0,2049,2319,1927,2
47354.0,2088,2327,1928,2
47355.0,2115,2327,1935,2
47356.0,2133,2333,1919,2
47357.0,2118,2335,1916,2
47358.0,2120,2347,1919,2
47359.0,2115,2365,1860,2
47360.0,2130,2329,1896,2
47361.0,2143,2327,1942,2
47362.0,2148,2319,1972,2
47363.0,2135,2323,1984,2
47364.0,2112,2322,1958,2
47365.0,2092,2362,1933,2
47366.0,2088,2404,1901,2
47367.0,2092,2405,1847,2
47368.0,2104,2407,1806,2
47369.0,2117,2417,1857,2
47370.0,2129,2440,1962,2
47371.0,2131,2477,2037,2
47372.0,2108,2485,2044,2
47373.0,2030,2425,2034,2
47374.0,2010,2394,2012,2
47375.0,1996,2394,2023,2
47376.0,1980,2400,2042,2
47377.0,1994,2395,2053,2
47378.0,2022,2403,2059,2
47379.0,2068,2391,2050,2
47380.0,2117,2368,2026,2
47381.0,2120,2322,2025,2
47382.0,2127,2285,2015,2
47383.0,2129,2266,2001,2
47384.0,2105,2271,2006,2
47385.0,2088,2286,2009,2
47386.0,2085,2305,2029,2
47387.0,2091,2320,2056,2
47388.0,2106,2337,2064,2
47389.0,2123,2338,2053,2
47390.0,2144,2339,2036,2
47391.0,2145,2327,2010,2
47392.0,2149,2327,2015,2
47393.0,2142,2329,2014,2
47394.0,2131,2338,2016,2
47395.0,2135,2375,2024,2
47396.0,2144,2408,2018,2
47397.0,2137,2419,2020,2
47398.0,2119,2429,2019,2
47399.0,2124,2473,2004,2
47400.0,2110,2490,1989,2
47401.0,2080,2433,2000,2
47402.0,2043,2354,2007,2
47403.0,2002,2331,2004,2
47404.0,1979,2362,1987,2
47405.0,1976,2417,1976,2
47406.0,1984,2435,1971,2
47407.0,1989,2463,1996,2
47408.0,1970,2459,2001,2
47409.0,1932,2428,1989,2
47410.0,2001,2404,1981,2
47411.0,2024,2368,1937,2
47412.0,2060,2367,1909,2
47413.0,2072,2331,1940,2
47414.0,2153,2323,1936,2
47415.0,2122,2335,1941,2
47416.0,2100,2351,1951,2
47417.0,2115,2327,1954,2
47418.0,2126,2313,1964,2
47419.0,2119,2321,1969,2
47420.0,2110,2331,1969,2
47421.0,2120,2354,1958,2
47422.0,2122,2387,1944,2
47423.0,2121,2411,1923,2
47424.0,2164,2397,1926,2
47425.0,2199,2397,1895,2
47426.0,2247,2485,1888,2
47427.0,2195,2536,1930,2
47428.0,2045,2469,1997,2
47429.0,1987,2430,2078,2
47430.0,2116,2360,2076,2
47431.0,2119,2365,2079,2
47432.0,2119,2373,2070,2
47433.0,2101,2390,2027,2
47434.0,2087,2381,2013,2
47435.0,2067,2345,2002,2
47436.0,2055,2309,1994,2
47437.0,2040,2283,1994,2
47438.0,2036,2274,1975,2
47439.0,2039,2263,1974,2
47440.0,2039,2275,1966,2
47441.0,2051,2288,1988,2
47442.0,2062,2299,2002,2
47443.0,2075,2313,2011,2
47444.0,2080,2328,1998,2
47445.0,2093,2335,1979,2
47446.0,2100,2344,1965,2
47447.0,2117,2359,1946,2
47448.0,2125,2382,1945,2
47449.0,2133,2391,1956,2
47450.0,2146,2389,1963,2
47451.0,2151,2388,1957,2
47452.0,2160,2459,1955,2
47453.0,2162,2499,1954,2
47454.0,2160,2491,1943,2
47455.0,2087,2387,1943,2
47456.0,2023,2334,1936,2
47457.0,1985,2337,1935,2
47458.0,1959,2314,1947,2
47459.0,1965,2363,1990,2
47460.0,1933,2439,1987,2
47461.0,1953,2476,1944,2
47462.0,1988,2479,2029,2
47463.0,2034,2417,1988,2
47464.0,2061,2346,1952,2
47465.0,2095,2327,1957,2
47466.0,2101,2308,1950,2
47467.0,2106,2298,1930,2
47468.0,2115,2315,1930,2
47469.0,2122,2318,1917,2
47470.0,2147,2333,1905,2
47471.0,2161,2332,1905,2
47472.0,2172,2282,1922,2
47473.0,2161,2261,1909,2
47474.0,2122,2244,1929,2
47475.0,2049,2231,1979,2
47476.0,2259,2427,1952,2
47477.0,2323,2389,1847,2
47478.0,2165,2353,1879,2
47479.0,2094,2426,1941,2
47480.0,2046,2460,1976,2
47481.0,1981,2474,1922,2
47482.0,1931,2467,1926,2
47483.0,1973,2494,2026,2
47484.0,2072,2499,2177,2
47485.0,2283,2417,2208,2
47486.0,2396,2306,2214,2
47487.0,2261,2321,2031,2
47488.0,2093,2376,1986,2
47489.0,2013,2394,1931,2
47490.0,2014,2375,1914,2
47491.0,2038,2304,1921,2
47492.0,2088,2296,1951,2
47493.0,2116,2297,1985,2
47494.0,2170,2285,2031,2
47495.0,2184,2280,2044,2
47496.0,2171,2294,2040,2
47497.0,2162,2284,2022,2
47498.0,2078,2310,1995,2
47499.0,2080,2326,1982,2
47500.0,2095,2350,1959,2
47501.0,2106,2383,1951,2
47502.0,2115,2417,1972,2
47503.0,2126,2433,1992,2
47504.0,2148,2430,2012,2
47505.0,2132,2343,2020,2
47506.0,2097,2323,1982,2
47507.0,2026,2353,1965,2
47508.0,2008,2418,1983,2
47509.0,2025,2473,1971,2
47510.0,2099,2455,1960,2
47511.0,2172,2415,1919,2
47512.0,2161,2354,1915,2
47513.0,2140,2322,1907,2
47514.0,2099,2269,1914,2
47515.0,2092,2241,1962,2
47516.0,2105,2212,1997,2
47517.0,2101,2226,2001,2
47518.0,2060,2240,1979,2
47519.0,2029,2260,1949,2
47520.0,2002,2290,1927,2
47521.0,2009,2346,1899,2
47522.0,2018,2405,1883,2
47523.0,2050,2432,1870,2
47524.0,2091,2435,1858,2
47525.0,2102,2415,1861,2
47526.0,2151,2375,1868,2
47527.0,2187,2335,1881,2
47528.0,2185,2325,1903,2
47529.0,2140,2374,1868,2
47530.0,2105,2396,1922,2
47531.0,2117,2419,1960,2
47532.0,2127,2440,2034,2
47533.0,2143,2444,2051,2
47534.0,2135,2398,2065,2
47535.0,2120,2398,2106,2
47536.0,2088,2383,2141,2
47537.0,2074,2391,2159,2
47538.0,2025,2407,2154,2
47539.0,2043,2376,2069,2
47540.0,2053,2373,2001,2
47541.0,2062,2404,1965,2
47542.0,2053,2408,1975,2
47543.0,2075,2412,1965,2
47544.0,2046,2365,1997,2
47545.0,2057,2339,2008,2
47546.0,2098,2332,2033,2
47547.0,2104,2341,2037,2
47548.0,2113,2342,2079,2
47549.0,2156,2367,2128,2
47550.0,2189,2372,2194,2
47551.0,2170,2381,2155,2
47552.0,2103,2394,2101,2
47553.0,2115,2382,2039,2
47554.0,2112,2371,2019,2
47555.0,2118,2365,2027,2
47556.0,2122,2358,2017,2
47557.0,2107,2363,2006,2
47558.0,2099,2376,2004,2
47559.0,2097,2378,2001,2
47560.0,2101,2364,2003,2
47561.0,2112,2373,2014,2
47562.0,2106,2382,2035,2
47563.0,2083,2380,2041,2
47564.0,2072,2365,2043,2
47565.0,2075,2368,2049,2
47566.0,2077,2368,2050,2
47567.0,2075,2366,2035,2
47568.0,2083,2379,2030,2
47569.0,2090,2380,2040,2
47570.0,2093,2384,2050,2
47571.0,2085,2394,2056,2
47572.0,2080,2409,2050,2
47573.0,2078,2412,2042,2
47574.0,2095,2389,2034,2
47575.0,2114,2360,2033,2
47576.0,2119,2349,2019,2
47577.0,2117,2351,2019,2
47578.0,2108,2360,2034,2
47579.0,2099,2341,2050,2
47580.0,2103,2339,2066,2
47581.0,2106,2348,2068,2
47582.0,2111,2351,2073,2
47583.0,2120,2355,2057,2
47584.0,2131,2359,2047,2
47585.0,2116,2363,2051,2
47586.0,2100,2362,2043,2
47587.0,2091,2363,2041,2
47588.0,2089,2361,2039,2
47589.0,2088,2359,2038,2
47590.0,2088,2366,2041,2
47591.0,2090,2360,2037,2
47592.0,2093,2365,2036,2
47593.0,2097,2363,2041,2
47594.0,2096,2363,2048,2
47595.0,2092,2366,2040,2
47596.0,2099,2362,2044,2
47597.0,2105,2364,2045,2
47598.0,2108,2355,2050,2
47599.0,2112,2359,2046,2
47600.0,2115,2363,2058,2
47601.0,2114,2362,2060,2
47602.0,2114,2362,2059,2
47603.0,2116,2362,2058,2
47604.0,2114,2360,2056,2
47605.0,2117,2361,2046,2
47606.0,2117,2363,2042,2
47607.0,2111,2363,2042,2
47608.0,2108,2356,2041,2
47609.0,2104,2351,2040,2
47610.0,2109,2357,2039,2
47611.0,2114,2363,2037,2
47612.0,2112,2354,2041,2
47613.0,2115,2357,2037,2
47614.0,2109,2359,2036,2
47615.0,2113,2355,2040,2
47616.0,2117,2360,2040,2
47617.0,2115,2359,2037,2
47618.0,2116,2358,2039,2
47619.0,2112,2361,2042,2
47620.0,2112,2359,2046,2
47621.0,2111,2367,2038,2
47622.0,2110,2365,2040,2
47623.0,2108,2358,2038,2
47624.0,2109,2360,2035,2
47625.0,2115,2362,2036,2
47626.0,2110,2368,2042,2
47627.0,2106,2359,2039,2
47628.0,2101,2349,2046,2
47629.0,2091,2363,2046,2
47630.0,2083,2372,2043,2
47631.0,2085,2384,2051,2
47632.0,2094,2387,2052,2
47633.0,2089,2387,2041,2
47634.0,2089,2381,2039,2
47635.0,2093,2379,2021,2
47636.0,2097,2377,2024,2
47637.0,2102,2377,2025,2
47638.0,2102,2377,2027,2
47639.0,2092,2375,2036,2
48750.0,1907,2345,2067,2
48751.0,1900,2344,2077,2
48752.0,1887,2340,2072,2
48753.0,1888,2341,2059,2
48754.0,1893,2339,2045,2
48755.0,1895,2337,2047,2
48756.0,1904,2337,2063,2
48757.0,1908,2341,2083,2
48758.0,1923,2331,2086,2
48759.0,1928,2336,2080,2
48760.0,1923,2346,2073,2
48761.0,1920,2350,2072,2
48762.0,1916,2348,2068,2
48763.0,1897,2351,2061,2
48764.0,1889,2356,2043,2
48765.0,1895,2360,2036,2
48766.0,1900,2360,2052,2
48767.0,1911,2355,2058,2
48768.0,1921,2347,2068,2
48769.0,1915,2349,2073,2
48770.0,1912,2349,2071,2
48771.0,1908,2353,2067,2
48772.0,1912,2350,2061,2
48773.0,1905,2341,2051,2
48774.0,1898,2353,2050,2
48775.0,1892,2355,2049,2
48776.0,1900,2348,2068,2
48777.0,1901,2345,2075,2
48778.0,1908,2340,2075,2
48779.0,1918,2344,2077,2
48780.0,1919,2342,2071,2
48781.0,1910,2347,2068,2
48782.0,1909,2348,2070,2
48783.0,1906,2347,2059,2
48784.0,1901,2355,2046,2
48785.0,1903,2357,2046,2
48786.0,1903,2354,2055,2
48787.0,1900,2335,2061,2
48788.0,1902,2336,2070,2
48789.0,1920,2348,2078,2
48790.0,1904,2353,2055,2
48791.0,1905,2354,2055,2
48792.0,1910,2358,2052,2
48793.0,1890,2367,2055,2
48794.0,1883,2360,2058,2
48795.0,1892,2347,2080,2
48796.0,1903,2345,2096,2
48797.0,1918,2341,2092,2
48798.0,1919,2338,2092,2
48799.0,1917,2343,2087,2
48800.0,1916,2345,2076,2
48801.0,1919,2350,2071,2
48802.0,1915,2351,2069,2
48803.0,1909,2348,2063,2
48804.0,1903,2350,2061,2
48805.0,1894,2353,2067,2
48806.0,1906,2350,2078,2
48807.0,1904,2355,2081,2
48808.0,1916,2346,2087,2
48809.0,1911,2349,2089,2
48810.0,1924,2351,2078,2
48811.0,1929,2352,2074,2
48812.0,1930,2350,2070,2
48813.0,1925,2350,2066,2
48814.0,1903,2351,2068,2
48815.0,1905,2339,2077,2
48816.0,1909,2338,2083,2
48817.0,1900,2357,2079,2
48818.0,1905,2360,2071,2
48819.0,1922,2354,2077,2
48820.0,1932,2341,2083,2
48821.0,1925,2346,2078,2
48822.0,1919,2351,2073,2
48823.0,1923,2346,2072,2
48824.0,1906,2354,2074,2
48825.0,1899,2349,2079,2
48826.0,1896,2347,2084,2
48827.0,1904,2338,2090,2
48828.0,1911,2337,2079,2
48829.0,1913,2344,2082,2
48830.0,1921,2348,2085,2
48831.0,1928,2346,2082,2
48832.0,1927,2344,2075,2
48833.0,1921,2349,2078,2
48834.0,1915,2342,2087,2
48835.0,1907,2341,2076,2
48836.0,1901,2350,2075,2
48837.0,1902,2352,2075,2
48838.0,1904,2347,2065,2
48839.0,1907,2353,2078,2
48840.0,1928,2347,2084,2
48841.0,1928,2347,2090,2
48842.0,1937,2354,2083,2
48843.0,1934,2350,2074,2
48844.0,1921,2348,2071,2
48845.0,1911,2345,2070,2
48846.0,1906,2342,2080,2
48847.0,1910,2333,2086,2
48848.0,1908,2336,2086,2
48849.0,1914,2339,2089,2
48850.0,1919,2341,2093,2
48851.0,1935,2342,2102,2
48852.0,1936,2344,2103,2
48853.0,1926,2346,2096,2
48854.0,1923,2343,2088,2
48855.0,1915,2343,2090,2
48856.0,1909,2344,2101,2
48857.0,1903,2339,2100,2
48858.0,1912,2349,2104,2
48859.0,1915,2350,2093,2
48860.0,1918,2366,2093,2
48861.0,1915,2369,2098,2
48862.0,1911,2363,2100,2
48863.0,1912,2361,2095,2
48864.0,1918,2365,2088,2
48865.0,1900,2360,2071,2
48866.0,1891,2358,2069,2
48867.0,1893,2339,2078,2
48868.0,1899,2335,2087,2
48869.0,1906,2341,2087,2
48870.0,1907,2336,2092,2
48871.0,1918,2332,2096,2
48872.0,1911,2330,2105,2
48873.0,1904,2322,2134,2
48874.0,1912,2339,2105,2
48875.0,1949,2367,1973,2
48876.0,1934,2390,2017,2
48877.0,1924,2371,2042,2
48878.0,1913,2354,2059,2
48879.0,1913,2359,2079,2
48880.0,1905,2339,2071,2
48881.0,1897,2342,2051,2
48882.0,1888,2345,2047,2
48883.0,1906,2357,2043,2
48884.0,1905,2357,2042,2
48885.0,1902,2348,2034,2
48886.0,1899,2339,2024,2
48887.0,1893,2335,2023,2
48888.0,1890,2331,2025,2
48889.0,1892,2337,2027,2
48890.0,1897,2342,2028,2
48891.0,1900,2350,2025,2
48892.0,1908,2357,2016,2
48893.0,1909,2366,2011,2
48894.0,1906,2356,2014,2
48895.0,1905,2351,2007,2
48896.0,1895,2354,2007,2
48897.0,1891,2346,2014,2
48898.0,1891,2343,2017,2
48899.0,1891,2346,2019,2
48900.0,1886,2359,2019,2
48901.0,1896,2350,2016,2
48902.0,1890,2349,2016,2
48903.0,1888,2346,2027,2
48904.0,1895,2345,2023,2
48905.0,1898,2353,2011,2
48906.0,1905,2354,2004,2
48907.0,1900,2359,2006,2
48908.0,1889,2358,2003,2
48909.0,1892,2387,1999,2
48910.0,1893,2400,2009,2
48911.0,1899,2377,2010,2
48912.0,1888,2369,2004,2
48913.0,1882,2354,2004,2
48914.0,1881,2338,1999,2
48915.0,1877,2327,2004,2
48916.0,1867,2320,2004,2
48917.0,1857,2332,1999,2
48918.0,1836,2350,1991,2
48919.0,1837,2371,1965,2
48920.0,1830,2381,1962,2
48921.0,1841,2372,1978,2
48922.0,1852,2343,1992,2
48923.0,1851,2311,1990,2
48924.0,1852,2303,1990,2
48925.0,1824,2321,1967,2
48926.0,1829,2334,1959,2
48927.0,1840,2338,1962,2
48928.0,1849,2327,1965,2
48929.0,1851,2330,1965,2
48930.0,1848,2329,1959,2
48931.0,1855,2333,1976,2
48932.0,1867,2346,1958,2
48933.0,1873,2360,1954,2
48934.0,1855,2382,1958,2
48935.0,1846,2386,1972,2
48936.0,1843,2365,1981,2
48937.0,1852,2352,1998,2
48938.0,1864,2332,2000,2
48939.0,1859,2345,1996,2
48940.0,1870,2340,2000,2
48941.0,1884,2333,2007,2
48942.0,1902,2339,2008,2
48943.0,1922,2349,2019,2
48944.0,1939,2352,2025,2
48945.0,1951,2343,2029,2
48946.0,1959,2346,2023,2
48947.0,1947,2339,2033,2
48948.0,1938,2353,2035,2
48949.0,1930,2341,2034,2
48950.0,1935,2373,2054,2
48951.0,1946,2365,2076,2
48952.0,1999,2384,2103,2
48953.0,2018,2369,2083,2
48954.0,2039,2406,2107,2
48955.0,1990,2429,2086,2
48956.0,2015,2455,2102,2
48957.0,2039,2486,2126,2
48958.0,2028,2473,2125,2
48959.0,2026,2449,2105,2
48960.0,2088,2318,2122,2
48961.0,2091,2316,2122,2
48962.0,2090,2314,2121,2
48963.0,2091,2314,2122,2
48964.0,2089,2306,2124,2
48965.0,2049,2308,2137,2
48966.0,2053,2346,2157,2
48967.0,2012,2352,2171,2
48968.0,1999,2317,2165,2
48969.0,1992,2312,2151,2
48970.0,1991,2289,2147,2
48971.0,1982,2289,2150,2
48972.0,1997,2284,2152,2
48973.0,1999,2282,2142,2
48974.0,1996,2273,2175,2
48975.0,1984,2273,2169,2
48976.0,1957,2258,2169,2
48977.0,1944,2239,2185,2
48978.0,1956,2242,2167,2
48979.0,1943,2241,2171,2
48980.0,1926,2257,2178,2
48981.0,1931,2255,2171,2
48982.0,1928,2264,2176,2
48983.0,1928,2269,2191,2
48984.0,1954,2273,2176,2
48985.0,1961,2281,2178,2
48986.0,1945,2252,2180,2
48987.0,1938,2264,2206,2
48988.0,1931,2271,2218,2
48989.0,1920,2266,2234,2
48990.0,1906,2251,2236,2
48991.0,1882,2245,2226,2
48992.0,1874,2268,2227,2
48993.0,1871,2277,2219,2
48994.0,1873,2291,2210,2
48995.0,1877,2302,2201,2
48996.0,1877,2309,2186,2
48997.0,1869,2314,2167,2
48998.0,1867,2319,2160,2
48999.0,1851,2332,2143,2
49000.0,1835,2326,2155,2
49001.0,1837,2306,2185,2
49002.0,1852,2306,2205,2
49003.0,1858,2330,2208,2
49004.0,1829,2328,2196,2
49005.0,1813,2332,2196,2
49006.0,1828,2339,2205,2
49007.0,1863,2337,2186,2
49008.0,1884,2324,2197,2
49009.0,1918,2293,2186,2
49010.0,1884,2291,2167,2
49011.0,1876,2289,2151,2
49012.0,1863,2285,2152,2
49013.0,1824,2273,2158,2
49014.0,1814,2276,2150,2
49015.0,1812,2274,2156,2
49016.0,1826,2278,2155,2
49017.0,1854,2291,2132,2
49018.0,1884,2298,2045,2
49019.0,1874,2328,2065,2
49020.0,1878,2336,2093,2
49021.0,1890,2347,2118,2
49022.0,1865,2365,2102,2
49023.0,1815,2348,2110,2
49024.0,1838,2360,2107,2
49025.0,1826,2349,2095,2
49026.0,1847,2366,2087,2
49027.0,1845,2361,2081,2
49028.0,1853,2351,2056,2
49029.0,1858,2347,2046,2
49030.0,1863,2330,2047,2
49031.0,1851,2331,2046,2
49032.0,1842,2335,2057,2
49033.0,1831,2332,2075,2
49034.0,1837,2321,2075,2
49035.0,1856,2320,2069,2
49036.0,1869,2310,2054,2
49037.0,1859,2302,2048,2
49038.0,1867,2290,2052,2
49039.0,1881,2299,2070,2
49040.0,1891,2317,2075,2
49041.0,1917,2351,2056,2
49042.0,1938,2368,2018,2
49043.0,1935,2377,2033,2
49044.0,1970,2362,2067,2
49045.0,1956,2347,2065,2
49046.0,1960,2354,2053,2
49047.0,1962,2374,2048,2
49048.0,1943,2369,2033,2
49049.0,1947,2368,2038,2
49050.0,1938,2364,2034,2
49051.0,1929,2365,2011,2
49052.0,1926,2360,2021,2
49053.0,1915,2342,2057,2
49054.0,1897,2347,2056,2
49055.0,1896,2342,2054,2
49056.0,1871,2360,2059,2
49057.0,1815,2390,2093,2
49058.0,1755,2422,2136,2
49059.0,1724,2401,2159,2
49060.0,1747,2353,2158,2
49061.0,1762,2309,2144,2
49062.0,1773,2314,2152,2
49063.0,1779,2350,2151,2
49064.0,1771,2351,2066,2
49065.0,1802,2336,1978,2
49066.0,1824,2299,2041,2
49067.0,1812,2280,2093,2
49068.0,1794,2277,2087,2
49069.0,1794,2260,2097,2
49070.0,1787,2282,2112,2
49071.0,1768,2317,2123,2
49072.0,1766,2342,2098,2
49073.0,1789,2358,2067,2
49074.0,1784,2348,2053,2
49075.0,1818,2341,2070,2
49076.0,1811,2316,2083,2
49077.0,1815,2313,2095,2
49078.0,1798,2315,2082,2
49079.0,1794,2330,2065,2
49080.0,1790,2359,2062,2
49081.0,1810,2361,2071,2
49082.0,1834,2356,2071,2
49083.0,1847,2365,2070,2
49084.0,1847,2368,2058,2
49085.0,1858,2373,2063,2
49086.0,1834,2357,2054,2
49087.0,1830,2361,2056,2
49088.0,1836,2354,2074,2
49089.0,1818,2353,2069,2
49090.0,1780,2342,2066,2
49091.0,1783,2348,2072,2
49092.0,1803,2340,2089,2
49093.0,1808,2335,2087,2
49094.0,1818,2313,2091,2
49095.0,1848,2291,2078,2
49096.0,1882,2290,2039,2
49097.0,1890,2312,1991,2
49098.0,1856,2357,1983,2
49099.0,1847,2420,1956,2
49100.0,1826,2425,1956,2
49101.0,1851,2439,1989,2
49102.0,1846,2367,2034,2
49103.0,1844,2323,2028,2
49104.0,1853,2294,2020,2
49105.0,1859,2281,1998,2
49106.0,1861,2278,1996,2
49107.0,1862,2291,1993,2
49108.0,1869,2298,1987,2
49109.0,1861,2315,1996,2
49110.0,1864,2332,2013,2
49111.0,1877,2348,2021,2
49112.0,1875,2359,2022,2
49113.0,1868,2348,2037,2
49114.0,1881,2345,2047,2
49115.0,1891,2354,2064,2
49116.0,1905,2365,2076,2
49117.0,1922,2356,2071,2
49118.0,1900,2343,2064,2
49119.0,1883,2331,2074,2
49120.0,1872,2331,2063,2
49121.0,1866,2341,2074,2
49122.0,1865,2357,2082,2
49123.0,1853,2370,2101,2
49124.0,1845,2372,2134,2
49125.0,1835,2379,2140,2
49126.0,1834,2366,2131,2
49127.0,1855,2358,2109,2
49128.0,1858,2346,2126,2
49129.0,1861,2340,2116,2
49130.0,1862,2462,2118,2
49131.0,1863,2463,2117,2
49132.0,1863,2462,2117,2
49133.0,1860,2462,2115,2
49134.0,1862,2464,2114,2
49135.0,1861,2463,2114,2
49136.0,1859,2459,2115,2
49137.0,1869,2467,2115,2
49138.0,1846,2508,2145,2
49139.0,1865,2546,2218,2
49140.0,1945,2507,2067,2
49141.0,1952,2473,2057,2
49142.0,1914,2442,2119,2
49143.0,1910,2405,2131,2
49144.0,1909,2375,2112,2
49145.0,1903,2340,2090,2
49146.0,1902,2305,2075,2
49147.0,1898,2282,2093,2
49148.0,1906,2256,2086,2
49149.0,1923,2235,2080,2
49150.0,1924,2219,2085,2
49151.0,1921,2216,2094,2
49152.0,1935,2239,2090,2
49153.0,1937,2253,2044,2
49154.0,1915,2262,2028,2
49155.0,1881,2288,2033,2
49156.0,1849,2328,2070,2
49157.0,1835,2409,2093,2
49158.0,1861,2519,2141,2
49159.0,1873,2627,2100,2
49160.0,1868,2607,2002,2
49161.0,1884,2531,1953,2
49162.0,1913,2474,1973,2
49163.0,1934,2409,2036,2
49164.0,1943,2330,2049,2
49165.0,1921,2272,2023,2
49166.0,1921,2196,1998,2
49167.0,1894,2162,2027,2
49168.0,1900,2140,2113,2
49169.0,1903,2178,2046,2
49170.0,1915,2205,2084,2
49171.0,1925,2249,2103,2
49172.0,1901,2325,2128,2
49173.0,1874,2380,2079,2
49174.0,1834,2368,2007,2
49175.0,1799,2381,1963,2
49176.0,1786,2414,2014,2
49177.0,1818,2450,2030,2
49178.0,1831,2480,2071,2
49179.0,1801,2497,2069,2
49180.0,1810,2497,2022,2
49181.0,1833,2462,2063,2
49182.0,1847,2400,2107,2
49183.0,1849,2332,2094,2
49184.0,1851,2328,2057,2
49185.0,1830,2308,2044,2
49186.0,1819,2296,2016,2
49187.0,1818,2309,1985,2
49188.0,1862,2310,2014,2
49189.0,1844,2302,2055,2
49190.0,1816,2289,2058,2
49191.0,1797,2276,2061,2
49192.0,1781,2266,2041,2
49193.0,1763,2259,2026,2
49194.0,1748,2258,2015,2
49195.0,1739,2244,1994,2
49196.0,1759,2286,1957,2
49197.0,1777,2372,1934,2
49198.0,1795,2420,1967,2
49199.0,1807,2357,1987,2
49200.0,1866,2365,2002,2
49201.0,1894,2342,1938,2
49202.0,1844,2351,1900,2
49203.0,1811,2353,1884,2
49204.0,1832,2351,1903,2
49205.0,1838,2333,1941,2
49206.0,1850,2341,1943,2
49207.0,1887,2363,1938,2
49208.0,1882,2368,1970,2
49209.0,1865,2372,1953,2
49210.0,1853,2395,1927,2
49211.0,1861,2405,1920,2
49212.0,1865,2400,1933,2
49213.0,1886,2365,1943,2
49214.0,1896,2354,1930,2
49215.0,1908,2340,1905,2
49216.0,1886,2340,1919,2
49217.0,1867,2296,1907,2
49218.0,1845,2312,1904,2
49219.0,1861,2339,1897,2
49220.0,1898,2384,1897,2
49221.0,1911,2385,1905,2
49222.0,1902,2362,1914,2
49223.0,1885,2354,1906,2
49224.0,1858,2353,1922,2
49225.0,1852,2349,1932,2
49226.0,1852,2339,1945,2
49227.0,1851,2328,1940,2
49228.0,1849,2321,1932,2
49229.0,1857,2311,1935,2
49230.0,1866,2316,1934,2
49231.0,1885,2324,1931,2
49232.0,1895,2327,1945,2
49233.0,1896,2332,1949,2
49234.0,1892,2328,1958,2
49235.0,1873,2297,1961,2
49236.0,1857,2277,1966,2
49237.0,1838,2258,1969,2
49238.0,1804,2278,1959,2
49239.0,1765,2324,1974,2
49240.0,1743,2350,1988,2
49241.0,1764,2327,1992,2
49242.0,1797,2304,2007,2
49243.0,1819,2294,2015,2
49244.0,1814,2300,2018,2
49245.0,1808,2343,2027,2
49246.0,1797,2376,2031,2
49247.0,1809,2395,2042,2
49248.0,1817,2412,2035,2
49249.0,1820,2412,2036,2
49250.0,1832,2403,2028,2
49251.0,1812,2387,2015,2
49252.0,1792,2405,2026,2
49253.0,1775,2394,2029,2
49254.0,1780,2374,2046,2
49255.0,1781,2351,2057,2
49256.0,1784,2344,2048,2
49257.0,1776,2342,2048,2
49258.0,1761,2343,2051,2
49259.0,1752,2322,2071,2
49260.0,1716,2323,2124,2
49261.0,1707,2321,2028,2
49262.0,1740,2341,2003,2
49263.0,1763,2341,1979,2
49264.0,1759,2330,1970,2
49265.0,1823,2317,1996,2
49266.0,1660,2312,1985,2
49267.0,1673,2328,1995,2
49268.0,1694,2325,1998,2
49269.0,1666,2308,1992,2
49270.0,1671,2306,1985,2
49271.0,1671,2322,1999,2
49272.0,1707,2307,2005,2
49273.0,1703,2299,2003,2
49274.0,1747,2300,2052,2
49275.0,1726,2289,1961,2
49276.0,1713,2265,1858,2
49277.0,1708,2275,1945,2
49278.0,1756,2304,2007,2
49279.0,1757,2304,1959,2
49280.0,1738,2308,1955,2
49281.0,1737,2300,1959,2
49282.0,1741,2307,1967,2
49283.0,1741,2293,1957,2
49284.0,1738,2291,1955,2
49285.0,1744,2284,1952,2
49286.0,1726,2287,1942,2
49287.0,1718,2282,1933,2
49288.0,1734,2285,1911,2
49289.0,1705,2282,1908,2
49290.0,1698,2293,1922,2
49291.0,1738,2280,1894,2
49292.0,1745,2283,1885,2
49293.0,1749,2305,1878,2
49294.0,1743,2315,1891,2
49295.0,1742,2311,1883,2
49296.0,1756,2303,1878,2
49297.0,1766,2303,1874,2
49298.0,1765,2322,1879,2
49299.0,1758,2337,1878,2
49300.0,1836,2312,1865,2
49301.0,1837,2314,1865,2
49302.0,1840,2316,1865,2
49303.0,1844,2315,1863,2
49304.0,1845,2314,1834,2
49305.0,1876,2331,1842,2
49306.0,1869,2337,1862,2
49307.0,1882,2327,1855,2
49308.0,1858,2324,1873,2
49309.0,1865,2306,1862,2
49310.0,1863,2300,1858,2
49311.0,1868,2291,1850,2
49312.0,1883,2316,1843,2
49313.0,1886,2331,1861,2
49314.0,1885,2344,1866,2
49315.0,1881,2333,1873,2
49316.0,1864,2316,1854,2
49317.0,1855,2322,1822,2
49318.0,1859,2340,1826,2
49319.0,1881,2311,1818,2
49320.0,1863,2307,1826,2
49321.0,1875,2336,1857,2
49322.0,1895,2266,1860,2
49323.0,1881,2319,1836,2
49324.0,1896,2267,1846,2
49325.0,1902,2291,1848,2
49326.0,1914,2307,1863,2
49327.0,1943,2350,1882,2
49328.0,1948,2348,1874,2
49329.0,1953,2326,1857,2
49330.0,1950,2329,1857,2
49331.0,1958,2345,1854,2
49332.0,1968,2354,1871,2
49333.0,1973,2326,1877,2
49334.0,1947,2309,1864,2
49335.0,1895,2364,1872,2
49336.0,1906,2307,1873,2
49337.0,1954,2307,1879,2
49338.0,1939,2279,1832,2
49339.0,1940,2327,1811,2
49340.0,1926,2373,1829,2
49341.0,1911,2380,1856,2
49342.0,1903,2339,1841,2
49343.0,1903,2317,1836,2
49344.0,1891,2310,1869,2
49345.0,1890,2330,1880,2
49346.0,1900,2326,1901,2
49347.0,1883,2325,1891,2
49348.0,1893,2332,1892,2
49349.0,1861,2349,1911,2
49350.0,1852,2347,1910,2
49351.0,1845,2356,1900,2
49352.0,1847,2383,1921,2
49353.0,1876,2385,1935,2
49354.0,1888,2373,1932,2
49355.0,1909,2353,1915,2
49356.0,1907,2330,1895,2
49357.0,1892,2312,1894,2
49358.0,1888,2331,1888,2
49359.0,1875,2341,1895,2
49360.0,1867,2341,1893,2
49361.0,1849,2338,1883,2
49362.0,1851,2338,1884,2
49363.0,1854,2344,1875,2
49364.0,1869,2325,1884,2
49365.0,1860,2301,1887,2
49366.0,1842,2322,1892,2
49367.0,1850,2335,1872,2
49368.0,1840,2315,1843,2
49369.0,1874,2401,1850,2
49370.0,1874,2367,1865,2
49371.0,1876,2327,1910,2
49372.0,1845,2301,1951,2
49373.0,1825,2263,1951,2
49374.0,1834,2249,1935,2
49375.0,1827,2239,1905,2
49376.0,1831,2284,1871,2
49377.0,1820,2286,1882,2
49378.0,1794,2292,1883,2
49379.0,1792,2325,1896,2
49380.0,1793,2331,1893,2
49381.0,1760,2344,1886,2
49382.0,1733,2328,1889,2
49383.0,1721,2341,1880,2
49384.0,1724,2381,1891,2
49385.0,1739,2367,1911,2
49386.0,1735,2308,1923,2
49387.0,1735,2319,1921,2
49388.0,1734,2331,1904,2
49389.0,1738,2341,1890,2
49390.0,1735,2327,1902,2
49391.0,1716,2326,1904,2
49392.0,1703,2322,1937,2
49393.0,1716,2352,1952,2
49394.0,1738,2369,1977,2
49395.0,1794,2340,1955,2
49396.0,1795,2308,1946,2
49397.0,1795,2305,1919,2
49398.0,1796,2315,1912,2
49399.0,1779,2301,1899,2
49400.0,1797,2301,1904,2
49401.0,1850,2283,1927,2
49402.0,1862,2265,1918,2
49403.0,1861,2346,1934,2
49404.0,1756,2524,2013,2
49405.0,1783,2409,1870,2
49406.0,1886,2387,1895,2
49407.0,1841,2417,1902,2
49408.0,1822,2341,1853,2
49409.0,1801,2196,1842,2
49410.0,1837,2208,1763,2
49411.0,1843,2269,1820,2
49412.0,1853,2311,1882,2
49413.0,1899,2319,1936,2
49414.0,1909,2351,1915,2
49415.0,1879,2361,1905,2
49416.0,1874,2382,1924,2
49417.0,1874,2381,1903,2
49418.0,1828,2379,1895,2
49419.0,1808,2389,1906,2
49420.0,1827,2340,1871,2
49421.0,1790,2368,1885,2
49422.0,1818,2363,1909,2
49423.0,1845,2283,1912,2
49424.0,1872,2299,1910,2
49425.0,1846,2336,1915,2
49426.0,1860,2299,1909,2
49427.0,1861,2311,1921,2
49428.0,1867,2326,1926,2
49429.0,1876,2321,1927,2
49430.0,1877,2345,1918,2
49431.0,1872,2351,1926,2
49432.0,1867,2346,1910,2
49433.0,1872,2355,1904,2
49434.0,1879,2341,1899,2
49435.0,1867,2350,1904,2
49436.0,1861,2347,1906,2
49437.0,1860,2331,1898,2
49438.0,1875,2327,1887,2
49439.0,1876,2342,1889,2
49440.0,1880,2342,1889,2
49441.0,1884,2340,1900,2
49442.0,1885,2341,1890,2
49443.0,1885,2341,1879,2
49444.0,1871,2337,1888,2
49445.0,1892,2342,1876,2
49446.0,1886,2342,1887,2
49447.0,1888,2337,1892,2
49448.0,1901,2335,1896,2
49449.0,1897,2342,1882,2
49450.0,1887,2322,1885,2
49451.0,1895,2325,1890,2
49452.0,1890,2328,1899,2
49453.0,1888,2319,1896,2
49454.0,1894,2322,1890,2
49455.0,1897,2326,1871,2
49456.0,1893,2337,1883,2
49457.0,1899,2331,1888,2
49458.0,1897,2340,1885,2
49459.0,1899,2337,1879,2
49460.0,1895,2338,1877,2
49461.0,1902,2335,1878,2
49462.0,1893,2337,1892,2
49463.0,1901,2331,1884,2
49464.0,1891,2333,1887,2
49465.0,1892,2345,1880,2
49466.0,1892,2360,1893,2
49467.0,1893,2348,1886,2
49468.0,1905,2350,1883,2
49469.0,1897,2356,1882,2
49470.0,1892,2334,1874,2
49471.0,1890,2335,1873,2
49472.0,1891,2335,1875,2
49473.0,1892,2335,1875,2
49474.0,1896,2332,1873,2
49475.0,1890,2337,1878,2
49476.0,1902,2344,1881,2
49477.0,1912,2347,1883,2
49478.0,1900,2345,1878,2
49479.0,1891,2340,1873,2
49480.0,1894,2334,1881,2
49481.0,1897,2335,1880,2
49482.0,1895,2327,1884,2
49483.0,1895,2339,1885,2
49484.0,1889,2344,1865,2
49485.0,1892,2341,1874,2
49486.0,1892,2341,1879,2
49487.0,1900,2334,1881,2
49488.0,1899,2335,1882,2
49489.0,1903,2328,1879,2
49490.0,1899,2331,1870,2
49491.0,1885,2336,1869,2
49492.0,1888,2336,1871,2
49493.0,1897,2335,1875,2
49494.0,1898,2333,1871,2
49495.0,1890,2338,1866,2
49496.0,1883,2339,1868,2
49497.0,1882,2343,1868,2
49498.0,1881,2334,1872,2
49499.0,1889,2334,1868,2
49500.0,1897,2328,1865,2
49501.0,1889,2324,1868,2
49502.0,1891,2332,1870,2
49503.0,1895,2337,1868,2
49504.0,1892,2347,1862,2
49505.0,1889,2329,1867,2
49506.0,1884,2330,1867,2
49507.0,1887,2336,1873,2
49508.0,1885,2333,1872,2
49509.0,1883,2334,1864,2
49510.0,1879,2332,1860,2
49511.0,1885,2339,1868,2
49512.0,1885,2338,1870,2
49513.0,1887,2341,1862,2
49514.0,1884,2330,1861,2
49515.0,1889,2335,1873,2
49516.0,1891,2331,1870,2
49517.0,1893,2323,1867,2
49518.0,1891,2323,1859,2
49519.0,1887,2326,1853,2
49520.0,1892,2341,1869,2
49521.0,1890,2346,1871,2
49522.0,1888,2331,1862,2
49523.0,1891,2327,1860,2
49524.0,1883,2326,1861,2
49525.0,1892,2329,1869,2
49526.0,1893,2322,1865,2
49527.0,1887,2323,1862,2
49528.0,1898,2322,1866,2
49529.0,1891,2321,1861,2
49530.0,1881,2319,1863,2
49531.0,1892,2326,1860,2
49532.0,1886,2338,1866,2
49533.0,1894,2341,1865,2
49534.0,1887,2341,1858,2
49535.0,1894,2335,1861,2
49536.0,1899,2340,1859,2
49537.0,1906,2331,1865,2
49538.0,1918,2327,1882,2
49539.0,1914,2315,1871,2
49540.0,1895,2317,1873,2
49541.0,1892,2318,1874,2
49542.0,1889,2315,1870,2
49543.0,1898,2316,1871,2
49544.0,1900,2323,1871,2
49545.0,1904,2346,1880,2
49546.0,1904,2333,1873,2
49547.0,1886,2335,1873,2
49548.0,1873,2320,1886,2
49549.0,1872,2297,1888,2
49550.0,1879,2313,1897,2
49551.0,1881,2324,1906,2
49552.0,1840,2343,1864,2
49553.0,1837,2378,1899,2
49554.0,1798,2406,1876,2
49555.0,1835,2377,1903,2
49556.0,1862,2317,1913,2
49557.0,1840,2341,1870,2
49558.0,1842,2348,1859,2
49559.0,1819,2355,1890,2
49560.0,1837,2305,1897,2
49561.0,1870,2308,1869,2
49562.0,1861,2319,1839,2
49563.0,1837,2349,1847,2
49564.0,1853,2386,1903,2
49565.0,1867,2355,1937,2
49566.0,1875,2349,1933,2
49567.0,1881,2329,1900,2
49568.0,1877,2345,1879,2
49569.0,1875,2338,1879,2
49570.0,1874,2339,1885,2
49571.0,1867,2350,1897,2
49572.0,1874,2349,1893,2
49573.0,1874,2355,1878,2
49574.0,1865,2362,1883,2
49575.0,1863,2362,1885,2
49576.0,1863,2376,1914,2
49577.0,1857,2364,1924,2
49578.0,1836,2364,1927,2
49579.0,1885,2235,1891,2
49580.0,1886,2260,1856,2
49581.0,1912,2235,1878,2
49582.0,1900,2209,1870,2
49583.0,1887,2189,1877,2
49584.0,1864,2162,1891,2
49585.0,1857,2201,1894,2
49586.0,1851,2338,1909,2
49587.0,1861,2454,1874,2
49588.0,1881,2678,1907,2
49589.0,1805,2554,1949,2
49590.0,1857,2271,1843,2
49591.0,1890,2221,2004,2
49592.0,1883,2339,1873,2
49593.0,1892,2252,1853,2
49594.0,1828,2519,2044,2
49595.0,1855,2385,1943,2
49596.0,1842,2368,1880,2
49597.0,1807,2357,1955,2
49598.0,1863,2369,1934,2
49599.0,1874,2350,1950,2
49600.0,1859,2351,1950,2
49601.0,1869,2346,1932,2
49602.0,1830,2411,1907,2
49603.0,1836,2455,1886,2
49604.0,1840,2417,1883,2
49605.0,1861,2401,1882,2
49606.0,1868,2350,1917,2
49607.0,1859,2313,1931,2
49608.0,1882,2258,1951,2
49609.0,1895,2203,1931,2
49610.0,1875,2193,1924,2
49611.0,1841,2199,1879,2
49612.0,1826,2222,1842,2
49613.0,1861,2227,1839,2
49614.0,1797,2219,1884,2
49615.0,1719,2150,1866,2
49616.0,1717,2112,1960,2
49617.0,1787,2444,2011,2
49618.0,1758,2965,2089,2
49619.0,1966,2711,2006,2
49620.0,1919,2435,1980,2
49621.0,1910,2324,1865,2
49622.0,1900,2217,1861,2
49623.0,1902,2231,1891,2
49624.0,1914,2248,1959,2
49625.0,1948,2321,1996,2
49626.0,1863,2383,1843,2
49627.0,1860,2367,1884,2
49628.0,1896,2394,1971,2
49629.0,1870,2410,1952,2
49630.0,1856,2378,1933,2
49631.0,1788,2386,1921,2
49632.0,1831,2326,1962,2
49633.0,1855,2343,1943,2
49634.0,1843,2337,1933,2
49635.0,1861,2381,1916,2
49636.0,1791,2381,1967,2
49637.0,1801,2386,1975,2
49638.0,1849,2378,1985,2
49639.0,1862,2354,1936,2
49640.0,1837,2335,1913,2
49641.0,1837,2337,1911,2
49642.0,1834,2338,1912,2
49643.0,1833,2339,1909,2
49644.0,1831,2341,1907,2
49645.0,1827,2339,1901,2
49646.0,1826,2339,1902,2
49647.0,1833,2339,1904,2
49648.0,1849,2315,1897,2
49649.0,1836,2332,1902,2
49650.0,1843,2337,1904,2
49651.0,1842,2361,1913,2
49652.0,1850,2363,1921,2
49653.0,1861,2349,1921,2
49654.0,1866,2355,1915,2
49655.0,1859,2346,1925,2
49656.0,1858,2328,1933,2
49657.0,1874,2320,1923,2
49658.0,1887,2305,1909,2
49659.0,1880,2313,1900,2
49660.0,1888,2331,1904,2
49661.0,1864,2354,1927,2
49662.0,1841,2370,1939,2
49663.0,1897,2355,1923,2
49664.0,1876,2362,1914,2
49665.0,1861,2357,1889,2
49666.0,1902,2351,1887,2
49667.0,1942,2309,1911,2
49668.0,1919,2306,1879,2
49669.0,1900,2322,1968,2
49670.0,1888,2327,2008,2
49671.0,1883,2309,1992,2
49672.0,1904,2353,1922,2
49673.0,1876,2365,1931,2
49674.0,1888,2400,1969,2
49675.0,1927,2379,1973,2
49676.0,1904,2361,1968,2
49677.0,1919,2340,1959,2
49678.0,1914,2322,1970,2
49679.0,1931,2340,1968,2
49680.0,1931,2347,1967,2
49681.0,1933,2384,1959,2
49682.0,1976,2437,1958,2
49683.0,1932,2422,1948,2
49684.0,1915,2378,1956,2
49685.0,1932,2359,1953,2
49686.0,1910,2363,1949,2
49687.0,1905,2355,1963,2
49688.0,1893,2359,1994,2
49689.0,1895,2350,2011,2
49690.0,1886,2370,2020,2
49691.0,1882,2384,2002,2
49692.0,1880,2374,2005,2
49693.0,1874,2392,2004,2
49694.0,1870,2387,2002,2
49695.0,1870,2382,2004,2
49696.0,1891,2371,1991,2
49697.0,1885,2374,1980,2
49698.0,1860,2381,1988,2
49699.0,1867,2385,2009,2
49700.0,1862,2357,1982,2
49701.0,1792,2334,2007,2
49702.0,1833,2341,1965,2
49703.0,1869,2339,1963,2
49704.0,1881,2357,1969,2
49705.0,1872,2363,1965,2
49706.0,1876,2370,1969,2
49707.0,1891,2408,1991,2
49708.0,1882,2401,1983,2
49709.0,1877,2398,1947,2
49710.0,1858,2338,1957,2
49711.0,1857,2294,1961,2
49712.0,1838,2231,1983,2
49713.0,1857,2191,1951,2
49714.0,1868,2222,1923,2
49715.0,1878,2201,1917,2
49716.0,1871,2208,1891,2
49717.0,1801,2203,1898,2
49718.0,1787,2281,1941,2
49719.0,1806,2470,2001,2
49720.0,1785,2638,2023,2
49721.0,1805,2483,1979,2
49722.0,1833,2384,1956,2
49723.0,1927,2388,1935,2
49724.0,1927,2365,1905,2
49725.0,1918,2347,1883,2
49726.0,1908,2345,1893,2
49727.0,1891,2356,1901,2
49728.0,1871,2384,1932,2
49729.0,1855,2377,1966,2
49730.0,1826,2330,1994,2
49731.0,1809,2297,1981,2
49732.0,1764,2348,1965,2
49733.0,1705,2403,1986,2
49734.0,1861,2341,1937,2
49735.0,1887,2318,1931,2
49736.0,1902,2289,1949,2
49737.0,1917,2250,1941,2
49738.0,1914,2309,1960,2
49739.0,1891,2334,1961,2
49740.0,1888,2323,1917,2
49741.0,1831,2269,1856,2
49742.0,1804,2291,1860,2
49743.0,1811,2397,1892,2
49744.0,1808,2507,1978,2
49745.0,1827,2454,2005,2
49746.0,1830,2358,1925,2
49747.0,1850,2318,1915,2
49748.0,1820,2297,1935,2
49749.0,1780,2310,1915,2
49750.0,1807,2321,1916,2
49751.0,1833,2334,1922,2
49752.0,1862,2366,1973,2
49753.0,1861,2364,1940,2
49754.0,1820,2343,1937,2
49755.0,1820,2331,1910,2
49756.0,1832,2309,1894,2
49757.0,1826,2318,1877,2
49758.0,1836,2365,1885,2
49759.0,1856,2327,1922,2
49760.0,1845,2335,1897,2
49761.0,1860,2342,1897,2
49762.0,1871,2354,1894,2
49763.0,1873,2347,1869,2
49764.0,1871,2350,1875,2
49765.0,1874,2347,1874,2
49766.0,1875,2353,1884,2
49767.0,1865,2341,1881,2
49768.0,1865,2329,1869,2
49769.0,1860,2334,1884,2
49770.0,1861,2340,1902,2
49771.0,1875,2343,1898,2
49772.0,1877,2361,1896,2
49773.0,1851,2367,1853,2
49774.0,1820,2346,1847,2
49775.0,1834,2316,1882,2
49776.0,1866,2312,1902,2
49777.0,1873,2311,1909,2
49778.0,1864,2321,1926,2
49779.0,1846,2318,1905,2
49780.0,1833,2318,1877,2
49781.0,1823,2331,1887,2
49782.0,1821,2334,1886,2
49783.0,1822,2328,1881,2
49784.0,1807,2325,1885,2
49785.0,1803,2324,1877,2
49786.0,1802,2322,1872,2
49787.0,1799,2330,1867,2
49788.0,1797,2328,1881,2
49789.0,1803,2315,1878,2
49790.0,1805,2309,1880,2
49791.0,1801,2315,1882,2
49792.0,1806,2319,1878,2
49793.0,1792,2320,1880,2
49794.0,1797,2321,1879,2
49795.0,1799,2320,1879,2
49796.0,1796,2319,1879,2
49797.0,1804,2315,1886,2
49798.0,1815,2320,1887,2
49799.0,1809,2315,1885,2
49800.0,1808,2320,1884,2
49801.0,1813,2319,1881,2
49802.0,1815,2327,1875,2
49803.0,1817,2329,1881,2
49804.0,1826,2323,1884,2
49805.0,1826,2324,1879,2
49806.0,1827,2322,1882,2
49807.0,1824,2326,1880,2
49808.0,1826,2330,1877,2
49809.0,1826,2334,1881,2
49810.0,1820,2325,1887,2
49811.0,1820,2326,1886,2
49812.0,1826,2331,1880,2
49813.0,1829,2324,1877,2
49814.0,1830,2323,1875,2
49815.0,1826,2322,1876,2
49816.0,1827,2331,1880,2
49817.0,1828,2328,1882,2
49818.0,1819,2326,1879,2
49819.0,1813,2321,1879,2
49820.0,1812,2323,1879,2
49821.0,1812,2320,1882,2
49822.0,1814,2322,1887,2
49823.0,1819,2319,1877,2
49824.0,1813,2323,1889,2
49825.0,1815,2321,1885,2
49826.0,1821,2322,1884,2
49827.0,1819,2316,1886,2
49828.0,1820,2316,1888,2
49829.0,1819,2317,1888,2
49830.0,1824,2311,1890,2
49831.0,1824,2318,1886,2
49832.0,1830,2319,1886,2
49833.0,1833,2313,1880,2
49834.0,1835,2319,1874,2
49835.0,1844,2323,1864,2
49836.0,1848,2334,1868,2
49837.0,1840,2344,1857,2
49838.0,1843,2352,1848,2
49839.0,1842,2356,1847,2
49840.0,1849,2347,1857,2
49841.0,1851,2330,1867,2
49842.0,1850,2315,1863,2
49843.0,1851,2310,1867,2
49844.0,1839,2318,1871,2
49845.0,1825,2326,1868,2
49846.0,1824,2332,1880,2
49847.0,1828,2339,1881,2
49848.0,1827,2330,1886,2
49849.0,1831,2324,1890,2
49850.0,1827,2326,1887,2
49851.0,1812,2323,1888,2
49852.0,1802,2337,1894,2
49853.0,1799,2332,1893,2
49854.0,1792,2337,1892,2
49855.0,1792,2330,1894,2
49856.0,1789,2319,1894,2
49857.0,1797,2319,1895,2
49858.0,1794,2318,1882,2
49859.0,1788,2317,1896,2
49860.0,1792,2320,1894,2
49861.0,1787,2313,1885,2
49862.0,1793,2309,1887,2
49863.0,1796,2303,1889,2
49864.0,1795,2303,1900,2
49865.0,1803,2300,1903,2
49866.0,1809,2311,1896,2
49867.0,1805,2322,1890,2
49868.0,1806,2319,1894,2
49869.0,1813,2327,1897,2
49870.0,1813,2330,1881,2
49871.0,1815,2335,1879,2
49872.0,1821,2324,1883,2
49873.0,1840,2330,1887,2
49874.0,1820,2305,1900,2
49875.0,1816,2309,1908,2
49876.0,1808,2311,1918,2
49877.0,1801,2324,1900,2
49878.0,1786,2335,1891,2
49879.0,1784,2342,1886,2
49880.0,1775,2337,1877,2
49881.0,1777,2329,1887,2
49882.0,1772,2320,1904,2
49883.0,1776,2328,1899,2
49884.0,1785,2337,1884,2
49885.0,1777,2324,1884,2
49886.0,1775,2322,1879,2
49887.0,1770,2337,1892,2
49888.0,1780,2367,1887,2
49889.0,1796,2358,1899,2
49890.0,1811,2332,1900,2
49891.0,1838,2318,1925,2
49892.0,1849,2337,1940,2
49893.0,1848,2365,1942,2
49894.0,1847,2390,1927,2
49895.0,1873,2415,1878,2
49896.0,1879,2396,1891,2
49897.0,1870,2367,1927,2
49898.0,1877,2329,1955,2
49899.0,1868,2328,1980,2
49900.0,1825,2321,1962,2
49901.0,1836,2306,1962,2
49902.0,1847,2312,1957,2
49903.0,1851,2304,1963,2
49904.0,1843,2307,1959,2
49905.0,1805,2318,1963,2
49906.0,1793,2317,1958,2
49907.0,1795,2311,1950,2
49908.0,1795,2321,1940,2
49909.0,1806,2338,1925,2
49910.0,1790,2364,1918,2
49911.0,1791,2386,1911,2
49912.0,1813,2386,1910,2
49913.0,1831,2378,1911,2
49914.0,1829,2358,1922,2
49915.0,1849,2341,1924,2
49916.0,1845,2317,1912,2
49917.0,1855,2315,1904,2
49918.0,1859,2309,1905,2
49919.0,1863,2307,1901,2
49920.0,1862,2313,1896,2
49921.0,1859,2335,1899,2
49922.0,1854,2331,1897,2
49923.0,1836,2337,1893,2
49924.0,1824,2330,1893,2
49925.0,1804,2320,1894,2
49926.0,1800,2308,1895,2
49927.0,1804,2304,1888,2
49928.0,1801,2323,1887,2
49929.0,1793,2347,1917,2
49930.0,1816,2360,1922,2
49931.0,1831,2380,1918,2
49932.0,1830,2392,1929,2
49933.0,1832,2381,1935,2
49934.0,1850,2334,1940,2
49935.0,1855,2313,1940,2
49936.0,1844,2315,1934,2
49937.0,1840,2330,1941,2
49938.0,1837,2338,1953,2
49939.0,1839,2345,1948,2
49940.0,1835,2354,1949,2
49941.0,1848,2356,1954,2
49942.0,1852,2361,1950,2
49943.0,1849,2366,1951,2
49944.0,1851,2370,1958,2
49945.0,1862,2390,1965,2
49946.0,1860,2393,1960,2
49947.0,1856,2367,1974,2
49948.0,1819,2316,1972,2
49949.0,1799,2282,1987,2
49950.0,1812,2255,1993,2
49951.0,1837,2264,1961,2
49952.0,1825,2290,1960,2
49953.0,1824,2341,1961,2
49954.0,1817,2333,1977,2
49955.0,1862,2356,1962,2
49956.0,1875,2399,1934,2
49957.0,1854,2404,1920,2
49958.0,1842,2417,1931,2
49959.0,1842,2388,1943,2
49960.0,1854,2363,1937,2
49961.0,1842,2335,1945,2
49962.0,1830,2323,1958,2
49963.0,1864,2317,1968,2
49964.0,1855,2327,1967,2
49965.0,1847,2323,1955,2
49966.0,1845,2329,1951,2
49967.0,1835,2329,1944,2
49968.0,1839,2343,1954,2
49969.0,1836,2355,1952,2
49970.0,1844,2359,1957,2
49971.0,1844,2367,1950,2
49972.0,1837,2370,1951,2
49973.0,1839,2370,1949,2
49974.0,1848,2365,1936,2
49975.0,1857,2346,1942,2
49976.0,1865,2341,1937,2
49977.0,1855,2339,1947,2
49978.0,1841,2333,1951,2
49979.0,1832,2330,1947,2
49980.0,1844,2345,1928,2
49981.0,1844,2345,1925,2
49982.0,1843,2347,1925,2
49983.0,1841,2347,1924,2
49984.0,1843,2357,1926,2
49985.0,1846,2347,1927,2
49986.0,1847,2346,1939,2
49987.0,1841,2349,1945,2
49988.0,1842,2335,1947,2
49989.0,1836,2338,1938,2
49990.0,1841,2337,1934,2
49991.0,1834,2333,1937,2
49992.0,1825,2336,1938,2
49993.0,1829,2323,1936,2
49994.0,1834,2315,1935,2
49995.0,1849,2322,1941,2
49996.0,1827,2344,1935,2
49997.0,1828,2332,1948,2
49998.0,1833,2306,1983,2
49999.0,1843,2331,1973,2
50000.0,1857,2377,1969,2
50001.0,1901,2355,1953,2
50002.0,1932,2380,1929,2
50003.0,1930,2387,1912,2
50004.0,1887,2379,1909,2
50005.0,1878,2359,1921,2
50006.0,1890,2347,1931,2
50007.0,1889,2338,1956,2
50008.0,1870,2343,1961,2
50009.0,1840,2340,1968,2
50010.0,1811,2344,1972,2
50011.0,1799,2332,1957,2
50012.0,1803,2355,1943,2
50013.0,1809,2335,1959,2
50014.0,1831,2337,1977,2
50015.0,1841,2361,1992,2
50016.0,1866,2382,1977,2
50017.0,1881,2376,1939,2
50018.0,1871,2360,1939,2
50019.0,1834,2343,1956,2
50020.0,1838,2342,1959,2
50021.0,1845,2328,1956,2
50022.0,1847,2333,1961,2
50023.0,1842,2354,1967,2
50024.0,1826,2383,1955,2
50025.0,1831,2392,1943,2
50026.0,1846,2385,1937,2
50027.0,1864,2345,1932,2
50028.0,1881,2326,1941,2
50029.0,1880,2315,1963,2
50030.0,1860,2324,1959,2
50031.0,1852,2322,1970,2
50032.0,1840,2325,1967,2
50033.0,1833,2344,1955,2
50034.0,1833,2369,1939,2
50035.0,1838,2376,1928,2
50036.0,1865,2367,1925,2
50037.0,1870,2351,1927,2
50038.0,1855,2337,1933,2
50039.0,1843,2328,1945,2
50040.0,1843,2320,1940,2
50041.0,1827,2325,1937,2
50042.0,1827,2328,1934,2
50043.0,1831,2338,1952,2
50044.0,1827,2341,1946,2
50045.0,1845,2338,1939,2
50046.0,1848,2336,1942,2
50047.0,1843,2333,1940,2
50048.0,1841,2334,1938,2
50049.0,1847,2331,1945,2
50050.0,1844,2336,1937,2
50051.0,1850,2342,1940,2
50052.0,1857,2338,1950,2
50053.0,1875,2351,1947,2
50054.0,1878,2366,1932,2
50055.0,1872,2368,1929,2
50056.0,1858,2368,1925,2
50057.0,1841,2382,1920,2
