timestamp,accX,accY,accZ,class
84800.0,2099,2363,1999,6
84801.0,2107,2361,2002,6
84802.0,2104,2366,1998,6
84803.0,2104,2362,1992,6
84804.0,2103,2369,1994,6
84805.0,2105,2370,1997,6
84806.0,2101,2361,1999,6
84807.0,2102,2358,1998,6
84808.0,2107,2361,2001,6
84809.0,2104,2361,1999,6
84810.0,2107,2368,2003,6
84811.0,2099,2371,1999,6
84812.0,2100,2364,1998,6
84813.0,2103,2366,1999,6
84814.0,2103,2366,1997,6
84815.0,2101,2366,1999,6
84816.0,2102,2365,2000,6
84817.0,2101,2367,2008,6
84818.0,2103,2365,1998,6
84819.0,2104,2366,1999,6
84820.0,2107,2369,2001,6
84821.0,2109,2367,1997,6
84822.0,2104,2368,1995,6
84823.0,2104,2364,1996,6
84824.0,2103,2368,1998,6
84825.0,2101,2364,2001,6
84826.0,2102,2365,2000,6
84827.0,2107,2357,1997,6
84828.0,2103,2362,1999,6
84829.0,2104,2366,2006,6
84830.0,2103,2356,1998,6
84831.0,2104,2359,1999,6
84832.0,2100,2365,1994,6
84833.0,2105,2361,1999,6
84834.0,2103,2362,1995,6
84835.0,2111,2363,2001,6
84836.0,2106,2365,1998,6
84837.0,2101,2365,2001,6
84838.0,2106,2366,2003,6
84839.0,2106,2363,1999,6
84840.0,2107,2363,1999,6
84841.0,2106,2359,1998,6
84842.0,2100,2363,1997,6
84843.0,2099,2361,1997,6
84844.0,2107,2363,2001,6
84845.0,2104,2370,2000,6
84846.0,2105,2367,2001,6
84847.0,2099,2365,2001,6
84848.0,2103,2359,1997,6
84849.0,2101,2362,1997,6
84850.0,2102,2366,2000,6
84851.0,2099,2364,1997,6
84852.0,2103,2366,2001,6
84853.0,2108,2359,2000,6
84854.0,2102,2353,2004,6
84855.0,2105,2355,2001,6
84856.0,2106,2360,1993,6
84857.0,2106,2369,1996,6
84858.0,2103,2374,2001,6
84859.0,2104,2376,2006,6
84860.0,2105,2377,2005,6
84861.0,2104,2374,2002,6
84862.0,2098,2369,2000,6
84863.0,2100,2367,1995,6
84864.0,2101,2366,1991,6
84865.0,2098,2360,1990,6
84866.0,2107,2360,1995,6
84867.0,2113,2362,1996,6
84868.0,2117,2365,1997,6
84869.0,2113,2363,2003,6
84870.0,2111,2365,2005,6
84871.0,2109,2365,2009,6
84872.0,2101,2370,2008,6
84873.0,2105,2369,1999,6
84874.0,2105,2368,2001,6
84875.0,2104,2365,2003,6
84876.0,2103,2361,1996,6
84877.0,2099,2362,1996,6
84878.0,2101,2366,1997,6
84879.0,2104,2367,1994,6
84880.0,2103,2365,1994,6
84881.0,2108,2368,1990,6
84882.0,2109,2365,1990,6
84883.0,2103,2367,1994,6
84884.0,2104,2367,1998,6
84885.0,2106,2364,1991,6
84886.0,2103,2358,1996,6
84887.0,2100,2358,1994,6
84888.0,2092,2360,1997,6
84889.0,2094,2365,1996,6
84890.0,2092,2364,1996,6
84891.0,2096,2368,1991,6
84892.0,2095,2365,1995,6
84893.0,2094,2364,1995,6
84894.0,2096,2360,1998,6
84895.0,2101,2360,1999,6
84896.0,2098,2358,2002,6
84897.0,2105,2363,2001,6
84898.0,2096,2365,2000,6
84899.0,2100,2370,1997,6
84900.0,2102,2370,1990,6
84901.0,2102,2369,1997,6
84902.0,2100,2371,1988,6
84903.0,2096,2365,1992,6
84904.0,2101,2375,1994,6
84905.0,2103,2370,1990,6
84906.0,2106,2365,1994,6
84907.0,2107,2369,1996,6
84908.0,2102,2362,2001,6
84909.0,2104,2369,2004,6
84910.0,2106,2363,2003,6
84911.0,2105,2364,2002,6
84912.0,2104,2367,2004,6
84913.0,2107,2362,1997,6
84914.0,2103,2363,2003,6
84915.0,2103,2362,2002,6
84916.0,2109,2364,2002,6
84917.0,2109,2369,1999,6
84918.0,2114,2363,1998,6
84919.0,2103,2357,1996,6
84920.0,2113,2359,1995,6
84921.0,2117,2355,1999,6
84922.0,2111,2363,2001,6
84923.0,2109,2362,1994,6
84924.0,2103,2368,2002,6
84925.0,2102,2373,1999,6
84926.0,2094,2369,1995,6
84927.0,2098,2372,1989,6
84928.0,2098,2366,1995,6
84929.0,2103,2358,1996,6
84930.0,2105,2368,1998,6
84931.0,2101,2369,1998,6
84932.0,2101,2373,1999,6
84933.0,2097,2369,1994,6
84934.0,2104,2363,1997,6
84935.0,2099,2365,1996,6
84936.0,2107,2362,1996,6
84937.0,2099,2363,1998,6
84938.0,2100,2362,1993,6
84939.0,2101,2361,1996,6
84940.0,2104,2358,1995,6
84941.0,2103,2363,1995,6
84942.0,2101,2365,1995,6
84943.0,2101,2372,1991,6
84944.0,2101,2370,1990,6
84945.0,2099,2369,1989,6
84946.0,2097,2373,1990,6
84947.0,2100,2368,1986,6
84948.0,2098,2369,1991,6
84949.0,2098,2367,1986,6
84950.0,2097,2355,1986,6
84951.0,2104,2366,1991,6
84952.0,2101,2369,1992,6
84953.0,2102,2367,1995,6
84954.0,2099,2364,2001,6
84955.0,2099,2369,1999,6
84956.0,2097,2362,1997,6
84957.0,2098,2361,1999,6
84958.0,2104,2362,1999,6
84959.0,2108,2358,1994,6
84960.0,2097,2360,1992,6
84961.0,2095,2361,1986,6
84962.0,2093,2363,1990,6
84963.0,2094,2371,1991,6
84964.0,2098,2373,1991,6
84965.0,2100,2369,1993,6
84966.0,2101,2367,1991,6
84967.0,2104,2377,1998,6
84968.0,2107,2375,1995,6
84969.0,2109,2381,1983,6
84970.0,2105,2383,1989,6
84971.0,2106,2371,1991,6
84972.0,2102,2367,1993,6
84973.0,2100,2359,1998,6
84974.0,2098,2358,2001,6
84975.0,2099,2356,2003,6
84976.0,2101,2355,2004,6
84977.0,2102,2357,2008,6
84978.0,2104,2358,2005,6
84979.0,2104,2358,2007,6
84980.0,2109,2356,1999,6
84981.0,2109,2359,1987,6
84982.0,2096,2365,1985,6
84983.0,2099,2378,1996,6
84984.0,2096,2381,1997,6
84985.0,2096,2377,1997,6
84986.0,2095,2379,1994,6
84987.0,2101,2377,1992,6
84988.0,2104,2370,1986,6
84989.0,2102,2359,1987,6
84990.0,2104,2361,1991,6
84991.0,2105,2359,1992,6
84992.0,2112,2360,1999,6
84993.0,2112,2365,2002,6
84994.0,2103,2369,2007,6
84995.0,2093,2368,2011,6
84996.0,2088,2373,2002,6
84997.0,2091,2368,1997,6
84998.0,2095,2367,1996,6
84999.0,2094,2366,1990,6
85000.0,2086,2368,1991,6
85001.0,2090,2367,1992,6
85002.0,2094,2365,1991,6
85003.0,2097,2364,1990,6
85004.0,2099,2364,1989,6
85005.0,2099,2364,1988,6
85006.0,2097,2363,1989,6
85007.0,2096,2361,1989,6
85008.0,2096,2367,1991,6
85009.0,2099,2363,1991,6
85010.0,2105,2369,1994,6
85011.0,2099,2365,1993,6
85012.0,2095,2373,1991,6
85013.0,2101,2369,1993,6
85014.0,2100,2366,1991,6
85015.0,2096,2363,1992,6
85016.0,2100,2367,1995,6
85017.0,2105,2371,1988,6
85018.0,2100,2371,1988,6
85019.0,2105,2370,1990,6
85020.0,2103,2368,1993,6
85021.0,2099,2367,1994,6
85022.0,2097,2361,1995,6
85023.0,2097,2360,1997,6
85024.0,2100,2369,1997,6
85025.0,2100,2362,1997,6
85026.0,2103,2371,2000,6
85027.0,2100,2369,1997,6
85028.0,2100,2362,1991,6
85029.0,2104,2365,1992,6
85030.0,2107,2362,1991,6
85031.0,2102,2368,1991,6
85032.0,2111,2366,1993,6
85033.0,2102,2366,1990,6
85034.0,2103,2368,1990,6
85035.0,2102,2368,1984,6
85036.0,2100,2366,1985,6
85037.0,2099,2362,1996,6
85038.0,2104,2365,1995,6
85039.0,2100,2369,1995,6
85040.0,2097,2367,1998,6
85041.0,2096,2367,1997,6
85042.0,2095,2366,1990,6
85043.0,2097,2370,1995,6
85044.0,2104,2368,1995,6
85045.0,2102,2357,1996,6
85046.0,2105,2361,2000,6
85047.0,2100,2367,1996,6
85048.0,2103,2362,1997,6
85049.0,2097,2363,1995,6
85050.0,2102,2361,1995,6
85051.0,2104,2361,1991,6
85052.0,2099,2366,1990,6
85053.0,2101,2372,1986,6
85054.0,2103,2379,1991,6
85055.0,2100,2375,1993,6
85056.0,2106,2374,1993,6
85057.0,2101,2369,1990,6
85058.0,2106,2364,1991,6
85059.0,2107,2360,1986,6
85060.0,2104,2359,1992,6
85061.0,2102,2357,1991,6
85062.0,2105,2359,1989,6
85063.0,2097,2359,1995,6
85064.0,2098,2370,1999,6
85065.0,2093,2372,1992,6
85066.0,2095,2370,1992,6
85067.0,2094,2376,1990,6
85068.0,2103,2377,1992,6
85069.0,2099,2377,1987,6
85070.0,2097,2375,1993,6
85071.0,2099,2367,1995,6
85072.0,2099,2363,1997,6
85073.0,2100,2365,2001,6
85074.0,2101,2364,2003,6
85075.0,2098,2366,2003,6
85076.0,2097,2364,2005,6
85077.0,2098,2360,2006,6
85078.0,2098,2364,2006,6
85079.0,2103,2360,2003,6
85080.0,2101,2361,1999,6
85081.0,2099,2364,2005,6
85082.0,2106,2365,2001,6
85083.0,2108,2360,2006,6
85084.0,2109,2359,2001,6
85085.0,2103,2354,1998,6
85086.0,2102,2354,2003,6
85087.0,2095,2354,2003,6
85088.0,2107,2359,1998,6
85089.0,2108,2361,1998,6
85090.0,2109,2369,1996,6
85091.0,2114,2365,1997,6
85092.0,2107,2372,1994,6
85093.0,2110,2377,1992,6
85094.0,2105,2382,1987,6
85095.0,2105,2383,1995,6
85096.0,2106,2378,2011,6
85097.0,2108,2375,2012,6
85098.0,2102,2370,2013,6
85099.0,2107,2361,2009,6
85100.0,2107,2359,1997,6
85101.0,2109,2359,1994,6
85102.0,2109,2355,1996,6
85103.0,2109,2347,2001,6
85104.0,2109,2352,2000,6
85105.0,2117,2353,1996,6
85106.0,2110,2357,2011,6
85107.0,2106,2362,2011,6
85108.0,2105,2371,2012,6
85109.0,2100,2379,2009,6
85110.0,2104,2374,2010,6
85111.0,2102,2367,2003,6
85112.0,2100,2360,2001,6
85113.0,2098,2361,1994,6
85114.0,2094,2367,1991,6
85115.0,2093,2372,1991,6
85116.0,2091,2377,1990,6
85117.0,2087,2370,1990,6
85118.0,2091,2371,1996,6
85119.0,2096,2367,1997,6
85120.0,2100,2367,1998,6
85121.0,2101,2358,1999,6
85122.0,2097,2359,2001,6
85123.0,2100,2365,2010,6
85124.0,2102,2362,2006,6
85125.0,2104,2364,2009,6
85126.0,2097,2363,2007,6
85127.0,2095,2370,2007,6
85128.0,2093,2373,1998,6
85129.0,2096,2380,1995,6
85130.0,2102,2372,1990,6
85131.0,2098,2372,1995,6
85132.0,2103,2369,1995,6
85133.0,2099,2370,1995,6
85134.0,2097,2367,1989,6
85135.0,2093,2362,1989,6
85136.0,2093,2362,1995,6
85137.0,2088,2365,1998,6
85138.0,2089,2367,2006,6
85139.0,2092,2368,2009,6
85140.0,2101,2367,2010,6
85141.0,2115,2364,2006,6
85142.0,2115,2360,2003,6
85143.0,2127,2364,1997,6
85144.0,2114,2362,1987,6
85145.0,2105,2361,1987,6
85146.0,2094,2369,1990,6
85147.0,2097,2373,2001,6
85148.0,2094,2368,2012,6
85149.0,2093,2366,2010,6
85150.0,2093,2367,2007,6
85151.0,2099,2370,2001,6
85152.0,2106,2367,1992,6
85153.0,2102,2367,1999,6
85154.0,2107,2363,1989,6
85155.0,2105,2361,2000,6
85156.0,2105,2360,2000,6
85157.0,2101,2363,2004,6
85158.0,2099,2369,1995,6
85159.0,2102,2373,1995,6
85160.0,2104,2367,2000,6
85161.0,2103,2368,1994,6
85162.0,2099,2366,2003,6
85163.0,2098,2370,2005,6
85164.0,2098,2358,2001,6
85165.0,2101,2362,2004,6
85166.0,2100,2364,2003,6
85167.0,2102,2370,2002,6
85168.0,2100,2369,2004,6
85169.0,2101,2366,2004,6
85170.0,2103,2370,2004,6
85171.0,2103,2371,2004,6
85172.0,2101,2368,2001,6
85173.0,2101,2367,2001,6
85174.0,2102,2365,2000,6
85175.0,2105,2366,2000,6
85176.0,2100,2366,1994,6
85177.0,2102,2368,1995,6
85178.0,2102,2368,1997,6
85179.0,2099,2371,1997,6
85180.0,2103,2364,1999,6
85181.0,2098,2363,1996,6
85182.0,2103,2369,2001,6
85183.0,2099,2370,2001,6
85184.0,2101,2367,2002,6
85185.0,2096,2369,2002,6
85186.0,2102,2365,2001,6
85187.0,2104,2370,2008,6
85188.0,2108,2374,2002,6
85189.0,2103,2366,2006,6
85190.0,2100,2366,1999,6
85191.0,2102,2366,1999,6
85192.0,2093,2367,1994,6
85193.0,2101,2366,1995,6
85194.0,2098,2360,2003,6
85195.0,2098,2365,2002,6
85196.0,2096,2363,2001,6
85197.0,2106,2368,2005,6
85198.0,2099,2367,2002,6
85199.0,2103,2368,2002,6
85200.0,2101,2367,2002,6
85201.0,2106,2367,1998,6
85202.0,2104,2369,1995,6
85203.0,2102,2362,2006,6
85204.0,2103,2368,2004,6
85205.0,2101,2362,2000,6
85206.0,2102,2361,1995,6
85207.0,2102,2370,2002,6
85208.0,2100,2366,1999,6
85209.0,2104,2363,1999,6
85210.0,2102,2369,1998,6
85211.0,2104,2369,1999,6
85212.0,2106,2369,2001,6
85213.0,2101,2363,1997,6
85214.0,2102,2369,1997,6
85215.0,2105,2363,1996,6
85216.0,2101,2366,1996,6
85217.0,2102,2367,1998,6
85218.0,2100,2366,1997,6
85219.0,2102,2367,1990,6
85220.0,2101,2367,1997,6
85221.0,2100,2363,2000,6
85222.0,2097,2368,1991,6
85223.0,2101,2361,1996,6
85224.0,2100,2367,1993,6
85225.0,2100,2370,2002,6
85226.0,2100,2369,1997,6
85227.0,2098,2372,1990,6
85228.0,2098,2367,1990,6
85229.0,2100,2369,1998,6
85230.0,2105,2369,1994,6
85231.0,2096,2366,1995,6
85232.0,2098,2365,1994,6
85233.0,2100,2367,1996,6
85234.0,2099,2368,1997,6
85235.0,2098,2366,1999,6
85236.0,2095,2371,1996,6
85237.0,2099,2369,2001,6
85238.0,2101,2364,1998,6
85239.0,2102,2365,2005,6
85240.0,2107,2366,2004,6
85241.0,2099,2361,1998,6
85242.0,2098,2369,1989,6
85243.0,2100,2365,1999,6
85244.0,2101,2368,2000,6
85245.0,2101,2363,2004,6
85246.0,2100,2368,2002,6
85247.0,2099,2363,1999,6
85248.0,2100,2359,2004,6
85249.0,2101,2361,2003,6
85250.0,2099,2365,2004,6
85251.0,2106,2370,2004,6
85252.0,2104,2368,2001,6
85253.0,2102,2370,2007,6
85254.0,2101,2370,2009,6
85255.0,2103,2363,2001,6
85256.0,2103,2362,2004,6
85257.0,2104,2364,2004,6
85258.0,2107,2362,2011,6
85259.0,2101,2359,2004,6
85260.0,2101,2365,2007,6
85261.0,2105,2364,2010,6
85262.0,2104,2361,2005,6
85263.0,2106,2364,2005,6
85264.0,2104,2366,2002,6
85265.0,2105,2367,2007,6
85266.0,2101,2361,2005,6
85267.0,2100,2371,2001,6
85268.0,2105,2366,2006,6
85269.0,2112,2368,2007,6
85270.0,2107,2367,2003,6
85271.0,2107,2364,2000,6
85272.0,2105,2367,2007,6
85273.0,2107,2367,2001,6
85274.0,2103,2367,2002,6
85275.0,2098,2368,2006,6
85276.0,2103,2370,2005,6
85277.0,2103,2368,2002,6
85278.0,2101,2365,2004,6
85279.0,2107,2361,2004,6
85280.0,2105,2360,2006,6
85281.0,2099,2369,2004,6
85282.0,2101,2371,2002,6
85283.0,2100,2376,1999,6
85284.0,2100,2373,2002,6
85285.0,2104,2362,2004,6
85286.0,2103,2363,2007,6
85287.0,2106,2364,2001,6
85288.0,2104,2360,2007,6
85289.0,2100,2358,2009,6
85290.0,2101,2360,2009,6
85291.0,2099,2363,2008,6
85292.0,2098,2365,2007,6
85293.0,2101,2369,2003,6
85294.0,2100,2370,2006,6
85295.0,2101,2369,1999,6
85296.0,2098,2359,1995,6
85297.0,2105,2361,1999,6
85298.0,2104,2366,2002,6
85299.0,2102,2370,2001,6
85300.0,2103,2370,2000,6
85301.0,2101,2369,2005,6
85302.0,2101,2369,1997,6
85303.0,2105,2368,1998,6
85304.0,2101,2361,2002,6
85305.0,2107,2366,2001,6
85306.0,2105,2365,2006,6
85307.0,2104,2365,2006,6
85308.0,2106,2363,1998,6
85309.0,2103,2369,2005,6
85310.0,2100,2364,2003,6
85311.0,2102,2365,1999,6
85312.0,2099,2364,2004,6
85313.0,2102,2363,2002,6
85314.0,2105,2367,2000,6
85315.0,2109,2371,2005,6
85316.0,2105,2367,2004,6
85317.0,2104,2368,1999,6
85318.0,2101,2367,1999,6
85319.0,2103,2371,1999,6
85320.0,2102,2361,2004,6
85321.0,2100,2369,2001,6
85322.0,2105,2367,2002,6
85323.0,2102,2373,2002,6
85324.0,2102,2369,2004,6
85325.0,2101,2367,2005,6
85326.0,2099,2366,1999,6
85327.0,2101,2364,2003,6
85328.0,2097,2361,2004,6
85329.0,2103,2371,2000,6
85330.0,2105,2368,2003,6
85331.0,2104,2376,2002,6
85332.0,2099,2362,2002,6
85333.0,2104,2365,1999,6
85334.0,2098,2364,2004,6
85335.0,2098,2368,2001,6
85336.0,2099,2363,2003,6
85337.0,2101,2363,2000,6
85338.0,2102,2364,2000,6
85339.0,2100,2370,2000,6
85340.0,2100,2362,2002,6
85341.0,2098,2360,2001,6
85342.0,2106,2363,2001,6
85343.0,2101,2365,2005,6
85344.0,2100,2367,2003,6
85345.0,2105,2364,2006,6
85346.0,2100,2363,2004,6
85347.0,2101,2365,2005,6
85348.0,2103,2364,2002,6
85349.0,2104,2366,2001,6
85350.0,2107,2367,2001,6
85351.0,2102,2369,2004,6
85352.0,2103,2367,2003,6
85353.0,2101,2370,2000,6
85354.0,2105,2367,1999,6
85355.0,2103,2364,1997,6
85356.0,2097,2369,1997,6
85357.0,2101,2363,2003,6
85358.0,2102,2367,2003,6
85359.0,2106,2366,2006,6
85360.0,2105,2370,2002,6
85361.0,2098,2367,1999,6
85362.0,2100,2366,2002,6
85363.0,2091,2367,2000,6
85364.0,2098,2367,1998,6
85365.0,2099,2367,2006,6
85366.0,2103,2367,2003,6
85367.0,2105,2365,2007,6
85368.0,2105,2363,2003,6
85369.0,2109,2365,1995,6
85370.0,2107,2365,2002,6
85371.0,2107,2361,1999,6
85372.0,2110,2361,2006,6
85373.0,2108,2365,1997,6
85374.0,2107,2361,2002,6
85375.0,2105,2365,2001,6
85376.0,2105,2368,2002,6
85377.0,2111,2370,2003,6
85378.0,2105,2365,2003,6
85379.0,2106,2366,2003,6
85380.0,2106,2366,2003,6
85381.0,2097,2364,2004,6
85382.0,2103,2366,1997,6
85383.0,2097,2365,1999,6
85384.0,2103,2367,1997,6
85385.0,2102,2370,1998,6
85386.0,2103,2370,2002,6
85387.0,2105,2364,2005,6
85388.0,2102,2363,2002,6
85389.0,2104,2364,1995,6
85390.0,2107,2364,1999,6
85391.0,2103,2364,1997,6
85392.0,2103,2366,1999,6
85393.0,2105,2372,1999,6
85394.0,2108,2370,2007,6
85395.0,2104,2364,2003,6
85396.0,2103,2364,1998,6
85397.0,2100,2365,1999,6
85398.0,2102,2366,1998,6
85399.0,2098,2367,2001,6
85400.0,2101,2368,2005,6
85401.0,2098,2370,2004,6
85402.0,2103,2367,2003,6
85403.0,2100,2367,2000,6
85404.0,2106,2363,1998,6
85405.0,2106,2361,2001,6
85406.0,2105,2364,2002,6
85407.0,2107,2364,2004,6
85408.0,2103,2367,1996,6
85409.0,2099,2369,1996,6
85410.0,2108,2367,2001,6
85411.0,2103,2365,2001,6
85412.0,2102,2363,2001,6
85413.0,2099,2366,2001,6
85414.0,2108,2369,2005,6
85415.0,2105,2367,1996,6
85416.0,2102,2364,2008,6
85417.0,2102,2365,2001,6
85418.0,2101,2367,2003,6
85419.0,2103,2367,1998,6
85420.0,2109,2366,2000,6
85421.0,2106,2365,2000,6
85422.0,2108,2368,2003,6
85423.0,2109,2365,2003,6
85424.0,2111,2370,2002,6
85425.0,2106,2362,2006,6
85426.0,2100,2373,1999,6
85427.0,2099,2363,2000,6
85428.0,2099,2363,1999,6
85429.0,2102,2364,2002,6
85430.0,2102,2361,1999,6
85431.0,2099,2367,2000,6
85432.0,2105,2366,2005,6
85433.0,2102,2364,2002,6
85434.0,2107,2367,2000,6
85435.0,2105,2362,1999,6
85436.0,2099,2367,1998,6
85437.0,2104,2363,2003,6
85438.0,2105,2363,1999,6
85439.0,2113,2366,2000,6
85440.0,2109,2366,2004,6
85441.0,2106,2367,2001,6
85442.0,2106,2369,1997,6
85443.0,2107,2363,2000,6
85444.0,2103,2363,1993,6
85445.0,2105,2365,1996,6
85446.0,2106,2367,1998,6
85447.0,2100,2364,1996,6
85448.0,2104,2365,2004,6
85449.0,2099,2370,2006,6
85450.0,2108,2369,1997,6
85451.0,2105,2372,1999,6
85452.0,2105,2365,1998,6
85453.0,2105,2358,1999,6
85454.0,2103,2357,2005,6
85455.0,2105,2360,2006,6
85456.0,2108,2359,2007,6
85457.0,2107,2365,2009,6
85458.0,2104,2365,2013,6
85459.0,2105,2364,2010,6
85460.0,2098,2369,2005,6
85461.0,2097,2371,2005,6
85462.0,2100,2370,2004,6
85463.0,2099,2367,2003,6
85464.0,2098,2362,1998,6
85465.0,2099,2363,1996,6
85466.0,2104,2367,1996,6
85467.0,2100,2371,1998,6
85468.0,2102,2362,1999,6
85469.0,2106,2367,1996,6
85470.0,2106,2362,2003,6
85471.0,2100,2363,2007,6
85472.0,2105,2359,2004,6
85473.0,2111,2364,2004,6
85474.0,2106,2361,1997,6
85475.0,2115,2358,2003,6
85476.0,2110,2359,2004,6
85477.0,2117,2363,2004,6
85478.0,2116,2363,2008,6
85479.0,2120,2363,2009,6
85480.0,2111,2366,2004,6
85481.0,2112,2365,2003,6
85482.0,2106,2366,2007,6
85483.0,2111,2364,2011,6
85484.0,2105,2365,2010,6
85485.0,2111,2367,2007,6
85486.0,2100,2365,2009,6
85487.0,2109,2368,2006,6
85488.0,2103,2364,1999,6
85489.0,2093,2372,2000,6
85490.0,2094,2371,2001,6
85491.0,2089,2366,2003,6
85492.0,2091,2374,1995,6
85493.0,2096,2367,1993,6
85494.0,2098,2366,1995,6
85495.0,2102,2367,1998,6
85496.0,2102,2370,1998,6
85497.0,2102,2367,1999,6
85498.0,2107,2366,1998,6
85499.0,2103,2369,2002,6
85500.0,2108,2365,1999,6
85501.0,2108,2360,2002,6
85502.0,2103,2357,2001,6
85503.0,2108,2355,2001,6
85504.0,2104,2359,2007,6
85505.0,2103,2354,2003,6
85506.0,2112,2368,1999,6
85507.0,2111,2365,2010,6
85508.0,2107,2371,2007,6
85509.0,2108,2371,2010,6
85510.0,2095,2366,1997,6
85511.0,2095,2364,1996,6
85512.0,2097,2362,1996,6
85513.0,2097,2361,1996,6
85514.0,2099,2360,1996,6
85515.0,2100,2361,1995,6
85516.0,2099,2361,1995,6
85517.0,2096,2365,2003,6
85518.0,2099,2365,2004,6
85519.0,2099,2366,2000,6
85520.0,2105,2365,2002,6
85521.0,2106,2363,2006,6
85522.0,2111,2363,2006,6
85523.0,2117,2363,1996,6
85524.0,2107,2359,1998,6
85525.0,2114,2358,1996,6
85526.0,2110,2363,2005,6
85527.0,2111,2363,2000,6
85528.0,2115,2363,2004,6
85529.0,2109,2364,2000,6
85530.0,2110,2371,2001,6
85531.0,2109,2363,1999,6
85532.0,2103,2365,1998,6
85533.0,2099,2366,1994,6
85534.0,2103,2364,1996,6
85535.0,2097,2368,2002,6
85536.0,2101,2369,1999,6
85537.0,2093,2360,1996,6
85538.0,2098,2368,1993,6
85539.0,2096,2370,1997,6
85540.0,2097,2368,1996,6
85541.0,2094,2370,1994,6
85542.0,2098,2363,2004,6
85543.0,2097,2361,1994,6
85544.0,2096,2365,1999,6
85545.0,2095,2362,2003,6
85546.0,2106,2368,2001,6
85547.0,2104,2367,1997,6
85548.0,2105,2366,1996,6
85549.0,2109,2359,1992,6
85550.0,2106,2362,1994,6
85551.0,2107,2371,1994,6
85552.0,2110,2369,1991,6
85553.0,2109,2364,1996,6
85554.0,2111,2367,1997,6
85555.0,2109,2368,1997,6
85556.0,2109,2370,1998,6
85557.0,2103,2366,1999,6
85558.0,2108,2368,2002,6
85559.0,2107,2366,2002,6
85560.0,2113,2363,2001,6
85561.0,2109,2360,1997,6
85562.0,2107,2361,2007,6
85563.0,2112,2365,2006,6
85564.0,2107,2371,2004,6
85565.0,2107,2367,2002,6
85566.0,2103,2363,1997,6
85567.0,2100,2360,1999,6
85568.0,2107,2364,2005,6
85569.0,2105,2361,2007,6
85570.0,2105,2368,2004,6
85571.0,2102,2361,2001,6
85572.0,2101,2367,2003,6
85573.0,2103,2362,2003,6
85574.0,2098,2366,1999,6
85575.0,2101,2368,2003,6
85576.0,2104,2371,2004,6
85577.0,2103,2363,2006,6
85578.0,2106,2362,1999,6
85579.0,2100,2364,1995,6
85580.0,2106,2364,1997,6
85581.0,2104,2366,2005,6
85582.0,2107,2365,2006,6
85583.0,2103,2367,1996,6
85584.0,2109,2360,1997,6
85585.0,2108,2365,1998,6
85586.0,2109,2369,2002,6
85587.0,2115,2369,2000,6
85588.0,2106,2369,2004,6
85589.0,2105,2365,2003,6
85590.0,2106,2365,1999,6
85591.0,2106,2365,1997,6
85592.0,2105,2356,1998,6
85593.0,2110,2364,1997,6
85594.0,2106,2358,1994,6
85595.0,2105,2358,1998,6
85596.0,2104,2361,1993,6
85597.0,2109,2369,1996,6
85598.0,2106,2369,1997,6
85599.0,2104,2369,1994,6
85600.0,2109,2365,2001,6
85601.0,2110,2359,1997,6
85602.0,2106,2367,2000,6
85603.0,2112,2369,2004,6
85604.0,2107,2362,1996,6
85605.0,2103,2358,2002,6
85606.0,2105,2356,2006,6
85607.0,2098,2360,2002,6
85608.0,2098,2359,2005,6
85609.0,2097,2351,2000,6
85610.0,2096,2365,2001,6
85611.0,2102,2371,2001,6
85612.0,2110,2389,1995,6
85613.0,2107,2387,1992,6
85614.0,2113,2382,1997,6
85615.0,2113,2372,2004,6
85616.0,2111,2363,2002,6
85617.0,2111,2351,2005,6
85618.0,2116,2351,2004,6
85619.0,2113,2349,2001,6
85620.0,2107,2356,1999,6
85621.0,2108,2361,2000,6
85622.0,2111,2367,2005,6
85623.0,2112,2364,2009,6
85624.0,2116,2356,2006,6
85625.0,2112,2359,2004,6
85626.0,2109,2359,2004,6
85627.0,2109,2365,2002,6
85628.0,2103,2368,1999,6
85629.0,2099,2369,2005,6
85630.0,2106,2364,2002,6
85631.0,2104,2359,2007,6
85632.0,2109,2363,2009,6
85633.0,2107,2364,2002,6
85634.0,2107,2360,2000,6
85635.0,2112,2356,1999,6
85636.0,2109,2370,2002,6
85637.0,2110,2366,1999,6
85638.0,2107,2369,1998,6
85639.0,2104,2368,1997,6
85640.0,2101,2367,1999,6
85641.0,2096,2371,2004,6
85642.0,2102,2364,2004,6
85643.0,2103,2367,2005,6
85644.0,2106,2363,2006,6
85645.0,2107,2367,2006,6
85646.0,2107,2365,2006,6
85647.0,2106,2370,2009,6
85648.0,2105,2370,2004,6
85649.0,2107,2364,2008,6
85650.0,2106,2367,2006,6
85651.0,2105,2371,2012,6
85652.0,2109,2371,2006,6
85653.0,2108,2371,2011,6
85654.0,2105,2371,2001,6
85655.0,2106,2361,1998,6
85656.0,2106,2354,2002,6
85657.0,2113,2354,2005,6
85658.0,2117,2356,2007,6
85659.0,2119,2358,2009,6
85660.0,2118,2363,2006,6
85661.0,2119,2363,2007,6
85662.0,2118,2370,2006,6
85663.0,2110,2364,2011,6
85664.0,2109,2360,2011,6
85665.0,2107,2353,2011,6
85666.0,2103,2361,2006,6
85667.0,2105,2371,2011,6
85668.0,2105,2369,2005,6
85669.0,2100,2372,1999,6
85670.0,2105,2370,1998,6
85671.0,2109,2367,1997,6
85672.0,2104,2360,2002,6
85673.0,2112,2363,1998,6
85674.0,2107,2361,2002,6
85675.0,2112,2364,1999,6
85676.0,2112,2364,2006,6
85677.0,2114,2364,2005,6
85678.0,2110,2367,2006,6
85679.0,2112,2362,2001,6
85680.0,2109,2371,2002,6
85681.0,2111,2369,2001,6
85682.0,2112,2367,2001,6
85683.0,2113,2365,2001,6
85684.0,2114,2363,2002,6
85685.0,2114,2360,2000,6
85686.0,2113,2365,2000,6
85687.0,2118,2362,2002,6
85688.0,2120,2361,2009,6
85689.0,2108,2362,1997,6
85690.0,2104,2369,2005,6
85691.0,2105,2367,2004,6
85692.0,2101,2367,2005,6
85693.0,2102,2367,1999,6
85694.0,2097,2367,1995,6
85695.0,2102,2367,1997,6
85696.0,2098,2374,2001,6
85697.0,2103,2368,1998,6
85698.0,2106,2372,1991,6
85699.0,2104,2369,1995,6
85700.0,2099,2371,1991,6
85701.0,2102,2363,1993,6
85702.0,2097,2369,1994,6
85703.0,2099,2368,1991,6
85704.0,2103,2372,1995,6
85705.0,2102,2366,1994,6
85706.0,2096,2368,1990,6
85707.0,2103,2364,1989,6
85708.0,2093,2362,1995,6
85709.0,2093,2361,1996,6
85710.0,2103,2357,2003,6
85711.0,2111,2358,2006,6
85712.0,2110,2359,2008,6
85713.0,2107,2361,2008,6
85714.0,2107,2354,2008,6
85715.0,2111,2361,2007,6
85716.0,2113,2355,2008,6
85717.0,2112,2351,2011,6
85718.0,2109,2361,2009,6
85719.0,2117,2356,2003,6
85720.0,2111,2367,2007,6
85721.0,2110,2367,2005,6
85722.0,2105,2367,2002,6
85723.0,2111,2366,1999,6
85724.0,2113,2360,1997,6
85725.0,2118,2361,1994,6
85726.0,2113,2360,1997,6
85727.0,2117,2364,2001,6
85728.0,2111,2370,1997,6
85729.0,2114,2370,1999,6
85730.0,2106,2371,2005,6
85731.0,2110,2361,2002,6
85732.0,2107,2360,2001,6
85733.0,2107,2363,2006,6
85734.0,2110,2361,2005,6
85735.0,2108,2362,2003,6
85736.0,2112,2360,2001,6
85737.0,2111,2366,2003,6
85738.0,2105,2364,2003,6
85739.0,2109,2365,2004,6
85740.0,2107,2358,2004,6
85741.0,2105,2358,2003,6
85742.0,2111,2356,1999,6
85743.0,2109,2369,2005,6
85744.0,2107,2369,1996,6
85745.0,2105,2364,2002,6
85746.0,2107,2366,2001,6
85747.0,2110,2367,1994,6
85748.0,2110,2363,1998,6
85749.0,2108,2364,1999,6
85750.0,2108,2365,2005,6
85751.0,2109,2366,2006,6
85752.0,2101,2362,2000,6
85753.0,2100,2363,1999,6
85754.0,2107,2364,1999,6
85755.0,2106,2369,2003,6
85756.0,2107,2368,2007,6
85757.0,2112,2365,2003,6
85758.0,2110,2365,2002,6
85759.0,2109,2369,1997,6
85760.0,2113,2362,2002,6
85761.0,2111,2364,1998,6
85762.0,2114,2367,2001,6
85763.0,2113,2360,2005,6
85764.0,2114,2357,2001,6
85765.0,2110,2361,1999,6
85766.0,2113,2359,1999,6
85767.0,2109,2363,2000,6
85768.0,2112,2364,1999,6
85769.0,2108,2367,2000,6
85770.0,2106,2361,2003,6
85771.0,2105,2357,1998,6
85772.0,2108,2353,1999,6
85773.0,2112,2360,1998,6
85774.0,2106,2363,1998,6
85775.0,2106,2363,2001,6
85776.0,2107,2365,2006,6
85777.0,2107,2366,1996,6
85778.0,2104,2366,2001,6
85779.0,2105,2366,1995,6
85780.0,2110,2361,1998,6
85781.0,2110,2363,2000,6
85782.0,2108,2361,1998,6
85783.0,2112,2364,2000,6
85784.0,2108,2368,2002,6
85785.0,2106,2366,2003,6
85786.0,2103,2359,2000,6
85787.0,2110,2361,2001,6
85788.0,2107,2362,2005,6
85789.0,2110,2362,1997,6
85790.0,2107,2359,2001,6
85791.0,2108,2373,1999,6
85792.0,2103,2367,2005,6
85793.0,2109,2366,2004,6
85794.0,2108,2360,2004,6
85795.0,2109,2364,1996,6
85796.0,2107,2360,1995,6
85797.0,2107,2363,1996,6
85798.0,2109,2357,2003,6
85799.0,2104,2363,1994,6
85800.0,2112,2363,2004,6
85801.0,2109,2361,2002,6
85802.0,2115,2366,1998,6
85803.0,2111,2363,1999,6
85804.0,2110,2361,1999,6
85805.0,2109,2361,1997,6
85806.0,2106,2358,1999,6
85807.0,2110,2363,2001,6
85808.0,2108,2358,2002,6
85809.0,2109,2357,2006,6
85810.0,2111,2351,2005,6
85811.0,2112,2359,2002,6
85812.0,2113,2365,1999,6
85813.0,2099,2379,1991,6
85814.0,2104,2381,1987,6
85815.0,2106,2385,1988,6
85816.0,2102,2382,1998,6
85817.0,2104,2379,1999,6
85818.0,2103,2377,2003,6
85819.0,2101,2366,2008,6
85820.0,2087,2360,2003,6
85821.0,2088,2361,2003,6
85822.0,2092,2364,1996,6
85823.0,2100,2377,1998,6
85824.0,2103,2363,2001,6
85825.0,2111,2360,2003,6
85826.0,2125,2352,2009,6
85827.0,2119,2351,2007,6
85828.0,2117,2356,2004,6
85829.0,2107,2354,2008,6
85830.0,2100,2358,2004,6
85831.0,2104,2359,2006,6
85832.0,2108,2366,2008,6
85833.0,2114,2361,2003,6
85834.0,2108,2355,1997,6
85835.0,2104,2362,1998,6
85836.0,2115,2363,1995,6
85837.0,2117,2367,1999,6
85838.0,2121,2363,1994,6
85839.0,2133,2372,1999,6
85840.0,2130,2368,2004,6
85841.0,2131,2376,2014,6
85842.0,2129,2371,2012,6
85843.0,2122,2368,2005,6
85844.0,2118,2360,1996,6
85845.0,2106,2364,1996,6
85846.0,2097,2362,1986,6
85847.0,2099,2367,1994,6
85848.0,2102,2363,1997,6
85849.0,2099,2370,1998,6
85850.0,2093,2350,1979,6
85851.0,2094,2352,1980,6
85852.0,2093,2361,1986,6
85853.0,2091,2357,1987,6
85854.0,2079,2371,1986,6
85855.0,2077,2370,1983,6
85856.0,2075,2377,1988,6
85857.0,2080,2373,1985,6
85858.0,2084,2377,1993,6
85859.0,2083,2377,1988,6
85860.0,2085,2381,1988,6
85861.0,2089,2369,1994,6
85862.0,2087,2366,1998,6
85863.0,2087,2357,1994,6
85864.0,2091,2354,1996,6
85865.0,2099,2356,1991,6
85866.0,2104,2351,1997,6
85867.0,2102,2361,1996,6
85868.0,2107,2363,1999,6
85869.0,2105,2366,1997,6
85870.0,2110,2371,1996,6
85871.0,2112,2371,1994,6
85872.0,2107,2368,1995,6
85873.0,2112,2366,1987,6
85874.0,2110,2365,1993,6
85875.0,2109,2361,1999,6
85876.0,2105,2363,2001,6
85877.0,2111,2359,1997,6
85878.0,2108,2370,1998,6
85879.0,2098,2360,1990,6
85880.0,2109,2363,1995,6
85881.0,2108,2361,1998,6
85882.0,2106,2361,1990,6
85883.0,2106,2361,1992,6
85884.0,2108,2370,2000,6
85885.0,2107,2375,1999,6
85886.0,2104,2375,2000,6
85887.0,2102,2372,2002,6
85888.0,2101,2365,2003,6
85889.0,2106,2359,2009,6
85890.0,2104,2359,2007,6
85891.0,2102,2354,2005,6
85892.0,2101,2354,1998,6
85893.0,2100,2352,1988,6
85894.0,2102,2355,1995,6
85895.0,2105,2371,1991,6
85896.0,2092,2370,1987,6
85897.0,2094,2375,1986,6
85898.0,2098,2366,1995,6
85899.0,2105,2359,2007,6
85900.0,2106,2354,2015,6
85901.0,2110,2355,2011,6
85902.0,2099,2352,2007,6
85903.0,2096,2341,1993,6
85904.0,2101,2355,1996,6
85905.0,2103,2359,1991,6
85906.0,2093,2365,1995,6
85907.0,2087,2364,1996,6
85908.0,2094,2371,1987,6
85909.0,2110,2365,1982,6
85910.0,2114,2370,1991,6
85911.0,2118,2373,1991,6
85912.0,2115,2379,2002,6
85913.0,2117,2376,2021,6
85914.0,2118,2374,2023,6
85915.0,2113,2367,2035,6
85916.0,2116,2360,2035,6
85917.0,2114,2360,2036,6
85918.0,2116,2369,2040,6
85919.0,2115,2381,2033,6
85920.0,2108,2389,2046,6
85921.0,2111,2391,2052,6
85922.0,2097,2381,2046,6
85923.0,2097,2372,2055,6
85924.0,2084,2372,2059,6
85925.0,2088,2355,2052,6
85926.0,2089,2359,2053,6
85927.0,2087,2361,2054,6
85928.0,2086,2358,2059,6
85929.0,2086,2355,2060,6
85930.0,2083,2363,2066,6
85931.0,2077,2359,2068,6
85932.0,2066,2355,2074,6
85933.0,2067,2359,2072,6
85934.0,2069,2366,2070,6
85935.0,2068,2372,2077,6
85936.0,2071,2379,2067,6
85937.0,2067,2389,2060,6
85938.0,2053,2391,2057,6
85939.0,2045,2385,2052,6
85940.0,2049,2376,2060,6
85941.0,2055,2361,2060,6
85942.0,2077,2364,2059,6
85943.0,2082,2365,2063,6
85944.0,2096,2369,2066,6
85945.0,2081,2397,2048,6
85946.0,2077,2407,2024,6
85947.0,2055,2428,2010,6
85948.0,2057,2431,2014,6
85949.0,2061,2431,2024,6
85950.0,2061,2407,2046,6
85951.0,2067,2394,2058,6
85952.0,2080,2377,2084,6
85953.0,2096,2359,2097,6
85954.0,2092,2343,2099,6
85955.0,2106,2332,2102,6
85956.0,2100,2347,2092,6
85957.0,2099,2350,2091,6
85958.0,2102,2355,2083,6
85959.0,2091,2370,2079,6
85960.0,2075,2379,2070,6
85961.0,2084,2367,2074,6
85962.0,2086,2368,2080,6
85963.0,2085,2360,2087,6
85964.0,2083,2355,2094,6
85965.0,2087,2357,2093,6
85966.0,2086,2359,2090,6
85967.0,2092,2364,2082,6
85968.0,2094,2364,2082,6
85969.0,2092,2363,2077,6
85970.0,2100,2367,2077,6
85971.0,2088,2373,2075,6
85972.0,2091,2375,2079,6
85973.0,2094,2372,2078,6
85974.0,2090,2373,2072,6
85975.0,2085,2371,2075,6
85976.0,2098,2371,2073,6
85977.0,2092,2377,2069,6
85978.0,2084,2379,2054,6
85979.0,2076,2383,2044,6
85980.0,2073,2386,2043,6
85981.0,2073,2397,2051,6
85982.0,2075,2401,2046,6
85983.0,2076,2395,2056,6
85984.0,2072,2386,2062,6
85985.0,2070,2368,2070,6
85986.0,2077,2360,2074,6
85987.0,2087,2361,2069,6
85988.0,2077,2356,2065,6
85989.0,2079,2358,2061,6
85990.0,2076,2363,2057,6
85991.0,2066,2367,2057,6
85992.0,2066,2378,2055,6
85993.0,2054,2377,2056,6
85994.0,2056,2377,2056,6
85995.0,2057,2375,2059,6
85996.0,2050,2374,2058,6
85997.0,2052,2375,2047,6
85998.0,2050,2380,2042,6
85999.0,2046,2382,2037,6
86000.0,2048,2387,2031,6
86001.0,2049,2394,2026,6
86002.0,2046,2396,2026,6
86003.0,2049,2393,2022,6
86004.0,2049,2391,2041,6
86005.0,2046,2377,2037,6
86006.0,2058,2365,2039,6
86007.0,2063,2364,2048,6
86008.0,2064,2356,2044,6
86009.0,2063,2358,2039,6
86010.0,2059,2365,2038,6
86011.0,2065,2368,2037,6
86012.0,2060,2381,2035,6
86013.0,2062,2385,2028,6
86014.0,2063,2385,2031,6
86015.0,2061,2384,2025,6
86016.0,2061,2375,2032,6
86017.0,2063,2376,2033,6
86018.0,2064,2375,2039,6
86019.0,2064,2380,2038,6
86020.0,2088,2379,2060,6
86021.0,2088,2382,2062,6
86022.0,2086,2383,2064,6
86023.0,2082,2383,2067,6
86024.0,2076,2385,2067,6
86025.0,2072,2387,2066,6
86026.0,2072,2386,2066,6
86027.0,2070,2387,2058,6
86028.0,2065,2394,2044,6
86029.0,2047,2399,2028,6
86030.0,2048,2395,2022,6
86031.0,2048,2396,2013,6
86032.0,2049,2393,2015,6
86033.0,2046,2386,2015,6
86034.0,2057,2371,2021,6
86035.0,2063,2378,2031,6
86036.0,2069,2376,2038,6
86037.0,2069,2371,2043,6
86038.0,2069,2368,2032,6
86039.0,2073,2369,2032,6
86040.0,2069,2370,2029,6
86041.0,2066,2380,2029,6
86042.0,2068,2380,2030,6
86043.0,2062,2385,2035,6
86044.0,2059,2371,2035,6
86045.0,2067,2372,2037,6
86046.0,2065,2377,2049,6
86047.0,2064,2372,2040,6
86048.0,2068,2377,2045,6
86049.0,2066,2377,2033,6
86050.0,2066,2380,2038,6
86051.0,2063,2379,2041,6
86052.0,2066,2378,2035,6
86053.0,2064,2382,2031,6
86054.0,2059,2381,2036,6
86055.0,2065,2382,2036,6
86056.0,2065,2381,2043,6
86057.0,2065,2379,2039,6
86058.0,2067,2379,2039,6
86059.0,2065,2378,2043,6
86060.0,2063,2376,2040,6
86061.0,2062,2376,2038,6
86062.0,2063,2378,2037,6
86063.0,2066,2376,2041,6
86064.0,2072,2370,2035,6
86065.0,2069,2367,2039,6
86066.0,2068,2379,2035,6
86067.0,2068,2384,2035,6
86068.0,2059,2376,2034,6
86069.0,2064,2382,2039,6
86070.0,2065,2372,2031,6
86071.0,2064,2373,2031,6
86072.0,2064,2375,2028,6
86073.0,2056,2379,2017,6
86074.0,2053,2383,2017,6
86075.0,2062,2383,2023,6
86076.0,2054,2381,2024,6
86077.0,2056,2375,2033,6
86078.0,2053,2371,2040,6
86079.0,2052,2370,2037,6
86080.0,2049,2375,2033,6
86081.0,2055,2376,2027,6
86082.0,2052,2379,2030,6
86083.0,2053,2385,2029,6
86084.0,2051,2386,2034,6
86085.0,2055,2386,2031,6
86086.0,2062,2380,2035,6
86087.0,2059,2383,2043,6
86088.0,2066,2378,2038,6
86089.0,2055,2377,2036,6
86090.0,2058,2376,2038,6
86091.0,2056,2381,2037,6
86092.0,2052,2380,2037,6
86093.0,2051,2384,2031,6
86094.0,2050,2382,2037,6
86095.0,2051,2373,2041,6
86096.0,2048,2374,2040,6
86097.0,2052,2381,2040,6
86098.0,2057,2377,2040,6
86099.0,2056,2383,2037,6
86100.0,2054,2387,2039,6
86101.0,2050,2384,2039,6
86102.0,2048,2386,2039,6
86103.0,2054,2384,2043,6
86104.0,2055,2385,2040,6
86105.0,2057,2389,2036,6
86106.0,2056,2381,2033,6
86107.0,2059,2383,2036,6
86108.0,2064,2385,2045,6
86109.0,2059,2380,2040,6
86110.0,2059,2379,2045,6
86111.0,2053,2379,2041,6
86112.0,2052,2367,2038,6
86113.0,2058,2370,2036,6
86114.0,2054,2375,2032,6
86115.0,2059,2383,2030,6
86116.0,2055,2381,2033,6
86117.0,2061,2379,2033,6
86118.0,2061,2381,2029,6
86119.0,2064,2376,2036,6
86120.0,2065,2376,2035,6
86121.0,2059,2376,2034,6
86122.0,2062,2379,2036,6
86123.0,2058,2376,2030,6
86124.0,2061,2378,2036,6
86125.0,2059,2383,2028,6
86126.0,2062,2383,2036,6
86127.0,2064,2381,2035,6
86128.0,2063,2379,2035,6
86129.0,2060,2382,2035,6
86130.0,2060,2375,2032,6
86131.0,2060,2377,2029,6
86132.0,2061,2377,2030,6
86133.0,2066,2379,2031,6
86134.0,2060,2376,2031,6
86135.0,2069,2379,2029,6
86136.0,2063,2377,2036,6
86137.0,2068,2370,2030,6
86138.0,2070,2373,2034,6
86139.0,2067,2374,2038,6
86140.0,2068,2377,2033,6
86141.0,2065,2381,2029,6
86142.0,2068,2384,2038,6
86143.0,2065,2381,2035,6
86144.0,2060,2372,2039,6
86145.0,2068,2375,2041,6
86146.0,2063,2379,2038,6
86147.0,2065,2377,2039,6
86148.0,2060,2382,2034,6
86149.0,2057,2376,2034,6
86150.0,2059,2381,2034,6
86151.0,2071,2376,2040,6
86152.0,2066,2377,2039,6
86153.0,2065,2371,2035,6
86154.0,2068,2367,2036,6
86155.0,2066,2371,2036,6
86156.0,2058,2384,2029,6
86157.0,2043,2387,2027,6
86158.0,2030,2384,2026,6
86159.0,2010,2387,2034,6
86160.0,1997,2393,2037,6
86161.0,1979,2405,2057,6
86162.0,1986,2415,2076,6
86163.0,1996,2432,2084,6
86164.0,2022,2434,2070,6
86165.0,2041,2416,2055,6
86166.0,2051,2383,2039,6
86167.0,2067,2369,2039,6
86168.0,2082,2347,2037,6
86169.0,2096,2347,2046,6
86170.0,2094,2345,2058,6
86171.0,2065,2344,2063,6
86172.0,2044,2355,2070,6
86173.0,2024,2365,2064,6
86174.0,2017,2385,2058,6
86175.0,2025,2408,2048,6
86176.0,2033,2419,2045,6
86177.0,2045,2425,2040,6
86178.0,2072,2409,2043,6
86179.0,2077,2393,2040,6
86180.0,2075,2393,2027,6
86181.0,2075,2380,2015,6
86182.0,2070,2375,2015,6
86183.0,2066,2371,2027,6
86184.0,2068,2359,2046,6
86185.0,2063,2348,2057,6
86186.0,2060,2354,2069,6
86187.0,2066,2355,2065,6
86188.0,2070,2363,2059,6
86189.0,2066,2357,2040,6
86190.0,2061,2361,2027,6
86191.0,2057,2365,2028,6
86192.0,2059,2369,2029,6
86193.0,2060,2371,2032,6
86194.0,2062,2371,2034,6
86195.0,2064,2373,2031,6
86196.0,2074,2374,2029,6
86197.0,2070,2374,2029,6
86198.0,2073,2375,2038,6
86199.0,2077,2371,2039,6
86200.0,2071,2373,2035,6
86201.0,2075,2370,2037,6
86202.0,2074,2367,2037,6
86203.0,2070,2379,2035,6
86204.0,2069,2376,2028,6
86205.0,2070,2374,2031,6
86206.0,2066,2385,2030,6
86207.0,2069,2381,2029,6
86208.0,2068,2384,2029,6
86209.0,2071,2378,2029,6
86210.0,2067,2383,2035,6
86211.0,2067,2377,2043,6
86212.0,2067,2377,2042,6
86213.0,2073,2368,2042,6
86214.0,2072,2367,2033,6
86215.0,2070,2369,2033,6
86216.0,2065,2375,2040,6
86217.0,2070,2374,2047,6
86218.0,2066,2378,2038,6
86219.0,2066,2385,2043,6
86220.0,2067,2392,2039,6
86221.0,2068,2391,2043,6
86222.0,2065,2392,2042,6
86223.0,2066,2385,2043,6
86224.0,2064,2380,2038,6
86225.0,2064,2376,2046,6
86226.0,2061,2375,2041,6
86227.0,2061,2366,2039,6
86228.0,2058,2361,2038,6
86229.0,2068,2365,2046,6
86230.0,2071,2370,2052,6
86231.0,2067,2377,2052,6
86232.0,2073,2381,2059,6
86233.0,2074,2388,2055,6
86234.0,2067,2394,2045,6
86235.0,2069,2380,2041,6
86236.0,2070,2382,2042,6
86237.0,2069,2377,2034,6
86238.0,2063,2375,2036,6
86239.0,2063,2375,2042,6
86240.0,2070,2382,2041,6
86241.0,2065,2380,2042,6
86242.0,2068,2382,2045,6
86243.0,2071,2381,2043,6
86244.0,2067,2381,2040,6
86245.0,2064,2389,2044,6
86246.0,2060,2392,2037,6
86247.0,2061,2391,2033,6
86248.0,2063,2396,2031,6
86249.0,2063,2379,2042,6
86250.0,2067,2369,2040,6
86251.0,2067,2355,2046,6
86252.0,2063,2365,2045,6
86253.0,2061,2368,2038,6
86254.0,2061,2371,2036,6
86255.0,2063,2384,2030,6
86256.0,2062,2383,2032,6
86257.0,2065,2389,2030,6
86258.0,2064,2394,2033,6
86259.0,2059,2384,2032,6
86260.0,2065,2384,2034,6
86261.0,2067,2377,2030,6
86262.0,2059,2372,2028,6
86263.0,2062,2373,2027,6
86264.0,2064,2378,2034,6
86265.0,2064,2383,2035,6
86266.0,2070,2378,2035,6
86267.0,2065,2377,2036,6
86268.0,2066,2377,2036,6
86269.0,2059,2374,2037,6
86270.0,2065,2376,2026,6
86271.0,2064,2370,2034,6
86272.0,2065,2379,2030,6
86273.0,2062,2378,2036,6
86274.0,2066,2378,2042,6
86275.0,2062,2382,2035,6
86276.0,2061,2371,2033,6
86277.0,2057,2375,2031,6
86278.0,2064,2378,2035,6
86279.0,2062,2373,2035,6
86280.0,2064,2375,2034,6
86281.0,2055,2380,2034,6
86282.0,2062,2378,2037,6
86283.0,2062,2381,2032,6
86284.0,2062,2375,2041,6
86285.0,2059,2372,2038,6
86286.0,2060,2379,2035,6
86287.0,2054,2378,2033,6
86288.0,2057,2379,2035,6
86289.0,2060,2379,2041,6
86290.0,2056,2381,2039,6
86291.0,2056,2377,2039,6
86292.0,2059,2379,2039,6
86293.0,2057,2381,2038,6
86294.0,2058,2381,2043,6
86295.0,2055,2382,2037,6
86296.0,2058,2379,2037,6
86297.0,2054,2389,2040,6
86298.0,2057,2377,2037,6
86299.0,2054,2377,2036,6
86300.0,2059,2376,2039,6
86301.0,2059,2379,2031,6
86302.0,2060,2383,2039,6
86303.0,2060,2387,2038,6
86304.0,2058,2381,2037,6
86305.0,2062,2378,2035,6
86306.0,2060,2377,2036,6
86307.0,2061,2379,2032,6
86308.0,2061,2377,2037,6
86309.0,2058,2376,2032,6
86310.0,2064,2380,2031,6
86311.0,2064,2379,2039,6
86312.0,2063,2377,2038,6
86313.0,2058,2384,2034,6
86314.0,2059,2369,2042,6
86315.0,2060,2377,2039,6
86316.0,2058,2379,2035,6
86317.0,2054,2375,2037,6
86318.0,2056,2386,2038,6
86319.0,2055,2381,2038,6
86320.0,2052,2383,2035,6
86321.0,2059,2381,2037,6
86322.0,2058,2382,2041,6
86323.0,2066,2385,2035,6
86324.0,2060,2381,2036,6
86325.0,2067,2381,2039,6
86326.0,2064,2372,2036,6
86327.0,2062,2374,2038,6
86328.0,2060,2379,2039,6
86329.0,2058,2379,2037,6
86330.0,2061,2376,2032,6
86331.0,2058,2381,2040,6
86332.0,2064,2374,2032,6
86333.0,2064,2379,2030,6
86334.0,2063,2380,2026,6
86335.0,2061,2382,2036,6
86336.0,2063,2383,2037,6
86337.0,2057,2382,2036,6
86338.0,2061,2376,2034,6
86339.0,2061,2377,2035,6
86340.0,2067,2382,2036,6
86341.0,2060,2377,2039,6
86342.0,2062,2380,2035,6
86343.0,2056,2380,2040,6
86344.0,2057,2381,2039,6
86345.0,2061,2376,2038,6
86346.0,2061,2375,2040,6
86347.0,2059,2375,2039,6
86348.0,2069,2382,2040,6
86349.0,2071,2383,2035,6
86350.0,2068,2377,2037,6
86351.0,2064,2383,2033,6
86352.0,2062,2379,2030,6
86353.0,2066,2380,2026,6
86354.0,2063,2383,2027,6
86355.0,2062,2379,2035,6
86356.0,2063,2379,2038,6
86357.0,2065,2379,2037,6
86358.0,2062,2382,2040,6
86359.0,2063,2379,2039,6
86360.0,2068,2377,2036,6
86361.0,2064,2379,2035,6
86362.0,2053,2387,2041,6
86363.0,2060,2379,2036,6
86364.0,2059,2379,2039,6
86365.0,2052,2379,2035,6
86366.0,2057,2374,2036,6
86367.0,2058,2376,2038,6
86368.0,2067,2379,2032,6
86369.0,2060,2377,2036,6
86370.0,2055,2377,2036,6
86371.0,2056,2374,2039,6
86372.0,2062,2381,2033,6
86373.0,2060,2383,2031,6
86374.0,2055,2382,2034,6
86375.0,2062,2383,2034,6
86376.0,2059,2378,2034,6
86377.0,2061,2376,2031,6
86378.0,2058,2374,2036,6
86379.0,2061,2379,2040,6
86380.0,2065,2381,2035,6
86381.0,2061,2378,2037,6
86382.0,2065,2377,2037,6
86383.0,2065,2383,2034,6
86384.0,2062,2383,2028,6
86385.0,2063,2373,2024,6
86386.0,2067,2380,2027,6
86387.0,2063,2377,2033,6
86388.0,2060,2378,2033,6
86389.0,2056,2379,2029,6
86390.0,2055,2377,2033,6
86391.0,2062,2377,2039,6
86392.0,2061,2368,2035,6
86393.0,2061,2379,2031,6
86394.0,2063,2374,2032,6
86395.0,2063,2377,2035,6
86396.0,2060,2383,2033,6
86397.0,2061,2386,2035,6
86398.0,2059,2379,2039,6
86399.0,2052,2379,2031,6
86400.0,2059,2382,2027,6
86401.0,2065,2378,2031,6
86402.0,2065,2374,2041,6
86403.0,2067,2375,2047,6
86404.0,2068,2380,2040,6
86405.0,2062,2389,2033,6
86406.0,2063,2384,2040,6
86407.0,2060,2379,2041,6
86408.0,2065,2381,2040,6
86409.0,2066,2381,2041,6
86410.0,2053,2382,2041,6
86411.0,2062,2380,2043,6
86412.0,2063,2384,2035,6
86413.0,2056,2378,2030,6
86414.0,2056,2381,2035,6
86415.0,2060,2380,2031,6
86416.0,2055,2383,2031,6
86417.0,2059,2384,2035,6
86418.0,2058,2375,2035,6
86419.0,2059,2374,2035,6
86420.0,2055,2382,2034,6
86421.0,2057,2375,2038,6
86422.0,2056,2383,2036,6
86423.0,2060,2378,2037,6
86424.0,2061,2375,2033,6
86425.0,2063,2372,2043,6
86426.0,2065,2376,2033,6
86427.0,2059,2377,2038,6
86428.0,2054,2374,2040,6
86429.0,2057,2379,2032,6
86430.0,2052,2381,2034,6
86431.0,2054,2383,2029,6
86432.0,2058,2377,2036,6
86433.0,2054,2387,2033,6
86434.0,2058,2384,2039,6
86435.0,2056,2377,2038,6
86436.0,2061,2383,2035,6
86437.0,2050,2386,2040,6
86438.0,2051,2382,2033,6
86439.0,2053,2385,2040,6
86440.0,2055,2380,2042,6
86441.0,2049,2377,2046,6
86442.0,2056,2378,2048,6
86443.0,2052,2374,2048,6
86444.0,2053,2376,2042,6
86445.0,2052,2382,2042,6
86446.0,2045,2385,2040,6
86447.0,2051,2388,2037,6
86448.0,2053,2387,2034,6
86449.0,2055,2383,2038,6
86450.0,2056,2379,2039,6
86451.0,2062,2379,2044,6
86452.0,2057,2379,2037,6
86453.0,2063,2379,2039,6
86454.0,2057,2376,2035,6
86455.0,2063,2377,2037,6
86456.0,2059,2382,2039,6
86457.0,2062,2373,2036,6
86458.0,2059,2375,2043,6
86459.0,2057,2382,2036,6
86460.0,2056,2381,2038,6
86461.0,2063,2374,2033,6
86462.0,2065,2378,2035,6
86463.0,2065,2381,2034,6
86464.0,2059,2377,2034,6
86465.0,2060,2384,2035,6
86466.0,2060,2381,2040,6
86467.0,2061,2385,2042,6
86468.0,2058,2379,2041,6
86469.0,2056,2375,2035,6
86470.0,2062,2375,2034,6
86471.0,2057,2372,2035,6
86472.0,2058,2378,2041,6
86473.0,2059,2382,2032,6
86474.0,2059,2383,2040,6
86475.0,2059,2385,2039,6
86476.0,2054,2382,2041,6
86477.0,2053,2383,2034,6
86478.0,2057,2379,2032,6
86479.0,2056,2382,2036,6
86480.0,2061,2382,2037,6
86481.0,2057,2381,2039,6
86482.0,2060,2379,2039,6
86483.0,2057,2377,2042,6
86484.0,2056,2374,2036,6
86485.0,2056,2373,2041,6
86486.0,2054,2374,2032,6
86487.0,2055,2379,2038,6
86488.0,2059,2376,2034,6
86489.0,2062,2382,2034,6
86490.0,2056,2382,2034,6
86491.0,2060,2380,2037,6
86492.0,2062,2379,2036,6
86493.0,2056,2380,2040,6
86494.0,2059,2382,2035,6
86495.0,2058,2378,2031,6
86496.0,2057,2379,2032,6
86497.0,2061,2378,2035,6
86498.0,2057,2376,2031,6
86499.0,2058,2373,2032,6
86500.0,2061,2383,2031,6
86501.0,2061,2388,2040,6
86502.0,2056,2391,2031,6
86503.0,2055,2393,2033,6
86504.0,2059,2379,2029,6
86505.0,2054,2377,2025,6
86506.0,2057,2375,2034,6
86507.0,2055,2379,2035,6
86508.0,2054,2378,2044,6
86509.0,2057,2377,2050,6
86510.0,2062,2380,2046,6
86511.0,2054,2379,2047,6
86512.0,2045,2386,2051,6
86513.0,2038,2375,2052,6
86514.0,2031,2371,2042,6
86515.0,2037,2366,2041,6
86516.0,2045,2363,2041,6
86517.0,2054,2369,2038,6
86518.0,2062,2384,2032,6
86519.0,2071,2390,2018,6
86520.0,2076,2401,2011,6
86521.0,2076,2399,2015,6
86522.0,2080,2387,2028,6
86523.0,2083,2381,2041,6
86524.0,2079,2382,2049,6
86525.0,2077,2375,2055,6
86526.0,2078,2376,2056,6
86527.0,2066,2379,2049,6
86528.0,2075,2369,2046,6
86529.0,2075,2359,2038,6
86530.0,2044,2389,2037,6
86531.0,2047,2389,2036,6
86532.0,2050,2388,2039,6
86533.0,2051,2388,2041,6
86534.0,2050,2387,2042,6
86535.0,2049,2386,2043,6
86536.0,2046,2387,2042,6
86537.0,2054,2391,2045,6
86538.0,2053,2393,2043,6
86539.0,2051,2388,2048,6
86540.0,2049,2382,2038,6
86541.0,2061,2374,2039,6
86542.0,2052,2375,2032,6
86543.0,2063,2377,2035,6
86544.0,2063,2373,2042,6
86545.0,2051,2368,2045,6
86546.0,2056,2374,2049,6
86547.0,2051,2384,2049,6
86548.0,2046,2391,2036,6
86549.0,2041,2390,2035,6
86550.0,2042,2393,2036,6
86551.0,2041,2389,2034,6
86552.0,2041,2385,2038,6
86553.0,2042,2382,2044,6
86554.0,2040,2379,2046,6
86555.0,2045,2376,2049,6
86556.0,2037,2382,2052,6
86557.0,2042,2382,2051,6
86558.0,2050,2383,2054,6
86559.0,2045,2383,2050,6
86560.0,2050,2371,2049,6
86561.0,2050,2373,2045,6
86562.0,2053,2377,2049,6
86563.0,2059,2377,2052,6
86564.0,2059,2386,2047,6
86565.0,2057,2391,2043,6
86566.0,2054,2392,2036,6
86567.0,2053,2387,2036,6
86568.0,2053,2379,2038,6
86569.0,2057,2374,2037,6
86570.0,2061,2375,2041,6
86571.0,2059,2389,2038,6
86572.0,2055,2379,2043,6
86573.0,2053,2386,2033,6
86574.0,2058,2388,2040,6
86575.0,2060,2381,2042,6
86576.0,2057,2377,2040,6
86577.0,2057,2373,2042,6
86578.0,2055,2376,2036,6
86579.0,2055,2378,2035,6
86580.0,2060,2383,2035,6
86581.0,2059,2382,2039,6
86582.0,2052,2383,2042,6
86583.0,2046,2385,2035,6
86584.0,2051,2385,2035,6
86585.0,2051,2383,2033,6
86586.0,2046,2379,2035,6
86587.0,2050,2375,2033,6
86588.0,2052,2378,2042,6
86589.0,2056,2376,2037,6
86590.0,2053,2380,2033,6
86591.0,2053,2378,2032,6
86592.0,2057,2378,2037,6
86593.0,2051,2372,2033,6
86594.0,2051,2375,2035,6
86595.0,2053,2377,2034,6
86596.0,2053,2382,2038,6
86597.0,2059,2387,2029,6
86598.0,2055,2387,2025,6
86599.0,2056,2377,2033,6
86600.0,2058,2382,2037,6
86601.0,2055,2376,2031,6
86602.0,2058,2371,2034,6
86603.0,2059,2377,2031,6
86604.0,2056,2378,2039,6
86605.0,2064,2376,2029,6
86606.0,2057,2377,2027,6
86607.0,2060,2376,2039,6
86608.0,2056,2375,2029,6
86609.0,2061,2378,2031,6
86610.0,2057,2376,2035,6
86611.0,2059,2380,2035,6
86612.0,2059,2387,2032,6
86613.0,2064,2381,2033,6
86614.0,2060,2379,2030,6
86615.0,2052,2370,2024,6
86616.0,2050,2364,2025,6
86617.0,2048,2367,2033,6
86618.0,2049,2374,2033,6
86619.0,2049,2381,2035,6
86620.0,2061,2391,2043,6
86621.0,2060,2399,2042,6
86622.0,2053,2389,2039,6
86623.0,2051,2384,2037,6
86624.0,2050,2378,2039,6
86625.0,2059,2375,2047,6
86626.0,2057,2385,2050,6
86627.0,2057,2390,2057,6
86628.0,2062,2395,2048,6
86629.0,2058,2391,2050,6
86630.0,2066,2383,2051,6
86631.0,2064,2376,2058,6
86632.0,2072,2365,2053,6
86633.0,2069,2369,2054,6
86634.0,2066,2374,2043,6
86635.0,2063,2385,2037,6
86636.0,2062,2388,2042,6
86637.0,2071,2391,2035,6
86638.0,2065,2387,2037,6
86639.0,2071,2377,2043,6
86640.0,2067,2374,2046,6
86641.0,2067,2375,2045,6
86642.0,2064,2370,2048,6
86643.0,2063,2371,2054,6
86644.0,2056,2373,2051,6
86645.0,2055,2375,2051,6
86646.0,2058,2379,2048,6
86647.0,2055,2375,2052,6
86648.0,2056,2374,2053,6
86649.0,2053,2381,2049,6
86650.0,2061,2381,2043,6
86651.0,2063,2380,2041,6
86652.0,2062,2386,2038,6
86653.0,2060,2387,2043,6
86654.0,2056,2379,2042,6
86655.0,2052,2375,2049,6
86656.0,2054,2371,2053,6
86657.0,2056,2379,2055,6
86658.0,2061,2385,2051,6
86659.0,2059,2393,2048,6
86660.0,2056,2385,2049,6
86661.0,2054,2379,2049,6
86662.0,2053,2378,2040,6
86663.0,2051,2378,2036,6
86664.0,2052,2374,2041,6
86665.0,2051,2374,2037,6
86666.0,2049,2380,2036,6
86667.0,2053,2384,2043,6
86668.0,2053,2382,2031,6
86669.0,2052,2371,2028,6
86670.0,2042,2374,2031,6
86671.0,2046,2373,2035,6
86672.0,2041,2371,2037,6
86673.0,2040,2371,2046,6
86674.0,2037,2378,2054,6
86675.0,2035,2387,2053,6
86676.0,2027,2396,2043,6
86677.0,2026,2415,2043,6
86678.0,2030,2418,2043,6
86679.0,2040,2427,2048,6
86680.0,2065,2420,2053,6
86681.0,2075,2399,2054,6
86682.0,2066,2369,2058,6
86683.0,2070,2359,2054,6
86684.0,2065,2353,2067,6
86685.0,2058,2348,2060,6
86686.0,2061,2352,2057,6
86687.0,2059,2362,2055,6
86688.0,2058,2377,2044,6
86689.0,2054,2390,2024,6
86690.0,2057,2405,2010,6
86691.0,2059,2402,2012,6
86692.0,2064,2402,2004,6
86693.0,2060,2394,2015,6
86694.0,2058,2377,2019,6
86695.0,2063,2371,2025,6
86696.0,2061,2361,2031,6
86697.0,2065,2356,2025,6
86698.0,2064,2359,2030,6
86699.0,2060,2357,2033,6
86700.0,2056,2378,2032,6
86701.0,2059,2376,2031,6
86702.0,2062,2373,2033,6
86703.0,2064,2372,2034,6
86704.0,2064,2370,2033,6
86705.0,2064,2368,2031,6
86706.0,2063,2369,2031,6
86707.0,2063,2371,2028,6
86708.0,2064,2372,2023,6
86709.0,2057,2372,2022,6
98600.0,1903,2351,1897,6
98601.0,1903,2349,1899,6
98602.0,1907,2344,1902,6
98603.0,1907,2345,1904,6
98604.0,1904,2346,1902,6
98605.0,1906,2341,1900,6
98606.0,1903,2346,1903,6
98607.0,1907,2350,1897,6
98608.0,1909,2354,1900,6
98609.0,1909,2354,1899,6
98610.0,1908,2348,1901,6
98611.0,1911,2347,1899,6
98612.0,1913,2349,1894,6
98613.0,1912,2347,1887,6
98614.0,1909,2351,1884,6
98615.0,1909,2348,1877,6
98616.0,1921,2338,1879,6
98617.0,1921,2347,1877,6
98618.0,1930,2343,1878,6
98619.0,1933,2341,1886,6
98620.0,1931,2338,1886,6
98621.0,1934,2332,1885,6
98622.0,1948,2338,1889,6
98623.0,1937,2341,1885,6
98624.0,1940,2345,1874,6
98625.0,1941,2347,1881,6
98626.0,1945,2340,1883,6
98627.0,1950,2339,1887,6
98628.0,1962,2339,1895,6
98629.0,1959,2325,1899,6
98630.0,1956,2316,1906,6
98631.0,1965,2322,1908,6
98632.0,1966,2327,1903,6
98633.0,1967,2327,1907,6
98634.0,1981,2329,1904,6
98635.0,1981,2335,1907,6
98636.0,1984,2337,1900,6
98637.0,1981,2340,1889,6
98638.0,1985,2341,1895,6
98639.0,1968,2346,1904,6
98640.0,1970,2350,1909,6
98641.0,1969,2344,1902,6
98642.0,1974,2345,1900,6
98643.0,1975,2337,1901,6
98644.0,1978,2335,1910,6
98645.0,1967,2327,1914,6
98646.0,1982,2331,1909,6
98647.0,1982,2339,1897,6
98648.0,1992,2339,1903,6
98649.0,2005,2328,1910,6
98650.0,2006,2328,1914,6
98651.0,2008,2336,1913,6
98652.0,2019,2352,1924,6
98653.0,2018,2363,1929,6
98654.0,2032,2367,1939,6
98655.0,2052,2365,1942,6
98656.0,2031,2347,1946,6
98657.0,2005,2327,1938,6
98658.0,1995,2327,1935,6
98659.0,1998,2326,1941,6
98660.0,1992,2325,1941,6
98661.0,1973,2346,1939,6
98662.0,1973,2368,1935,6
98663.0,1979,2369,1929,6
98664.0,1985,2367,1925,6
98665.0,1979,2354,1919,6
98666.0,1982,2346,1931,6
98667.0,1983,2336,1933,6
98668.0,1986,2335,1936,6
98669.0,1979,2330,1930,6
98670.0,1975,2331,1934,6
98671.0,1982,2335,1932,6
98672.0,1979,2339,1938,6
98673.0,1977,2340,1936,6
98674.0,1964,2347,1944,6
98675.0,1955,2354,1943,6
98676.0,1945,2358,1949,6
98677.0,1934,2360,1951,6
98678.0,1922,2353,1942,6
98679.0,1908,2350,1944,6
98680.0,1896,2344,1950,6
98681.0,1881,2355,1958,6
98682.0,1881,2358,1956,6
98683.0,1880,2347,1943,6
98684.0,1880,2335,1930,6
98685.0,1870,2321,1935,6
98686.0,1866,2326,1935,6
98687.0,1845,2335,1949,6
98688.0,1846,2349,1941,6
98689.0,1844,2358,1937,6
98690.0,1849,2374,1940,6
98691.0,1837,2370,1944,6
98692.0,1827,2364,1944,6
98693.0,1822,2353,1942,6
98694.0,1816,2341,1944,6
98695.0,1814,2339,1939,6
98696.0,1806,2331,1937,6
98697.0,1800,2331,1942,6
98698.0,1799,2324,1951,6
98699.0,1789,2328,1944,6
98700.0,1792,2335,1953,6
98701.0,1795,2338,1949,6
98702.0,1795,2341,1948,6
98703.0,1797,2341,1945,6
98704.0,1803,2344,1953,6
98705.0,1803,2338,1957,6
98706.0,1801,2338,1956,6
98707.0,1797,2343,1963,6
98708.0,1790,2343,1969,6
98709.0,1788,2344,1972,6
98710.0,1789,2351,1970,6
98711.0,1790,2339,1963,6
98712.0,1787,2337,1957,6
98713.0,1778,2331,1965,6
98714.0,1779,2330,1971,6
98715.0,1769,2340,1971,6
98716.0,1775,2340,1976,6
98717.0,1787,2347,1973,6
98718.0,1791,2347,1964,6
98719.0,1787,2338,1953,6
98720.0,1786,2340,1947,6
98721.0,1794,2330,1951,6
98722.0,1796,2325,1950,6
98723.0,1792,2337,1951,6
98724.0,1788,2352,1947,6
98725.0,1792,2355,1943,6
98726.0,1812,2337,1935,6
98727.0,1830,2328,1919,6
98728.0,1829,2319,1923,6
98729.0,1828,2313,1943,6
98730.0,1821,2315,1946,6
98731.0,1822,2329,1943,6
98732.0,1828,2342,1940,6
98733.0,1834,2350,1940,6
98734.0,1850,2349,1936,6
98735.0,1849,2348,1930,6
98736.0,1850,2352,1935,6
98737.0,1857,2349,1927,6
98738.0,1857,2339,1924,6
98739.0,1859,2328,1933,6
98740.0,1869,2324,1928,6
98741.0,1869,2331,1926,6
98742.0,1870,2341,1927,6
98743.0,1866,2345,1934,6
98744.0,1867,2345,1947,6
98745.0,1859,2347,1947,6
98746.0,1864,2339,1947,6
98747.0,1866,2339,1943,6
98748.0,1879,2331,1933,6
98749.0,1890,2332,1928,6
98750.0,1897,2331,1929,6
98751.0,1902,2326,1942,6
98752.0,1903,2338,1941,6
98753.0,1904,2342,1947,6
98754.0,1916,2357,1944,6
98755.0,1928,2361,1952,6
98756.0,1941,2365,1936,6
98757.0,1942,2371,1922,6
98758.0,1950,2370,1921,6
98759.0,1935,2373,1932,6
98760.0,1941,2365,1940,6
98761.0,1925,2363,1953,6
98762.0,1915,2355,1962,6
98763.0,1923,2358,1966,6
98764.0,1931,2360,1964,6
98765.0,1934,2351,1959,6
98766.0,1945,2355,1945,6
98767.0,1947,2352,1945,6
98768.0,1950,2354,1942,6
98769.0,1946,2355,1945,6
98770.0,1955,2353,1955,6
98771.0,1957,2354,1953,6
98772.0,1959,2355,1954,6
98773.0,1959,2357,1955,6
98774.0,1958,2362,1948,6
98775.0,1964,2361,1943,6
98776.0,1960,2357,1943,6
98777.0,1961,2358,1941,6
98778.0,1964,2357,1932,6
98779.0,1962,2346,1938,6
98780.0,1961,2339,1947,6
98781.0,1955,2340,1938,6
98782.0,1973,2341,1943,6
98783.0,1975,2344,1928,6
98784.0,1975,2344,1927,6
98785.0,1986,2337,1935,6
98786.0,1976,2345,1926,6
98787.0,1975,2349,1916,6
98788.0,1954,2359,1927,6
98789.0,1951,2359,1933,6
98790.0,1949,2365,1946,6
98791.0,1947,2360,1950,6
98792.0,1942,2357,1961,6
98793.0,1948,2340,1954,6
98794.0,1938,2344,1940,6
98795.0,1930,2354,1920,6
98796.0,1900,2367,1930,6
98797.0,1867,2390,1954,6
98798.0,1837,2391,1986,6
98799.0,1802,2375,1979,6
98800.0,1797,2390,2027,6
98801.0,1801,2351,2007,6
98802.0,1806,2341,1958,6
98803.0,1819,2343,1933,6
98804.0,1811,2316,1945,6
98805.0,1820,2304,1980,6
98806.0,1824,2280,1973,6
98807.0,1823,2281,1966,6
98808.0,1828,2278,1958,6
98809.0,1814,2284,1959,6
98810.0,1794,2292,1970,6
98811.0,1781,2301,1981,6
98812.0,1775,2337,1983,6
98813.0,1781,2376,1981,6
98814.0,1805,2368,1971,6
98815.0,1808,2361,1958,6
98816.0,1802,2345,1946,6
98817.0,1798,2340,1947,6
98818.0,1806,2326,1931,6
98819.0,1805,2341,1942,6
98820.0,1806,2334,1949,6
98821.0,1811,2333,1947,6
98822.0,1812,2342,1951,6
98823.0,1807,2335,1956,6
98824.0,1813,2341,1947,6
98825.0,1810,2348,1939,6
98826.0,1815,2344,1930,6
98827.0,1811,2355,1926,6
98828.0,1796,2366,1920,6
98829.0,1780,2368,1923,6
98830.0,1751,2380,1931,6
98831.0,1762,2418,1950,6
98832.0,1783,2439,1953,6
98833.0,1810,2472,1953,6
98834.0,1850,2454,1959,6
98835.0,1885,2415,1938,6
98836.0,1894,2379,1940,6
98837.0,1912,2339,1973,6
98838.0,1912,2291,1983,6
98839.0,1931,2239,1980,6
98840.0,1940,2253,1959,6
98841.0,1943,2288,1931,6
98842.0,1950,2342,1933,6
98843.0,1943,2357,1937,6
98844.0,1909,2377,1940,6
98845.0,1891,2370,1941,6
98846.0,1878,2353,1946,6
98847.0,1893,2331,1934,6
98848.0,1885,2308,1937,6
98849.0,1893,2309,1925,6
98850.0,1910,2310,1927,6
98851.0,1915,2311,1916,6
98852.0,1929,2310,1915,6
98853.0,1920,2310,1923,6
98854.0,1903,2298,1931,6
98855.0,1894,2314,1925,6
98856.0,1896,2327,1929,6
98857.0,1879,2349,1913,6
98858.0,1878,2344,1909,6
98859.0,1868,2345,1918,6
98860.0,1863,2315,1917,6
98861.0,1865,2312,1912,6
98862.0,1856,2319,1909,6
98863.0,1852,2334,1906,6
98864.0,1860,2351,1911,6
98865.0,1850,2365,1901,6
98866.0,1839,2373,1901,6
98867.0,1824,2369,1902,6
98868.0,1813,2385,1909,6
98869.0,1803,2426,1919,6
98870.0,1827,2443,1915,6
98871.0,1824,2476,1917,6
98872.0,1835,2518,1939,6
98873.0,1867,2465,1964,6
98874.0,1836,2402,1984,6
98875.0,1773,2291,2044,6
98876.0,1824,2308,2040,6
98877.0,1855,2328,1957,6
98878.0,1864,2285,1983,6
98879.0,1826,2333,2012,6
98880.0,1811,2347,2065,6
98881.0,1903,2370,2063,6
98882.0,1931,2469,1995,6
98883.0,1911,2481,1958,6
98884.0,1885,2375,1920,6
98885.0,1892,2231,1971,6
98886.0,1928,2229,1969,6
98887.0,1937,2203,1992,6
98888.0,1883,2215,1971,6
98889.0,1897,2188,1944,6
98890.0,1897,2218,1928,6
98891.0,1868,2222,1928,6
98892.0,1869,2262,1963,6
98893.0,1855,2301,1968,6
98894.0,1786,2346,1957,6
98895.0,1746,2432,1967,6
98896.0,1751,2441,1977,6
98897.0,1762,2393,1930,6
98898.0,1787,2376,1907,6
98899.0,1816,2326,1886,6
98900.0,1828,2320,1880,6
98901.0,1807,2301,1913,6
98902.0,1817,2295,1936,6
98903.0,1821,2295,1936,6
98904.0,1809,2323,1932,6
98905.0,1797,2345,1911,6
98906.0,1777,2375,1873,6
98907.0,1809,2398,1781,6
98908.0,1798,2440,1806,6
98909.0,1787,2523,1926,6
98910.0,1842,2506,1943,6
98911.0,1822,2554,1953,6
98912.0,1811,2509,2017,6
98913.0,1961,2546,1911,6
98914.0,1942,2413,1998,6
98915.0,1957,2254,2029,6
98916.0,1935,2131,2002,6
98917.0,1943,2094,2004,6
98918.0,1951,2122,1989,6
98919.0,1941,2181,1966,6
98920.0,1927,2253,1932,6
98921.0,1859,2371,1930,6
98922.0,1821,2494,1965,6
98923.0,1799,2541,1943,6
98924.0,1827,2466,1921,6
98925.0,1862,2363,1926,6
98926.0,1847,2279,1964,6
98927.0,1849,2234,1982,6
98928.0,1852,2232,1979,6
98929.0,1863,2246,1967,6
98930.0,1845,2276,1937,6
98931.0,1829,2295,1923,6
98932.0,1820,2297,1922,6
98933.0,1821,2308,1922,6
98934.0,1814,2325,1911,6
98935.0,1812,2330,1913,6
98936.0,1798,2326,1917,6
98937.0,1803,2329,1935,6
98938.0,1813,2339,1933,6
98939.0,1830,2343,1930,6
98940.0,1919,2163,2040,6
98941.0,1915,2163,2041,6
98942.0,1908,2164,2041,6
98943.0,1904,2163,2041,6
98944.0,1904,2161,2039,6
98945.0,1905,2159,2038,6
98946.0,1903,2156,2037,6
98947.0,1903,2157,2037,6
98948.0,1939,2221,1979,6
98949.0,1922,2276,1926,6
98950.0,1937,2329,1921,6
98951.0,1904,2382,1974,6
98952.0,1858,2407,1955,6
98953.0,1791,2353,2035,6
98954.0,1753,2383,2002,6
98955.0,1768,2393,1858,6
98956.0,1798,2329,1881,6
98957.0,1801,2242,1910,6
98958.0,1807,2243,1916,6
98959.0,1838,2250,1897,6
98960.0,1845,2271,1935,6
98961.0,1825,2289,1938,6
98962.0,1813,2321,1946,6
98963.0,1810,2377,1926,6
98964.0,1827,2373,1917,6
98965.0,1808,2342,1941,6
98966.0,1805,2336,1940,6
98967.0,1802,2325,1941,6
98968.0,1794,2363,1918,6
98969.0,1774,2436,1904,6
98970.0,1808,2525,1918,6
98971.0,1779,2547,1951,6
98972.0,1803,2511,1951,6
98973.0,1888,2485,1938,6
98974.0,1945,2442,1965,6
98975.0,1984,2357,1991,6
98976.0,1991,2272,1983,6
98977.0,2007,2235,1931,6
98978.0,1948,2235,1892,6
98979.0,1909,2270,1924,6
98980.0,1834,2314,1980,6
98981.0,1819,2366,2003,6
98982.0,1865,2374,1993,6
98983.0,1916,2312,1952,6
98984.0,1902,2325,1904,6
98985.0,1917,2334,1876,6
98986.0,1891,2314,1895,6
98987.0,1886,2270,1914,6
98988.0,1893,2243,1926,6
98989.0,1891,2245,1919,6
98990.0,1880,2259,1917,6
98991.0,1868,2274,1907,6
98992.0,1867,2300,1911,6
98993.0,1845,2311,1926,6
98994.0,1828,2342,1904,6
98995.0,1814,2351,1902,6
98996.0,1835,2367,1909,6
98997.0,1847,2365,1896,6
98998.0,1843,2391,1889,6
98999.0,1840,2401,1913,6
99000.0,1830,2424,1919,6
99001.0,1787,2470,1894,6
99002.0,1767,2508,1949,6
99003.0,1830,2511,1947,6
99004.0,1838,2520,1959,6
99005.0,1872,2460,1993,6
99006.0,1873,2374,2005,6
99007.0,1854,2307,2013,6
99008.0,1876,2273,2026,6
99009.0,1869,2252,2061,6
99010.0,1887,2282,2044,6
99011.0,1917,2310,2044,6
99012.0,1890,2363,1988,6
99013.0,1878,2388,1955,6
99014.0,1909,2378,1949,6
99015.0,1867,2329,1948,6
99016.0,1875,2317,1978,6
99017.0,1847,2295,1988,6
99018.0,1866,2281,1978,6
99019.0,1851,2277,1986,6
99020.0,1851,2335,1927,6
99021.0,1808,2295,1935,6
99022.0,1779,2274,1914,6
99023.0,1799,2291,1939,6
99024.0,1794,2314,1944,6
99025.0,1794,2300,1923,6
99026.0,1819,2307,1913,6
99027.0,1829,2316,1921,6
99028.0,1836,2316,1929,6
99029.0,1826,2331,1946,6
99030.0,1803,2351,1921,6
99031.0,1762,2364,1947,6
99032.0,1777,2406,1957,6
99033.0,1766,2434,1844,6
99034.0,1842,2499,1848,6
99035.0,1852,2487,1967,6
99036.0,1911,2435,1932,6
99037.0,1935,2467,1976,6
99038.0,1941,2400,2020,6
99039.0,1971,2385,2003,6
99040.0,1971,2329,1954,6
99041.0,1941,2277,1967,6
99042.0,1859,2226,1994,6
99043.0,1823,2276,1994,6
99044.0,1812,2338,2009,6
99045.0,1803,2342,2003,6
99046.0,1794,2337,1981,6
99047.0,1812,2316,1982,6
99048.0,1811,2315,1959,6
99049.0,1807,2305,1942,6
99050.0,1835,2284,1944,6
99051.0,1843,2282,1947,6
99052.0,1840,2282,1943,6
99053.0,1842,2282,1928,6
99054.0,1831,2275,1936,6
99055.0,1820,2287,1946,6
99056.0,1812,2305,1931,6
99057.0,1800,2319,1930,6
99058.0,1786,2315,1923,6
99059.0,1776,2319,1929,6
99060.0,1770,2320,1944,6
99061.0,1768,2332,1935,6
99062.0,1763,2370,1931,6
99063.0,1778,2411,1936,6
99064.0,1804,2434,1926,6
99065.0,1739,2484,1932,6
99066.0,1749,2500,1971,6
99067.0,1788,2485,1962,6
99068.0,1834,2498,1978,6
99069.0,1853,2443,2018,6
99070.0,1854,2369,2067,6
99071.0,1831,2313,2085,6
99072.0,1817,2266,2110,6
99073.0,1824,2251,2105,6
99074.0,1866,2303,2082,6
99075.0,1915,2350,1975,6
99076.0,1909,2351,1924,6
99077.0,1930,2343,1934,6
99078.0,1887,2294,1951,6
99079.0,1829,2264,1962,6
99080.0,1833,2262,1945,6
99081.0,1844,2291,1968,6
99082.0,1855,2330,2065,6
99083.0,1773,2267,2030,6
99084.0,1780,2269,1993,6
99085.0,1767,2288,1923,6
99086.0,1747,2290,1861,6
99087.0,1747,2307,1886,6
99088.0,1783,2366,1945,6
99089.0,1791,2369,1941,6
99090.0,1800,2342,1925,6
99091.0,1797,2337,1947,6
99092.0,1790,2328,1939,6
99093.0,1776,2330,1916,6
99094.0,1733,2330,1900,6
99095.0,1724,2383,1896,6
99096.0,1739,2442,1921,6
99097.0,1785,2421,1928,6
99098.0,1783,2515,1914,6
99099.0,1795,2469,1967,6
99100.0,1836,2413,1989,6
99101.0,1893,2360,2003,6
99102.0,1933,2274,2023,6
99103.0,1936,2242,2018,6
99104.0,1948,2219,1971,6
99105.0,1910,2237,1959,6
99106.0,1880,2279,1964,6
99107.0,1839,2336,1946,6
99108.0,1811,2425,1955,6
99109.0,1837,2449,1964,6
99110.0,1849,2255,1973,6
99111.0,1851,2253,1973,6
99112.0,1851,2252,1971,6
99113.0,1845,2241,1980,6
99114.0,1849,2266,1942,6
99115.0,1841,2282,1944,6
99116.0,1826,2297,1946,6
99117.0,1809,2313,1932,6
99118.0,1795,2321,1926,6
99119.0,1777,2327,1943,6
99120.0,1788,2337,1959,6
99121.0,1807,2342,1946,6
99122.0,1817,2374,1935,6
99123.0,1823,2421,1922,6
99124.0,1827,2453,1917,6
99125.0,1781,2521,1913,6
99126.0,1757,2539,1965,6
99127.0,1744,2533,1975,6
99128.0,1802,2534,2009,6
99129.0,1831,2491,2043,6
99130.0,1859,2389,2043,6
99131.0,1833,2289,2031,6
99132.0,1825,2255,2059,6
99133.0,1845,2230,2076,6
99134.0,1857,2232,2078,6
99135.0,1843,2250,2047,6
99136.0,1839,2332,1993,6
99137.0,1809,2397,2005,6
99138.0,1873,2331,1953,6
99139.0,1873,2273,1955,6
99140.0,1832,2259,1966,6
99141.0,1819,2273,1985,6
99142.0,1807,2259,1990,6
99143.0,1819,2284,2003,6
99144.0,1833,2276,1995,6
99145.0,1786,2258,1906,6
99146.0,1756,2256,1868,6
99147.0,1771,2286,1901,6
99148.0,1781,2341,1939,6
99149.0,1799,2343,1916,6
99150.0,1818,2348,1941,6
99151.0,1810,2333,1941,6
99152.0,1790,2333,1935,6
99153.0,1764,2342,1945,6
99154.0,1770,2368,1928,6
99155.0,1803,2487,1942,6
99156.0,1845,2524,1904,6
99157.0,1860,2527,1922,6
99158.0,1848,2460,1989,6
99159.0,1859,2427,1983,6
99160.0,1883,2378,2018,6
99161.0,1923,2317,1991,6
99162.0,1973,2301,1969,6
99163.0,1933,2268,1958,6
99164.0,1856,2281,1939,6
99165.0,1792,2314,1951,6
99166.0,1759,2335,1981,6
99167.0,1786,2297,1996,6
99168.0,1825,2275,1976,6
99169.0,1845,2289,1946,6
99170.0,1867,2287,1919,6
99171.0,1844,2294,1923,6
99172.0,1840,2279,1927,6
99173.0,1841,2288,1916,6
99174.0,1860,2274,1912,6
99175.0,1873,2277,1922,6
99176.0,1855,2286,1921,6
99177.0,1834,2285,1909,6
99178.0,1815,2295,1906,6
99179.0,1799,2300,1904,6
99180.0,1793,2307,1919,6
99181.0,1790,2311,1928,6
99182.0,1791,2343,1916,6
99183.0,1802,2397,1914,6
99184.0,1822,2437,1900,6
99185.0,1777,2476,1899,6
99186.0,1720,2527,1876,6
99187.0,1750,2501,1896,6
99188.0,1782,2509,1918,6
99189.0,1826,2469,1975,6
99190.0,1852,2416,2018,6
99191.0,1861,2328,2028,6
99192.0,1855,2283,2042,6
99193.0,1828,2235,2041,6
99194.0,1836,2243,2011,6
99195.0,1847,2300,1988,6
99196.0,1861,2352,1956,6
99197.0,1829,2372,1926,6
99198.0,1811,2325,1944,6
99199.0,1842,2290,1975,6
99200.0,1867,2303,1960,6
99201.0,1875,2265,1931,6
99202.0,1885,2239,1950,6
99203.0,1918,2257,1941,6
99204.0,1846,2213,1938,6
99205.0,1796,2219,1905,6
99206.0,1769,2252,1904,6
99207.0,1775,2314,1888,6
99208.0,1779,2365,1882,6
99209.0,1788,2355,1872,6
99210.0,1812,2359,1892,6
99211.0,1832,2333,1913,6
99212.0,1840,2305,1923,6
99213.0,1807,2293,1921,6
99214.0,1781,2327,1916,6
99215.0,1757,2373,1912,6
99216.0,1779,2469,1890,6
99217.0,1815,2538,1894,6
99218.0,1843,2537,1887,6
99219.0,1847,2505,1963,6
99220.0,1866,2439,1984,6
99221.0,1897,2406,2005,6
99222.0,1928,2345,1993,6
99223.0,1941,2338,1960,6
99224.0,1884,2318,1918,6
99225.0,1821,2311,1947,6
99226.0,1775,2297,1998,6
99227.0,1772,2303,1993,6
99228.0,1799,2303,1959,6
99229.0,1852,2291,1941,6
99230.0,1857,2259,1929,6
99231.0,1873,2235,1937,6
99232.0,1870,2245,1929,6
99233.0,1872,2242,1903,6
99234.0,1841,2264,1922,6
99235.0,1843,2269,1909,6
99236.0,1851,2264,1904,6
99237.0,1842,2291,1914,6
99238.0,1848,2294,1918,6
99239.0,1849,2303,1907,6
99240.0,1834,2320,1894,6
99241.0,1819,2339,1896,6
99242.0,1810,2371,1891,6
99243.0,1811,2389,1903,6
99244.0,1834,2410,1919,6
99245.0,1839,2432,1927,6
99246.0,1803,2507,1926,6
99247.0,1839,2513,1960,6
99248.0,1841,2523,1966,6
99249.0,1878,2502,1979,6
99250.0,1863,2434,2010,6
99251.0,1872,2382,1996,6
99252.0,1842,2284,2010,6
99253.0,1853,2268,2028,6
99254.0,1902,2301,2028,6
99255.0,1905,2292,2041,6
99256.0,1899,2362,2025,6
99257.0,1902,2380,1964,6
99258.0,1869,2360,1935,6
99259.0,1888,2330,1946,6
99260.0,1864,2293,1987,6
99261.0,1844,2240,2027,6
99262.0,1849,2345,1942,6
99263.0,1828,2284,1938,6
99264.0,1809,2249,1939,6
99265.0,1811,2251,1961,6
99266.0,1810,2271,1951,6
99267.0,1804,2276,1924,6
99268.0,1814,2289,1919,6
99269.0,1823,2290,1920,6
99270.0,1832,2303,1918,6
99271.0,1840,2311,1932,6
99272.0,1825,2326,1934,6
99273.0,1818,2355,1934,6
99274.0,1787,2378,1914,6
99275.0,1779,2422,1907,6
99276.0,1775,2482,1893,6
99277.0,1826,2546,1961,6
99278.0,1875,2563,1927,6
99279.0,1883,2547,1952,6
99280.0,1843,2324,1983,6
99281.0,1844,2324,1982,6
99282.0,1845,2327,1982,6
99283.0,1847,2331,1980,6
99284.0,1850,2343,1976,6
99285.0,1895,2299,1967,6
99286.0,1879,2287,1960,6
99287.0,1838,2302,1951,6
99288.0,1829,2309,1931,6
99289.0,1867,2291,1929,6
99290.0,1875,2275,1939,6
99291.0,1875,2275,1932,6
99292.0,1863,2284,1932,6
99293.0,1851,2289,1935,6
99294.0,1832,2294,1922,6
99295.0,1830,2307,1920,6
99296.0,1815,2309,1929,6
99297.0,1805,2319,1927,6
99298.0,1811,2348,1922,6
99299.0,1798,2381,1925,6
99300.0,1807,2402,1926,6
99301.0,1809,2423,1909,6
99302.0,1740,2523,1923,6
99303.0,1787,2545,1987,6
99304.0,1812,2535,1978,6
99305.0,1890,2539,2016,6
99306.0,1901,2469,2071,6
99307.0,1885,2341,2034,6
99308.0,1868,2264,1989,6
99309.0,1855,2266,2028,6
99310.0,1836,2258,2041,6
99311.0,1857,2291,2046,6
99312.0,1865,2298,2064,6
99313.0,1871,2345,1974,6
99314.0,1842,2340,1973,6
99315.0,1841,2333,1962,6
99316.0,1875,2313,1957,6
99317.0,1869,2296,1965,6
99318.0,1797,2271,1946,6
99319.0,1814,2298,1965,6
99320.0,1788,2268,1989,6
99321.0,1796,2273,1956,6
99322.0,1794,2246,1931,6
99323.0,1809,2267,1919,6
99324.0,1798,2283,1929,6
99325.0,1813,2299,1935,6
99326.0,1806,2313,1929,6
99327.0,1819,2332,1930,6
99328.0,1827,2350,1931,6
99329.0,1830,2375,1940,6
99330.0,1818,2386,1941,6
99331.0,1792,2398,1929,6
99332.0,1742,2441,1888,6
99333.0,1771,2500,1906,6
99334.0,1821,2496,1938,6
99335.0,1849,2571,1939,6
99336.0,1837,2439,1982,6
99337.0,1882,2366,1999,6
99338.0,1914,2307,2011,6
99339.0,1951,2240,2000,6
99340.0,1946,2233,1983,6
99341.0,1933,2263,1961,6
99342.0,1854,2286,1950,6
99343.0,1782,2295,1974,6
99344.0,1776,2378,1983,6
99345.0,1850,2373,1955,6
99346.0,1885,2386,1968,6
99347.0,1944,2332,1951,6
99348.0,1793,2325,1956,6
99349.0,1849,2300,1919,6
99350.0,1866,2265,1954,6
99351.0,1841,2243,1967,6
99352.0,1867,2259,1940,6
99353.0,1864,2279,1938,6
99354.0,1839,2295,1948,6
99355.0,1827,2296,1949,6
99356.0,1809,2310,1937,6
99357.0,1803,2320,1939,6
99358.0,1808,2327,1936,6
99359.0,1810,2339,1933,6
99360.0,1809,2365,1928,6
99361.0,1803,2394,1935,6
99362.0,1815,2417,1933,6
99363.0,1762,2472,1933,6
99364.0,1737,2545,2005,6
99365.0,1774,2531,1982,6
99366.0,1803,2573,1985,6
99367.0,1871,2509,2031,6
99368.0,1857,2374,2056,6
99369.0,1858,2286,2034,6
99370.0,1858,2225,2069,6
99371.0,1882,2243,2055,6
99372.0,1856,2234,2086,6
99373.0,1872,2295,2033,6
99374.0,1882,2330,2007,6
99375.0,1864,2365,1960,6
99376.0,1867,2377,1938,6
99377.0,1854,2348,1945,6
99378.0,1844,2325,1979,6
99379.0,1806,2293,2001,6
99380.0,1778,2289,2022,6
99381.0,1771,2287,1957,6
99382.0,1764,2248,1897,6
99383.0,1791,2238,1911,6
99384.0,1803,2254,1986,6
99385.0,1791,2259,1963,6
99386.0,1803,2274,1935,6
99387.0,1805,2298,1933,6
99388.0,1805,2322,1943,6
99389.0,1804,2331,1934,6
99390.0,1796,2345,1929,6
99391.0,1795,2367,1928,6
99392.0,1782,2352,1928,6
99393.0,1773,2377,1917,6
99394.0,1755,2399,1900,6
99395.0,1767,2495,1889,6
99396.0,1806,2554,1946,6
99397.0,1836,2521,1949,6
99398.0,1841,2485,1933,6
99399.0,1865,2388,2011,6
99400.0,1913,2343,2050,6
99401.0,1943,2330,2044,6
99402.0,1978,2290,2005,6
99403.0,2009,2317,2031,6
99404.0,1906,2381,1877,6
99405.0,1792,2442,1922,6
99406.0,1769,2407,2045,6
99407.0,1781,2331,2033,6
99408.0,1813,2330,1979,6
99409.0,1768,2249,1972,6
99410.0,1831,2249,1962,6
99411.0,1862,2245,1959,6
99412.0,1869,2188,1968,6
99413.0,1887,2176,1960,6
99414.0,1883,2183,1946,6
99415.0,1856,2224,1935,6
99416.0,1831,2270,1942,6
99417.0,1807,2331,1943,6
99418.0,1824,2352,1936,6
99419.0,1818,2354,1927,6
99420.0,1835,2385,1915,6
99421.0,1854,2378,1911,6
99422.0,1835,2389,1918,6
99423.0,1843,2399,1946,6
99424.0,1867,2426,1933,6
99425.0,1828,2499,1923,6
99426.0,1773,2554,1962,6
99427.0,1785,2536,1956,6
99428.0,1806,2540,1981,6
99429.0,1855,2481,2024,6
99430.0,1872,2409,2020,6
99431.0,1877,2295,2029,6
99432.0,1882,2219,2053,6
99433.0,1889,2212,2067,6
99434.0,1877,2260,2054,6
99435.0,1895,2306,2061,6
99436.0,1861,2322,2038,6
99437.0,1904,2367,1976,6
99438.0,1914,2370,1930,6
99439.0,1907,2362,1918,6
99440.0,1852,2379,1930,6
99441.0,1816,2319,1957,6
99442.0,1750,2285,1998,6
99443.0,1752,2270,1989,6
99444.0,1762,2236,1929,6
99445.0,1817,2192,1908,6
99446.0,1807,2213,1922,6
99447.0,1822,2231,1943,6
99448.0,1792,2254,1967,6
99449.0,1804,2294,1962,6
99450.0,1889,2279,1984,6
99451.0,1892,2282,1983,6
99452.0,1892,2283,1983,6
99453.0,1890,2284,1980,6
99454.0,1889,2285,1980,6
99455.0,1891,2283,1978,6
99456.0,1891,2282,1975,6
99457.0,1893,2287,1976,6
99458.0,1927,2263,1937,6
99459.0,1881,2275,1973,6
99460.0,1793,2287,1995,6
99461.0,1687,2281,2005,6
99462.0,1732,2305,1970,6
99463.0,1790,2370,1936,6
99464.0,1863,2346,1948,6
99465.0,1881,2295,1970,6
99466.0,1951,2275,1975,6
99467.0,1843,2306,1952,6
99468.0,1904,2253,1978,6
99469.0,1863,2254,1974,6
99470.0,1863,2286,1954,6
99471.0,1837,2291,1950,6
99472.0,1818,2307,1954,6
99473.0,1794,2315,1946,6
99474.0,1787,2305,1949,6
99475.0,1782,2299,1955,6
99476.0,1774,2310,1962,6
99477.0,1797,2334,1969,6
99478.0,1814,2362,1960,6
99479.0,1819,2408,1949,6
99480.0,1826,2451,1938,6
99481.0,1762,2524,1978,6
99482.0,1749,2520,2021,6
99483.0,1746,2519,2002,6
99484.0,1795,2515,2027,6
99485.0,1812,2435,2054,6
99486.0,1831,2323,2070,6
99487.0,1824,2261,2072,6
99488.0,1807,2231,2079,6
99489.0,1773,2276,2059,6
99490.0,1851,2296,2100,6
99491.0,1879,2311,2047,6
99492.0,1885,2334,1999,6
99493.0,1902,2340,1975,6
99494.0,1883,2311,1975,6
99495.0,1864,2312,1970,6
99496.0,1809,2277,1983,6
99497.0,1790,2287,1990,6
99498.0,1795,2276,1971,6
99499.0,1784,2263,1942,6
99500.0,1802,2250,1949,6
99501.0,1795,2264,1943,6
99502.0,1800,2293,1927,6
99503.0,1811,2312,1913,6
99504.0,1807,2325,1934,6
99505.0,1807,2333,1946,6
99506.0,1804,2339,1946,6
99507.0,1785,2339,1948,6
99508.0,1766,2364,1950,6
99509.0,1740,2428,1948,6
99510.0,1774,2540,1933,6
99511.0,1814,2520,1936,6
99512.0,1864,2569,1930,6
99513.0,1854,2497,2010,6
99514.0,1873,2405,2058,6
99515.0,1894,2341,2050,6
99516.0,1932,2278,2018,6
99517.0,1966,2276,2005,6
99518.0,1951,2269,1954,6
99519.0,1873,2277,1951,6
99520.0,1806,2300,2007,6
99521.0,1778,2343,2015,6
99522.0,1799,2337,1976,6
99523.0,1871,2322,1971,6
99524.0,1886,2310,1966,6
99525.0,1873,2279,1970,6
99526.0,1828,2299,1962,6
99527.0,1879,2282,1944,6
99528.0,1865,2277,1955,6
99529.0,1868,2283,1933,6
99530.0,1859,2293,1931,6
99531.0,1840,2293,1930,6
99532.0,1822,2293,1921,6
99533.0,1812,2300,1934,6
99534.0,1810,2324,1959,6
99535.0,1819,2346,1962,6
99536.0,1835,2380,1949,6
99537.0,1849,2431,1931,6
99538.0,1840,2505,1929,6
99539.0,1801,2576,1983,6
99540.0,1796,2555,1993,6
99541.0,1825,2517,2024,6
99542.0,1830,2487,2033,6
99543.0,1847,2399,2058,6
99544.0,1832,2275,2025,6
99545.0,1825,2227,2056,6
99546.0,1809,2284,2050,6
99547.0,1792,2315,2086,6
99548.0,1781,2321,2104,6
99549.0,1825,2333,2070,6
99550.0,1872,2348,2003,6
99551.0,1892,2322,1977,6
99552.0,1890,2291,1964,6
99553.0,1875,2259,2000,6
99554.0,1849,2245,2038,6
99555.0,1817,2275,1998,6
99556.0,1844,2266,1999,6
99557.0,1854,2296,2059,6
99558.0,1828,2277,2031,6
99559.0,1827,2284,1971,6
99560.0,1822,2305,1979,6
99561.0,1812,2332,1984,6
99562.0,1796,2368,1978,6
99563.0,1809,2403,1983,6
99564.0,1812,2424,1981,6
99565.0,1797,2429,1985,6
99566.0,1792,2435,2000,6
99567.0,1801,2501,2011,6
99568.0,1832,2505,1994,6
99569.0,1863,2512,2007,6
99570.0,1818,2481,2057,6
99571.0,1841,2409,2077,6
99572.0,1894,2339,2081,6
99573.0,1920,2303,2085,6
99574.0,1961,2259,2068,6
99575.0,2020,2297,2074,6
99576.0,2025,2323,2087,6
99577.0,1984,2336,2066,6
99578.0,1904,2362,2036,6
99579.0,1864,2365,2024,6
99580.0,1886,2365,2002,6
99581.0,1903,2331,2022,6
99582.0,1932,2319,1993,6
99583.0,1938,2309,1956,6
99584.0,1972,2274,2025,6
99585.0,1975,2273,2135,6
99586.0,1764,2295,1929,6
99587.0,1704,2236,2033,6
99588.0,1867,2306,2038,6
99589.0,1879,2307,2001,6
99590.0,1877,2318,1963,6
99591.0,1879,2341,1947,6
99592.0,1852,2322,1967,6
99593.0,1845,2315,1982,6
99594.0,1847,2309,1981,6
99595.0,1857,2307,2004,6
99596.0,1850,2320,2000,6
99597.0,1837,2349,1987,6
99598.0,1831,2380,1975,6
99599.0,1802,2390,1985,6
99600.0,1808,2389,1988,6
99601.0,1783,2407,2020,6
99602.0,1841,2440,2006,6
99603.0,1881,2509,2023,6
99604.0,1898,2535,2061,6
99605.0,1903,2534,2043,6
99606.0,1872,2504,2073,6
99607.0,1847,2477,2075,6
99608.0,1837,2429,2050,6
99609.0,1839,2362,2056,6
99610.0,1854,2324,2087,6
99611.0,1863,2316,2117,6
99612.0,1883,2349,2155,6
99613.0,1883,2346,2103,6
99614.0,1891,2342,2042,6
99615.0,1892,2324,2006,6
99616.0,1905,2295,1993,6
99617.0,1903,2267,2004,6
99618.0,1892,2244,2025,6
99619.0,1846,2242,2052,6
99620.0,1843,2279,2000,6
99621.0,1842,2281,2000,6
99622.0,1861,2279,1997,6
99623.0,1835,2293,1971,6
99624.0,1821,2292,1947,6
99625.0,1832,2315,1948,6
99626.0,1837,2331,1961,6
99627.0,1841,2329,1968,6
99628.0,1818,2324,1955,6
99629.0,1810,2309,1932,6
99630.0,1787,2319,1920,6
99631.0,1821,2349,1927,6
99632.0,1819,2383,1974,6
99633.0,1791,2445,1980,6
99634.0,1759,2525,1983,6
99635.0,1789,2581,1991,6
99636.0,1843,2621,1997,6
99637.0,1892,2563,1992,6
99638.0,1938,2443,1978,6
99639.0,2071,2353,1834,6
99640.0,2057,2266,1935,6
99641.0,1960,2251,1994,6
99642.0,1906,2204,1993,6
99643.0,1819,2225,2031,6
99644.0,1781,2240,2052,6
99645.0,1784,2339,1980,6
99646.0,1923,2294,1976,6
99647.0,1941,2302,1942,6
99648.0,1929,2309,1942,6
99649.0,1893,2297,1936,6
99650.0,1855,2267,1929,6
99651.0,1868,2292,1937,6
99652.0,1898,2298,1935,6
99653.0,1896,2309,1920,6
99654.0,1874,2301,1919,6
99655.0,1871,2301,1918,6
99656.0,1870,2305,1919,6
99657.0,1862,2329,1929,6
99658.0,1866,2363,1935,6
99659.0,1849,2385,1934,6
99660.0,1832,2426,1915,6
99661.0,1781,2480,1935,6
99662.0,1843,2556,1982,6
99663.0,1882,2593,1993,6
99664.0,1910,2613,2022,6
99665.0,1970,2565,2060,6
99666.0,1930,2479,2046,6
99667.0,1876,2395,2013,6
99668.0,1858,2355,2015,6
99669.0,1852,2303,2111,6
99670.0,1850,2367,2117,6
99671.0,1833,2330,2115,6
99672.0,1876,2344,2016,6
99673.0,1879,2289,1967,6
99674.0,1907,2255,1981,6
99675.0,1917,2244,1985,6
99676.0,1919,2236,2010,6
99677.0,1907,2212,2030,6
99678.0,1867,2219,2020,6
99679.0,1811,2216,1932,6
99680.0,1828,2248,1967,6
99681.0,1829,2290,2026,6
99682.0,1826,2321,1990,6
99683.0,1817,2335,1938,6
99684.0,1815,2351,1940,6
99685.0,1833,2362,1956,6
99686.0,1843,2379,1989,6
99687.0,1837,2380,1998,6
99688.0,1837,2422,1982,6
99689.0,1818,2469,1963,6
99690.0,1799,2533,1922,6
99691.0,1807,2557,1915,6
99692.0,1826,2575,1967,6
99693.0,1824,2437,2005,6
99694.0,1819,2467,2009,6
99695.0,1909,2483,2043,6
99696.0,1981,2475,2101,6
99697.0,2005,2410,2122,6
99698.0,2023,2351,2099,6
99699.0,2007,2296,2082,6
99700.0,1965,2273,1971,6
99701.0,1926,2269,2040,6
99702.0,1924,2276,2043,6
99703.0,1945,2282,2031,6
99704.0,1950,2283,2015,6
99705.0,1932,2232,1997,6
99706.0,1919,2204,2011,6
99707.0,1889,2219,2003,6
99708.0,1902,2238,1996,6
99709.0,1910,2261,1983,6
99710.0,1919,2279,1985,6
99711.0,1917,2302,1969,6
99712.0,1903,2323,1979,6
99713.0,1894,2347,1965,6
99714.0,1865,2347,1952,6
99715.0,1865,2352,1959,6
99716.0,1861,2335,1964,6
99717.0,1855,2324,1976,6
99718.0,1854,2327,1966,6
99719.0,1832,2353,1962,6
99720.0,1806,2394,1957,6
99721.0,1772,2444,1951,6
99722.0,1754,2475,1947,6
99723.0,1756,2517,1984,6
99724.0,1859,2536,2002,6
99725.0,1907,2522,2001,6
99726.0,1904,2551,1998,6
99727.0,1864,2525,2019,6
99728.0,1845,2506,2053,6
99729.0,1825,2427,2088,6
99730.0,1872,2384,2109,6
99731.0,1911,2347,2112,6
99732.0,1916,2321,2105,6
99733.0,1905,2293,2114,6
99734.0,1907,2319,2079,6
99735.0,1929,2314,2037,6
99736.0,1968,2299,2023,6
99737.0,1918,2264,1999,6
99738.0,1885,2235,2019,6
99739.0,1884,2201,2074,6
99740.0,1845,2201,2038,6
99741.0,1820,2174,1966,6
99742.0,1824,2205,1992,6
99743.0,1823,2237,2027,6
99744.0,1822,2245,2024,6
99745.0,1821,2265,2006,6
99746.0,1824,2301,1971,6
99747.0,1828,2315,1984,6
99748.0,1827,2328,1983,6
99749.0,1807,2370,1991,6
99750.0,1806,2366,1984,6
99751.0,1819,2396,1969,6
99752.0,1808,2415,1971,6
99753.0,1820,2441,1970,6
99754.0,1830,2482,1956,6
99755.0,1841,2514,1967,6
99756.0,1800,2484,2027,6
99757.0,1734,2437,2003,6
99758.0,1751,2488,2006,6
99759.0,1815,2587,2052,6
99760.0,1943,2590,2074,6
99761.0,1992,2469,2057,6
99762.0,1956,2371,2017,6
99763.0,1927,2338,2043,6
99764.0,1943,2343,2046,6
99765.0,1943,2333,2043,6
99766.0,1982,2345,2102,6
99767.0,1973,2295,2112,6
99768.0,1933,2237,2059,6
99769.0,1890,2252,2058,6
99770.0,1917,2199,2019,6
99771.0,1901,2212,1934,6
99772.0,1905,2221,1918,6
99773.0,1901,2217,1921,6
99774.0,1893,2220,2014,6
99775.0,1906,2248,2010,6
99776.0,1903,2284,1996,6
99777.0,1874,2337,1981,6
99778.0,1854,2375,1972,6
99779.0,1864,2399,1978,6
99780.0,1865,2362,1978,6
99781.0,1864,2357,1974,6
99782.0,1867,2343,1950,6
99783.0,1828,2327,1952,6
99784.0,1808,2306,1976,6
99785.0,1815,2304,1989,6
99786.0,1828,2297,1993,6
99787.0,1836,2313,1991,6
99788.0,1824,2340,1980,6
99789.0,1810,2386,2000,6
99790.0,1828,2466,2027,6
99791.0,1828,2464,2027,6
99792.0,1828,2461,2028,6
99793.0,1830,2461,2027,6
99794.0,1834,2460,2024,6
99795.0,1847,2441,2051,6
99796.0,1852,2415,2077,6
99797.0,1857,2386,2095,6
99798.0,1855,2368,2112,6
99799.0,1844,2337,2124,6
85000.0,1985,2526,2035,6
85001.0,1988,2526,2036,6
85002.0,1989,2527,2031,6
85003.0,1982,2538,2039,6
85004.0,1982,2534,2036,6
85005.0,1986,2539,2035,6
85006.0,1986,2532,2041,6
85007.0,1986,2529,2044,6
85008.0,1982,2537,2041,6
85009.0,1988,2530,2043,6
85010.0,1984,2536,2045,6
85011.0,1990,2539,2043,6
85012.0,1989,2537,2044,6
85013.0,1991,2532,2043,6
85014.0,1990,2538,2045,6
85015.0,2000,2536,2047,6
85016.0,2002,2535,2045,6
85017.0,2006,2539,2043,6
85018.0,2010,2538,2036,6
85019.0,2014,2537,2043,6
85020.0,2008,2533,2044,6
85021.0,2009,2539,2042,6
85022.0,2007,2538,2041,6
85023.0,2014,2532,2045,6
85024.0,2019,2536,2039,6
85025.0,2019,2536,2036,6
85026.0,2011,2532,2035,6
85027.0,2012,2533,2043,6
85028.0,2008,2529,2044,6
85029.0,2005,2527,2039,6
85030.0,2007,2533,2041,6
85031.0,2010,2533,2039,6
85032.0,2008,2530,2042,6
85033.0,2016,2529,2042,6
85034.0,2024,2530,2041,6
85035.0,2024,2524,2048,6
85036.0,2019,2523,2049,6
85037.0,2031,2521,2052,6
85038.0,2027,2523,2049,6
85039.0,2029,2527,2053,6
85040.0,2025,2519,2059,6
85041.0,2020,2519,2055,6
85042.0,2009,2512,2057,6
85043.0,2012,2505,2060,6
85044.0,2009,2510,2076,6
85045.0,2011,2520,2084,6
85046.0,2006,2534,2083,6
85047.0,2003,2549,2090,6
85048.0,2004,2568,2092,6
85049.0,2001,2573,2089,6
85050.0,1998,2579,2096,6
85051.0,1990,2570,2097,6
85052.0,1981,2563,2105,6
85053.0,1980,2550,2109,6
85054.0,1991,2544,2115,6
85055.0,1986,2535,2115,6
85056.0,1996,2541,2126,6
85057.0,1997,2546,2119,6
85058.0,1989,2557,2118,6
85059.0,2000,2561,2105,6
85060.0,2014,2571,2098,6
85061.0,2019,2566,2093,6
85062.0,2035,2552,2087,6
85063.0,2031,2551,2085,6
85064.0,2031,2531,2083,6
85065.0,2031,2526,2081,6
85066.0,2023,2526,2080,6
85067.0,2017,2533,2089,6
85068.0,2019,2543,2082,6
85069.0,2015,2571,2063,6
85070.0,2025,2583,2045,6
85071.0,2071,2575,2052,6
85072.0,2050,2535,2083,6
85073.0,2071,2506,2085,6
85074.0,2084,2465,2074,6
85075.0,2078,2432,2082,6
85076.0,2084,2439,2104,6
85077.0,2096,2481,2108,6
85078.0,2109,2541,2112,6
85079.0,2122,2579,2104,6
85080.0,2164,2612,2058,6
85081.0,2176,2601,2015,6
85082.0,2090,2563,2003,6
85083.0,2043,2539,2012,6
85084.0,2040,2530,2028,6
85085.0,2034,2515,2048,6
85086.0,2025,2522,2036,6
85087.0,2009,2535,2015,6
85088.0,2002,2545,2003,6
85089.0,2006,2544,2013,6
85090.0,2081,2533,2031,6
85091.0,2071,2531,2033,6
85092.0,2081,2531,2025,6
85093.0,2089,2525,2026,6
85094.0,2068,2521,2040,6
85095.0,2059,2525,2044,6
85096.0,2039,2546,2055,6
85097.0,2039,2548,2059,6
85098.0,2039,2583,2067,6
85099.0,2038,2553,2044,6
85100.0,2025,2526,2024,6
85101.0,2001,2526,2027,6
85102.0,1993,2524,2060,6
85103.0,1994,2532,2114,6
85104.0,1991,2546,2136,6
85105.0,1991,2583,2136,6
85106.0,1978,2635,2125,6
85107.0,1947,2675,2085,6
85108.0,2004,2647,2047,6
85109.0,2036,2602,2056,6
85110.0,2040,2555,2040,6
85111.0,2061,2506,2021,6
85112.0,2049,2449,2032,6
85113.0,2039,2412,2063,6
85114.0,2033,2385,2085,6
85115.0,2028,2389,2090,6
85116.0,2031,2447,2071,6
85117.0,2027,2492,2058,6
85118.0,2028,2544,2043,6
85119.0,2033,2575,2035,6
85120.0,2039,2581,2042,6
85121.0,2027,2587,2038,6
85122.0,2030,2596,2027,6
85123.0,2014,2615,2035,6
85124.0,2016,2665,2043,6
85125.0,2016,2715,2053,6
85126.0,2030,2769,2066,6
85127.0,2028,2756,2070,6
85128.0,2040,2699,2101,6
85129.0,2039,2613,2122,6
85130.0,2042,2527,2119,6
85131.0,2058,2490,2127,6
85132.0,2059,2493,2153,6
85133.0,2070,2541,2168,6
85134.0,2079,2542,2167,6
85135.0,2085,2527,2162,6
85136.0,2090,2513,2155,6
85137.0,2100,2529,2157,6
85138.0,2111,2569,2169,6
85139.0,2110,2572,2164,6
85140.0,2101,2526,2153,6
85141.0,2092,2490,2133,6
85142.0,1995,2499,1885,6
85143.0,2044,2533,1688,6
85144.0,2106,2467,2054,6
85145.0,2098,2408,2118,6
85146.0,2095,2387,2121,6
85147.0,2087,2380,2120,6
85148.0,2088,2381,2122,6
85149.0,2088,2399,2117,6
85150.0,2079,2414,2116,6
85151.0,2039,2460,2050,6
85152.0,2041,2533,2034,6
85153.0,2066,2593,2043,6
85154.0,2078,2673,2021,6
85155.0,2091,2701,2087,6
85156.0,2064,2691,2087,6
85157.0,2044,2663,2068,6
85158.0,2043,2668,2081,6
85159.0,2042,2686,2118,6
85160.0,2054,2699,2126,6
85161.0,2051,2690,2140,6
85162.0,2047,2604,2155,6
85163.0,2049,2511,2159,6
85164.0,2035,2491,2156,6
85165.0,2032,2539,2165,6
85166.0,2021,2570,2171,6
85167.0,2017,2568,2176,6
85168.0,2006,2565,2168,6
85169.0,2003,2569,2170,6
85170.0,1969,2538,2135,6
85171.0,1966,2536,2133,6
85172.0,1967,2535,2130,6
85173.0,1975,2478,2113,6
85174.0,2000,2418,2110,6
85175.0,2017,2367,2106,6
85176.0,2034,2343,2099,6
85177.0,2052,2352,2105,6
85178.0,2063,2400,2121,6
85179.0,2083,2457,2132,6
85180.0,2092,2506,2153,6
85181.0,2099,2542,2167,6
85182.0,2136,2591,2054,6
85183.0,2252,2635,1806,6
85184.0,2064,2652,2059,6
85185.0,2045,2674,2093,6
85186.0,2022,2705,2100,6
85187.0,2006,2741,2088,6
85188.0,1991,2753,2040,6
85189.0,1992,2695,2017,6
85190.0,2005,2689,2081,6
85191.0,2017,2679,2139,6
85192.0,2028,2593,2145,6
85193.0,2033,2516,2155,6
85194.0,2041,2509,2159,6
85195.0,2044,2528,2169,6
85196.0,2040,2519,2164,6
85197.0,2048,2505,2152,6
85198.0,2061,2500,2155,6
85199.0,2068,2507,2155,6
85200.0,2078,2502,2150,6
85201.0,2084,2521,2155,6
85202.0,2092,2516,2149,6
85203.0,2100,2491,2141,6
85204.0,2099,2475,2144,6
85205.0,2101,2469,2136,6
85206.0,2169,2503,1839,6
85207.0,2202,2503,1823,6
85208.0,2068,2483,2070,6
85209.0,2067,2455,2134,6
85210.0,2065,2402,2123,6
85211.0,2062,2431,2119,6
85212.0,2059,2487,2049,6
85213.0,2099,2501,1990,6
85214.0,2108,2507,1994,6
85215.0,2070,2497,2004,6
85216.0,2113,2503,2031,6
85217.0,2118,2496,2053,6
85218.0,2103,2523,2035,6
85219.0,2099,2537,2023,6
85220.0,2107,2542,2024,6
85221.0,2121,2567,2023,6
85222.0,2125,2596,2040,6
85223.0,2128,2620,2027,6
85224.0,2136,2681,2001,6
85225.0,2076,2696,1963,6
85226.0,2031,2670,1970,6
85227.0,2030,2588,1991,6
85228.0,2014,2506,2022,6
85229.0,2018,2469,2058,6
85230.0,2013,2463,2096,6
85231.0,2006,2505,2121,6
85232.0,1990,2550,2109,6
85233.0,1968,2580,2056,6
85234.0,1955,2589,1990,6
85235.0,1920,2578,1975,6
85236.0,1949,2587,1997,6
85237.0,2018,2540,2045,6
85238.0,2044,2507,2037,6
85239.0,2060,2487,2030,6
85240.0,2066,2462,2032,6
85241.0,2069,2449,2046,6
85242.0,2070,2436,2059,6
85243.0,2074,2470,2076,6
85244.0,2088,2506,2059,6
85245.0,2109,2527,2024,6
85246.0,2122,2543,1979,6
85247.0,2125,2549,1949,6
85248.0,2101,2544,1941,6
85249.0,2091,2533,1960,6
85250.0,2080,2540,1988,6
85251.0,2063,2575,1985,6
85252.0,2046,2631,1980,6
85253.0,2026,2699,1959,6
85254.0,2014,2780,1958,6
85255.0,2030,2782,1977,6
85256.0,2061,2691,2005,6
85257.0,2074,2570,2050,6
85258.0,2063,2495,2101,6
85259.0,2065,2501,2146,6
85260.0,2071,2555,2173,6
85261.0,2083,2551,2168,6
85262.0,2092,2525,2156,6
85263.0,2091,2516,2149,6
85264.0,2116,2547,2085,6
85265.0,2141,2594,2010,6
85266.0,2157,2631,1979,6
85267.0,2119,2563,2028,6
85268.0,2078,2518,2077,6
85269.0,2083,2491,2087,6
85270.0,2072,2483,2094,6
85271.0,2057,2480,2079,6
85272.0,2066,2466,2068,6
85273.0,2071,2464,2053,6
85274.0,2082,2464,2046,6
85275.0,2092,2458,2028,6
85276.0,2097,2453,2026,6
85277.0,2096,2443,2028,6
85278.0,2115,2447,2027,6
85279.0,2110,2448,2027,6
85280.0,2109,2458,2036,6
85281.0,2110,2469,2043,6
85282.0,2113,2478,2045,6
85283.0,2121,2507,2053,6
85284.0,2126,2548,2063,6
85285.0,2138,2608,2049,6
85286.0,2159,2714,2023,6
85287.0,2181,2795,2015,6
85288.0,2162,2715,2031,6
85289.0,2138,2582,2069,6
85290.0,2136,2531,2088,6
85291.0,2101,2540,2107,6
85292.0,2064,2540,2127,6
85293.0,2052,2573,2161,6
85294.0,2041,2619,2185,6
85295.0,2032,2637,2187,6
85296.0,2008,2603,2174,6
85297.0,2006,2583,2164,6
85298.0,1997,2576,2153,6
85299.0,1931,2621,1976,6
85300.0,2032,2609,1921,6
85301.0,2072,2551,1966,6
85302.0,2065,2488,2066,6
85303.0,2061,2453,2112,6
85304.0,2056,2432,2117,6
85305.0,2091,2417,2052,6
85306.0,2111,2446,2013,6
85307.0,2095,2462,2036,6
85308.0,2058,2435,2053,6
85309.0,2038,2419,2054,6
85310.0,2031,2399,2055,6
85311.0,2033,2381,2060,6
85312.0,2055,2428,2075,6
85313.0,2073,2506,2074,6
85314.0,2088,2586,2055,6
85315.0,2102,2624,2028,6
85316.0,2095,2656,2028,6
85317.0,2067,2640,2042,6
85318.0,2051,2649,2057,6
85319.0,2023,2683,2063,6
85320.0,2020,2732,2066,6
85321.0,2029,2789,2065,6
85322.0,2041,2757,2089,6
85323.0,2059,2675,2131,6
85324.0,2071,2600,2173,6
85325.0,2078,2558,2170,6
85326.0,2085,2551,2171,6
85327.0,2088,2565,2174,6
85328.0,2094,2557,2176,6
85329.0,2107,2528,2164,6
85330.0,2107,2507,2160,6
85331.0,2111,2503,2155,6
85332.0,2124,2516,2156,6
85333.0,2124,2524,2157,6
85334.0,2126,2500,2146,6
85335.0,2120,2462,2132,6
85336.0,2149,2535,1643,6
85337.0,2086,2469,1927,6
85338.0,2078,2414,2080,6
85339.0,2085,2382,2123,6
85340.0,2049,2403,2119,6
85341.0,2048,2404,2121,6
85342.0,2040,2409,2118,6
85343.0,2033,2427,2120,6
85344.0,2023,2463,2130,6
85345.0,1936,2562,1938,6
85346.0,1953,2619,1865,6
85347.0,2105,2630,1971,6
85348.0,2091,2649,2063,6
85349.0,2134,2662,2069,6
85350.0,2153,2723,2070,6
85351.0,2136,2815,2076,6
85352.0,2167,2852,2048,6
85353.0,2167,2763,2030,6
85354.0,2129,2619,2082,6
85355.0,2088,2520,2123,6
85356.0,2082,2480,2152,6
85357.0,2075,2473,2151,6
85358.0,2064,2466,2142,6
85359.0,2061,2467,2140,6
85360.0,2056,2483,2144,6
85361.0,2039,2523,2155,6
85362.0,2045,2581,2158,6
85363.0,2029,2649,1996,6
85364.0,1929,2613,1827,6
85365.0,1965,2575,1856,6
85366.0,2049,2507,2000,6
85367.0,2060,2444,2091,6
85368.0,2058,2398,2109,6
85369.0,2055,2382,2098,6
85370.0,2032,2401,2031,6
85371.0,2020,2410,2001,6
85372.0,2050,2406,2044,6
85373.0,2070,2417,2038,6
85374.0,2074,2435,2024,6
85375.0,2081,2477,2013,6
85376.0,2083,2521,2005,6
85377.0,2085,2557,2003,6
85378.0,2070,2597,2003,6
85379.0,2043,2627,2006,6
85380.0,2027,2671,2003,6
85381.0,2024,2741,1997,6
85382.0,2034,2803,2007,6
85383.0,2041,2836,2050,6
85384.0,2075,2747,2083,6
85385.0,2085,2578,2074,6
85386.0,2093,2480,2094,6
85387.0,2095,2465,2124,6
85388.0,2104,2529,2166,6
85389.0,2109,2597,2192,6
85390.0,2116,2581,2179,6
85391.0,2121,2486,2153,6
85392.0,2117,2451,2138,6
85393.0,2117,2472,2138,6
85394.0,2122,2511,2144,6
85395.0,2068,2588,1916,6
85396.0,2046,2571,1654,6
85397.0,2078,2455,1943,6
85398.0,2074,2419,2071,6
85399.0,2083,2383,2113,6
85400.0,2075,2375,2114,6
85401.0,2067,2403,2125,6
85402.0,2056,2428,2127,6
85403.0,2048,2446,2132,6
85404.0,2000,2494,2020,6
85405.0,1951,2551,1924,6
85406.0,1961,2599,1873,6
85407.0,2038,2607,1931,6
85408.0,2078,2603,2014,6
85409.0,2087,2569,2041,6
85410.0,2103,2570,2026,6
85411.0,2118,2625,2009,6
85412.0,2128,2703,1996,6
85413.0,2139,2764,2008,6
85414.0,2100,2745,2045,6
85415.0,2066,2697,2103,6
85416.0,2041,2606,2142,6
85417.0,2034,2551,2143,6
85418.0,2022,2536,2134,6
85419.0,2016,2523,2145,6
85420.0,2012,2473,2143,6
85421.0,2006,2457,2136,6
85422.0,2003,2478,2138,6
85423.0,2000,2535,2152,6
85424.0,2001,2570,2154,6
85425.0,1991,2551,2108,6
85426.0,2046,2565,1897,6
85427.0,2090,2533,1876,6
85428.0,2068,2463,2003,6
85429.0,2038,2400,2092,6
85430.0,2051,2363,2106,6
85431.0,2044,2359,2109,6
85432.0,2057,2365,2101,6
85433.0,2070,2383,2080,6
85434.0,2086,2438,1982,6
85435.0,2064,2447,2009,6
85436.0,2034,2474,2071,6
85437.0,2046,2521,2071,6
85438.0,2052,2595,2062,6
85439.0,2074,2691,2035,6
85440.0,2080,2725,2008,6
85441.0,2092,2715,2012,6
85442.0,2086,2660,2045,6
85443.0,2084,2663,2080,6
85444.0,2084,2715,2087,6
85445.0,2082,2769,2083,6
85446.0,2078,2769,2109,6
85447.0,2062,2669,2133,6
85448.0,2061,2558,2150,6
85449.0,2058,2506,2152,6
85450.0,2071,2500,2162,6
85451.0,2079,2539,2163,6
85452.0,2090,2551,2164,6
85453.0,2094,2517,2158,6
85454.0,2097,2473,2145,6
85455.0,2108,2453,2141,6
85456.0,2116,2469,2138,6
85457.0,2116,2487,2147,6
85458.0,2116,2477,2137,6
85459.0,2188,2595,1656,6
85460.0,2086,2473,1888,6
85461.0,2070,2430,2052,6
85462.0,2089,2404,2126,6
85463.0,2071,2394,2123,6
85464.0,2067,2390,2119,6
85465.0,2062,2413,2118,6
85466.0,2055,2437,2126,6
85467.0,2052,2459,2130,6
85468.0,1983,2520,1964,6
85469.0,1977,2601,1836,6
85470.0,2068,2603,1918,6
85471.0,2074,2543,2058,6
85472.0,2064,2514,2121,6
85473.0,2073,2562,2109,6
85474.0,2088,2643,2061,6
85475.0,2087,2717,2041,6
85476.0,2065,2822,2071,6
85477.0,2065,2866,2104,6
85478.0,2055,2812,2100,6
85479.0,2041,2675,2103,6
85480.0,2034,2557,2100,6
85481.0,2035,2491,2122,6
85482.0,2029,2467,2140,6
85483.0,2026,2448,2140,6
85484.0,2013,2458,2141,6
85485.0,2009,2531,2161,6
85486.0,2008,2591,2175,6
85487.0,1993,2601,2170,6
85488.0,1985,2566,2160,6
85489.0,1987,2527,2150,6
85490.0,1984,2495,2136,6
85491.0,1904,2474,1960,6
85492.0,2008,2481,2073,6
85493.0,2028,2428,2045,6
85494.0,2062,2380,1991,6
85495.0,2071,2357,2019,6
85496.0,2056,2363,2102,6
85497.0,2056,2391,2116,6
85498.0,2063,2428,2129,6
85499.0,2066,2464,2122,6
85500.0,2100,2541,1988,6
85501.0,2116,2579,1942,6
85502.0,2092,2566,2029,6
85503.0,2059,2612,2087,6
85504.0,2087,2644,2076,6
85505.0,2074,2676,2046,6
85506.0,2078,2748,2010,6
85507.0,2085,2805,1994,6
85508.0,2091,2757,2036,6
85509.0,2098,2715,2083,6
85510.0,2098,2529,2127,6
85511.0,2103,2529,2127,6
85512.0,2101,2520,2138,6
85513.0,2112,2466,2145,6
85514.0,2113,2429,2134,6
85515.0,2106,2431,2139,6
85516.0,2122,2477,2149,6
85517.0,2126,2519,2157,6
85518.0,2118,2532,2165,6
85519.0,2120,2495,2149,6
85520.0,2112,2482,2138,6
85521.0,2045,2505,1983,6
85522.0,2020,2509,1941,6
85523.0,2062,2491,1940,6
85524.0,2075,2438,2075,6
85525.0,2082,2422,2112,6
85526.0,2082,2447,2133,6
85527.0,2050,2509,2086,6
85528.0,2024,2539,2062,6
85529.0,2032,2557,2040,6
85530.0,2045,2529,2013,6
85531.0,2051,2521,1994,6
85532.0,2099,2534,2015,6
85533.0,2069,2508,2031,6
85534.0,2054,2503,2027,6
85535.0,2050,2486,2028,6
85536.0,2046,2477,2017,6
85537.0,2039,2481,2014,6
85538.0,2042,2507,2009,6
85539.0,2034,2518,1989,6
85540.0,2030,2530,1964,6
85541.0,2058,2538,1961,6
85542.0,2065,2509,1996,6
85543.0,2067,2495,2015,6
85544.0,2076,2477,2008,6
85545.0,2083,2486,1991,6
85546.0,2093,2514,1973,6
85547.0,2087,2542,1976,6
85548.0,2070,2554,1991,6
85549.0,2056,2566,1994,6
85550.0,2041,2565,1988,6
85551.0,2025,2569,1972,6
85552.0,2019,2571,1968,6
85553.0,2013,2578,1959,6
85554.0,2011,2571,1958,6
85555.0,2051,2570,1992,6
85556.0,2054,2555,2018,6
85557.0,2048,2543,1987,6
85558.0,2050,2509,2000,6
85559.0,2044,2483,2015,6
85560.0,2036,2470,2011,6
85561.0,2030,2462,2021,6
85562.0,2024,2467,2031,6
85563.0,2018,2463,2034,6
85564.0,2010,2462,2023,6
85565.0,1987,2481,2025,6
85566.0,1970,2522,2006,6
85567.0,1977,2593,1993,6
85568.0,2001,2659,2003,6
85569.0,2071,2629,2031,6
85570.0,2051,2577,2020,6
85571.0,2048,2558,2006,6
85572.0,2037,2526,1998,6
85573.0,2021,2499,2006,6
85574.0,2015,2492,2026,6
85575.0,2016,2477,2041,6
85576.0,2026,2483,2050,6
85577.0,2025,2499,2053,6
85578.0,2019,2532,2052,6
85579.0,2016,2553,2046,6
85580.0,2025,2578,2029,6
85581.0,2013,2594,2014,6
85582.0,2009,2588,2019,6
85583.0,2011,2546,2057,6
85584.0,2012,2554,2097,6
85585.0,2014,2601,2106,6
85586.0,2043,2680,2077,6
85587.0,2062,2756,2067,6
85588.0,2033,2755,2091,6
85589.0,2049,2739,2147,6
85590.0,2070,2723,2127,6
85591.0,2085,2655,2102,6
85592.0,2091,2607,2124,6
85593.0,2093,2592,2164,6
85594.0,2101,2567,2180,6
85595.0,2109,2534,2165,6
85596.0,2112,2497,2150,6
85597.0,2113,2475,2144,6
85598.0,2113,2460,2144,6
85599.0,2113,2465,2140,6
85600.0,2108,2450,2131,6
85601.0,2080,2445,2126,6
85602.0,2016,2475,1980,6
85603.0,2027,2478,1949,6
85604.0,2057,2436,2033,6
85605.0,2061,2412,2086,6
85606.0,2071,2412,2101,6
85607.0,2064,2427,2103,6
85608.0,2058,2434,2083,6
85609.0,2057,2452,2060,6
85610.0,2065,2491,2039,6
85611.0,2089,2543,2029,6
85612.0,2109,2580,2008,6
85613.0,2171,2607,1965,6
85614.0,2143,2575,2017,6
85615.0,2130,2528,2039,6
85616.0,2139,2499,2048,6
85617.0,2140,2502,2044,6
85618.0,2136,2497,2056,6
85619.0,2130,2478,2068,6
85620.0,2117,2473,2070,6
85621.0,2124,2498,2051,6
85622.0,2140,2553,2040,6
85623.0,2130,2593,2068,6
85624.0,2151,2611,2062,6
85625.0,2165,2613,2039,6
85626.0,2172,2655,2022,6
85627.0,2166,2720,2028,6
85628.0,2148,2741,2005,6
85629.0,2105,2718,2012,6
85630.0,2087,2732,2046,6
85631.0,2067,2682,2069,6
85632.0,2072,2616,2087,6
85633.0,2058,2561,2104,6
85634.0,2059,2551,2136,6
85635.0,2058,2550,2161,6
85636.0,2052,2523,2156,6
85637.0,2032,2479,2145,6
85638.0,2024,2466,2137,6
85639.0,2014,2490,2144,6
85640.0,2010,2527,2151,6
85641.0,2002,2557,2152,6
85642.0,1897,2575,1993,6
85643.0,1898,2560,1958,6
85644.0,2006,2498,2008,6
85645.0,2037,2462,2070,6
85646.0,2046,2424,2091,6
85647.0,2054,2424,2086,6
85648.0,2066,2444,2051,6
85649.0,2089,2453,2035,6
85650.0,2072,2444,2040,6
85651.0,2062,2439,2048,6
85652.0,2054,2451,2052,6
85653.0,2051,2470,2056,6
85654.0,2051,2489,2054,6
85655.0,2056,2533,2046,6
85656.0,2062,2561,2039,6
85657.0,2063,2593,2026,6
85658.0,2060,2632,2015,6
85659.0,2032,2686,2039,6
85660.0,2040,2743,2064,6
85661.0,2054,2767,2058,6
85662.0,2053,2737,2034,6
85663.0,2027,2728,2071,6
85664.0,2050,2712,2117,6
85665.0,2054,2623,2129,6
85666.0,2063,2544,2132,6
85667.0,2068,2528,2158,6
85668.0,2073,2525,2165,6
85669.0,2076,2500,2158,6
85670.0,2080,2475,2145,6
85671.0,2083,2469,2143,6
85672.0,2088,2471,2145,6
85673.0,2094,2477,2146,6
85674.0,2086,2459,2137,6
85675.0,2074,2434,2121,6
85676.0,2063,2411,2115,6
85677.0,2036,2496,1926,6
85678.0,1977,2458,1928,6
85679.0,2000,2470,1883,6
85680.0,2071,2539,2156,6
85681.0,2070,2538,2157,6
85682.0,2072,2549,2167,6
85683.0,2088,2578,2129,6
85684.0,2105,2585,2064,6
85685.0,2129,2559,2005,6
85686.0,2111,2558,1969,6
85687.0,2049,2546,2020,6
85688.0,2025,2521,2031,6
85689.0,2035,2487,2068,6
85690.0,2045,2449,2092,6
85691.0,2039,2435,2066,6
85692.0,2023,2469,2050,6
85693.0,2015,2494,2041,6
85694.0,2020,2533,2042,6
85695.0,2068,2534,2035,6
85696.0,2091,2551,2018,6
85697.0,2106,2582,1998,6
85698.0,2101,2603,2012,6
85699.0,2076,2617,2013,6
85700.0,2061,2651,2047,6
85701.0,2066,2680,2068,6
85702.0,2065,2753,2076,6
85703.0,2062,2771,2094,6
85704.0,2048,2726,2118,6
85705.0,2043,2627,2099,6
85706.0,2039,2550,2106,6
85707.0,2040,2515,2127,6
85708.0,2035,2515,2165,6
85709.0,2033,2523,2163,6
85710.0,2014,2516,2159,6
85711.0,2008,2491,2146,6
85712.0,2003,2474,2135,6
85713.0,1994,2483,2136,6
85714.0,1999,2501,2140,6
85715.0,1972,2523,2090,6
85716.0,1943,2551,1942,6
85717.0,2043,2493,1965,6
85718.0,2050,2432,2062,6
85719.0,2053,2409,2122,6
85720.0,2056,2421,2129,6
85721.0,2062,2450,2134,6
85722.0,2099,2503,2090,6
85723.0,2107,2526,2031,6
85724.0,2111,2544,2038,6
85725.0,2103,2519,2095,6
85726.0,2086,2531,2125,6
85727.0,2057,2581,2104,6
85728.0,2048,2635,2065,6
85729.0,2024,2697,2054,6
85730.0,2025,2716,2077,6
85731.0,2007,2715,2118,6
85732.0,2007,2735,2125,6
85733.0,2000,2682,2066,6
85734.0,2041,2646,2064,6
85735.0,2076,2577,2119,6
85736.0,2089,2539,2158,6
85737.0,2101,2539,2165,6
85738.0,2112,2550,2169,6
85739.0,2121,2541,2174,6
85740.0,2128,2527,2161,6
85741.0,2134,2505,2152,6
85742.0,2135,2495,2153,6
85743.0,2136,2498,2156,6
85744.0,2128,2517,2151,6
85745.0,2105,2501,2146,6
85746.0,1983,2535,1925,6
85747.0,1996,2539,1823,6
85748.0,2049,2449,2007,6
85749.0,2070,2391,2097,6
85750.0,2065,2356,2113,6
85751.0,2062,2337,2110,6
85752.0,2069,2356,2116,6
85753.0,2066,2405,2122,6
85754.0,2059,2459,2134,6
85755.0,2053,2480,2134,6
85756.0,2014,2507,2038,6
85757.0,1966,2531,2019,6
85758.0,1976,2569,2015,6
85759.0,1953,2613,2026,6
85760.0,1947,2620,2017,6
85761.0,1940,2587,2001,6
85762.0,1952,2553,1996,6
85763.0,1936,2531,1995,6
85764.0,1931,2551,2008,6
85765.0,1999,2577,2056,6
85766.0,2031,2606,2045,6
85767.0,2068,2606,1996,6
85768.0,2072,2627,1977,6
85769.0,2088,2654,2012,6
85770.0,2076,2719,2063,6
85771.0,2083,2777,2057,6
85772.0,2059,2751,2019,6
85773.0,2024,2690,2005,6
85774.0,2063,2584,2045,6
85775.0,2049,2522,2078,6
85776.0,2052,2474,2116,6
85777.0,2051,2456,2130,6
85778.0,2056,2486,2144,6
85779.0,2061,2500,2146,6
85780.0,2069,2485,2150,6
85781.0,2078,2489,2140,6
85782.0,2086,2511,2152,6
85783.0,2091,2555,2159,6
85784.0,2143,2626,1946,6
85785.0,2076,2553,1930,6
85786.0,2094,2547,1745,6
85787.0,2052,2517,2027,6
85788.0,2046,2463,2061,6
85789.0,2033,2423,2085,6
85790.0,2033,2414,2053,6
85791.0,2006,2388,2022,6
85792.0,1991,2365,2008,6
85793.0,1980,2382,2007,6
85794.0,1982,2403,2004,6
85795.0,1987,2469,2017,6
85796.0,2063,2547,2023,6
85797.0,2089,2610,2013,6
85798.0,2103,2680,2018,6
85799.0,2103,2720,2068,6
85800.0,2089,2749,2128,6
85801.0,2133,2779,2117,6
85802.0,2154,2757,2063,6
85803.0,2128,2693,2064,6
85804.0,2072,2667,2114,6
85805.0,2057,2626,2116,6
85806.0,2066,2566,2113,6
85807.0,2068,2535,2135,6
85808.0,2074,2509,2146,6
85809.0,2077,2462,2149,6
85810.0,2073,2442,2136,6
85811.0,2083,2459,2139,6
85812.0,2088,2494,2151,6
85813.0,2098,2522,2155,6
85814.0,2113,2528,1999,6
85815.0,2064,2543,1886,6
85816.0,2147,2506,1892,6
85817.0,2106,2445,2052,6
85818.0,2091,2395,2095,6
85819.0,2077,2369,2093,6
85820.0,2070,2377,2093,6
85821.0,2067,2403,2077,6
85822.0,2062,2437,2063,6
85823.0,2055,2480,2033,6
85824.0,2050,2528,1991,6
85825.0,2105,2554,1949,6
85826.0,2095,2565,1990,6
85827.0,2065,2553,2027,6
85828.0,2041,2559,2032,6
85829.0,2045,2576,2020,6
85830.0,2053,2585,2039,6
85831.0,2055,2600,2063,6
85832.0,2055,2626,2045,6
85833.0,2057,2702,2043,6
85834.0,2067,2793,2023,6
85835.0,2061,2837,2024,6
85836.0,2041,2749,2054,6
85837.0,2041,2630,2064,6
85838.0,2034,2542,2106,6
85839.0,2038,2480,2142,6
85840.0,2033,2450,2141,6
85841.0,2026,2445,2136,6
85842.0,2019,2467,2142,6
85843.0,2012,2485,2147,6
85844.0,2004,2511,2144,6
85845.0,2001,2518,2145,6
85846.0,1993,2505,2138,6
85847.0,1841,2511,2028,6
85848.0,1969,2511,2078,6
85849.0,2027,2480,2016,6
85850.0,2050,2438,2131,6
85851.0,2052,2435,2130,6
85852.0,2041,2425,2130,6
85853.0,2050,2431,2132,6
85854.0,2055,2442,2121,6
85855.0,2055,2461,2064,6
85856.0,2085,2513,1967,6
85857.0,2057,2528,2015,6
85858.0,2064,2571,2053,6
85859.0,2091,2605,2031,6
85860.0,2098,2645,2032,6
85861.0,2071,2682,2034,6
85862.0,2076,2704,2025,6
85863.0,2069,2740,2005,6
85864.0,2052,2745,2026,6
85865.0,2045,2718,2092,6
85866.0,2066,2684,2140,6
85867.0,2069,2623,2140,6
85868.0,2067,2547,2127,6
85869.0,2069,2494,2142,6
85870.0,2077,2483,2150,6
85871.0,2088,2476,2155,6
85872.0,2087,2463,2142,6
85873.0,2092,2477,2143,6
85874.0,2092,2463,2143,6
85875.0,2093,2458,2137,6
85876.0,2094,2463,2138,6
85877.0,2095,2454,2132,6
85878.0,2112,2594,1964,6
85879.0,2012,2490,1945,6
85880.0,2015,2484,1912,6
85881.0,2055,2468,1959,6
85882.0,2098,2438,2067,6
85883.0,2085,2450,2104,6
85884.0,2066,2484,2079,6
85885.0,2037,2483,2034,6
85886.0,2018,2501,2002,6
85887.0,2023,2506,2002,6
85888.0,2060,2483,2013,6
85889.0,2077,2474,1989,6
85890.0,2075,2476,1979,6
85891.0,2073,2483,2008,6
85892.0,2060,2498,2029,6
85893.0,2053,2543,2032,6
85894.0,2056,2592,2013,6
85895.0,2067,2645,1985,6
85896.0,2081,2655,1978,6
85897.0,2076,2642,2013,6
85898.0,2070,2587,2033,6
85899.0,2076,2551,2058,6
85900.0,2073,2557,2103,6
85901.0,2076,2615,2142,6
85902.0,2092,2713,2137,6
85903.0,2128,2799,2049,6
85904.0,2175,2797,1977,6
85905.0,2135,2667,2038,6
85906.0,2101,2529,2099,6
85907.0,2078,2457,2117,6
85908.0,2066,2454,2131,6
85909.0,2059,2519,2160,6
85910.0,2053,2565,2171,6
85911.0,2033,2549,2168,6
85912.0,2028,2551,2162,6
85913.0,2011,2565,2161,6
85914.0,2002,2591,2167,6
85915.0,1905,2572,2031,6
85916.0,1900,2586,1991,6
85917.0,1973,2513,1984,6
85918.0,2031,2466,2057,6
85919.0,2059,2408,2113,6
85920.0,2055,2386,2115,6
85921.0,2059,2382,2118,6
85922.0,2067,2377,2113,6
85923.0,2074,2386,2101,6
85924.0,2084,2423,2086,6
85925.0,2120,2471,2002,6
85926.0,2096,2487,2013,6
85927.0,2062,2522,2029,6
85928.0,2060,2564,2025,6
85929.0,2088,2584,2039,6
85930.0,2071,2609,2040,6
85931.0,2043,2665,2023,6
85932.0,2026,2716,1998,6
85933.0,2014,2769,2017,6
85934.0,2018,2754,2058,6
85935.0,2035,2709,2124,6
85936.0,2046,2662,2156,6
85937.0,2061,2569,2141,6
85938.0,2075,2502,2129,6
85939.0,2088,2513,2146,6
85940.0,2088,2564,2177,6
85941.0,2088,2575,2180,6
85942.0,2088,2519,2159,6
85943.0,2086,2476,2146,6
85944.0,2091,2485,2150,6
85945.0,2082,2532,2159,6
85946.0,2067,2519,2151,6
85947.0,2060,2493,2141,6
85948.0,2006,2501,2125,6
85949.0,1961,2539,1893,6
85950.0,2065,2479,1932,6
85951.0,2088,2416,2073,6
85952.0,2082,2397,2113,6
85953.0,2091,2412,2131,6
85954.0,2093,2424,2134,6
85955.0,2087,2431,2106,6
85956.0,2074,2481,1945,6
85957.0,2030,2516,1919,6
85958.0,2044,2509,2002,6
85959.0,2068,2496,2056,6
85960.0,2056,2516,2068,6
85961.0,2056,2562,2021,6
85962.0,2069,2577,1999,6
85963.0,2087,2565,2017,6
85964.0,2113,2571,2034,6
85965.0,2120,2602,2025,6
85966.0,2126,2669,2021,6
85967.0,2102,2720,2060,6
85968.0,2056,2726,2049,6
85969.0,2048,2751,2103,6
85970.0,2042,2720,2149,6
85971.0,2024,2607,2126,6
85972.0,2014,2541,2118,6
85973.0,2009,2519,2131,6
85974.0,2001,2527,2143,6
85975.0,2001,2525,2148,6
85976.0,1987,2533,2163,6
85977.0,1984,2526,2154,6
85978.0,1972,2545,2164,6
85979.0,1878,2556,2079,6
85980.0,1937,2611,2149,6
85981.0,1961,2546,2131,6
85982.0,1983,2486,2118,6
85983.0,2005,2445,2079,6
85984.0,2026,2431,2041,6
85985.0,2049,2435,2011,6
85986.0,2066,2422,2003,6
85987.0,2052,2386,2083,6
85988.0,2053,2392,2117,6
85989.0,2056,2407,2121,6
85990.0,2057,2427,2126,6
85991.0,2069,2445,2115,6
85992.0,2116,2501,1973,6
85993.0,2120,2523,1930,6
85994.0,2107,2498,2008,6
85995.0,2093,2490,2062,6
85996.0,2080,2523,2070,6
85997.0,2075,2552,2074,6
85998.0,2069,2622,2054,6
85999.0,2055,2744,2018,6
86250.0,2015,2353,2038,6
86251.0,2018,2346,2034,6
86252.0,2012,2341,2030,6
86253.0,2017,2353,2025,6
86254.0,2019,2355,2041,6
86255.0,2015,2351,2053,6
86256.0,2007,2347,2055,6
86257.0,2009,2338,2052,6
86258.0,2012,2346,2043,6
86259.0,2019,2353,2041,6
86260.0,2016,2355,2045,6
86261.0,2002,2346,2064,6
86262.0,2007,2351,2073,6
86263.0,2000,2361,2071,6
86264.0,2014,2353,2064,6
86265.0,2011,2390,2075,6
86266.0,2010,2380,2062,6
86267.0,2018,2375,2053,6
86268.0,2024,2352,2051,6
86269.0,2037,2359,2065,6
86270.0,2037,2323,2049,6
86271.0,2036,2289,2050,6
86272.0,2040,2306,2050,6
86273.0,2041,2325,2045,6
86274.0,2040,2335,2040,6
86275.0,2031,2351,2042,6
86276.0,2044,2358,2044,6
86277.0,2040,2355,2056,6
86278.0,2041,2340,2053,6
86279.0,2044,2343,2076,6
86280.0,2111,2346,1989,6
86281.0,2194,2351,1960,6
86282.0,2081,2326,2004,6
86283.0,2030,2347,2040,6
86284.0,2016,2350,2042,6
86285.0,2020,2354,2023,6
86286.0,2022,2368,2013,6
86287.0,2037,2365,2027,6
86288.0,2037,2359,2016,6
86289.0,2027,2352,2034,6
86290.0,2035,2339,2032,6
86291.0,2051,2353,2030,6
86292.0,2043,2347,2039,6
86293.0,2046,2346,2035,6
86294.0,2046,2342,2035,6
86295.0,2047,2337,2037,6
86296.0,2034,2344,2036,6
86297.0,2028,2344,2033,6
86298.0,2030,2344,2034,6
86299.0,2028,2345,2028,6
86300.0,2030,2344,2024,6
86301.0,2032,2340,2023,6
86302.0,2026,2337,2019,6
86303.0,2017,2330,2035,6
86304.0,2029,2341,2044,6
86305.0,2021,2345,2060,6
86306.0,2025,2347,2034,6
86307.0,2027,2362,2028,6
86308.0,2023,2352,2016,6
86309.0,2022,2356,2015,6
86310.0,2022,2353,2008,6
86311.0,2019,2345,2011,6
86312.0,2014,2337,2027,6
86313.0,2014,2339,2030,6
86314.0,2019,2344,2024,6
86315.0,2015,2355,2034,6
86316.0,2014,2355,2037,6
86317.0,2015,2356,2029,6
86318.0,2009,2361,2028,6
86319.0,2010,2360,2022,6
86320.0,2008,2358,2022,6
86321.0,2005,2360,2027,6
86322.0,2005,2349,2027,6
86323.0,2009,2342,2030,6
86324.0,2034,2347,2020,6
86325.0,2023,2348,2019,6
86326.0,2004,2361,2024,6
86327.0,1998,2367,2030,6
86328.0,1998,2362,2033,6
86329.0,1996,2360,2025,6
86330.0,2003,2361,2023,6
86331.0,2004,2353,2024,6
86332.0,2005,2359,2023,6
86333.0,2011,2347,2024,6
86334.0,2006,2350,2035,6
86335.0,2010,2355,2034,6
86336.0,2008,2348,2040,6
86337.0,2004,2350,2029,6
86338.0,2008,2357,2030,6
86339.0,1999,2353,2027,6
86340.0,1996,2355,2025,6
86341.0,1994,2356,2025,6
86342.0,2000,2355,2026,6
86343.0,1996,2357,2025,6
86344.0,1997,2359,2029,6
86345.0,1998,2365,2031,6
86346.0,1995,2356,2031,6
86347.0,1992,2356,2032,6
86348.0,1999,2363,2034,6
86349.0,1999,2359,2036,6
86350.0,2003,2362,2029,6
86351.0,2003,2351,2036,6
86352.0,2001,2348,2035,6
86353.0,2005,2353,2040,6
86354.0,1997,2355,2043,6
86355.0,2002,2353,2034,6
86356.0,2004,2355,2035,6
86357.0,2002,2358,2038,6
86358.0,2002,2357,2035,6
86359.0,2007,2357,2037,6
86360.0,2013,2353,2026,6
86361.0,2016,2355,2029,6
86362.0,2010,2354,2030,6
86363.0,2010,2357,2034,6
86364.0,2011,2356,2039,6
86365.0,2008,2355,2037,6
86366.0,2011,2355,2036,6
86367.0,2007,2354,2041,6
86368.0,2009,2354,2042,6
86369.0,2013,2359,2043,6
86370.0,2017,2359,2047,6
86371.0,2010,2349,2046,6
86372.0,2003,2346,2041,6
86373.0,2006,2346,2039,6
86374.0,2007,2347,2045,6
86375.0,1998,2358,2044,6
86376.0,2005,2354,2046,6
86377.0,2006,2345,2043,6
86378.0,2009,2362,2041,6
86379.0,2007,2357,2049,6
86380.0,2005,2349,2040,6
86381.0,2006,2356,2038,6
86382.0,2003,2347,2038,6
86383.0,2012,2354,2045,6
86384.0,2008,2351,2044,6
86385.0,2015,2350,2046,6
86386.0,2007,2348,2045,6
86387.0,2012,2353,2043,6
86388.0,2010,2343,2040,6
86389.0,2003,2346,2046,6
86390.0,2007,2351,2046,6
86391.0,2007,2347,2046,6
86392.0,2005,2351,2049,6
86393.0,2012,2349,2047,6
86394.0,2009,2347,2051,6
86395.0,2001,2352,2044,6
86396.0,2008,2343,2043,6
86397.0,2013,2349,2041,6
86398.0,2003,2338,2038,6
86399.0,2010,2344,2027,6
86400.0,2005,2340,2029,6
86401.0,2005,2357,2030,6
86402.0,2005,2367,2037,6
86403.0,2010,2367,2031,6
86404.0,2014,2366,2034,6
86405.0,2020,2358,2031,6
86406.0,2021,2346,2031,6
86407.0,2021,2347,2034,6
86408.0,2030,2354,2040,6
86409.0,2023,2339,2044,6
86410.0,2011,2346,2040,6
86411.0,2017,2343,2036,6
86412.0,2008,2352,2037,6
86413.0,2008,2348,2032,6
86414.0,2006,2358,2030,6
86415.0,2005,2368,2026,6
86416.0,2002,2374,2033,6
86417.0,2001,2364,2025,6
86418.0,2014,2360,2022,6
86419.0,2012,2356,2023,6
86420.0,2022,2347,2030,6
86421.0,2022,2354,2035,6
86422.0,2025,2345,2042,6
86423.0,2023,2340,2037,6
86424.0,2021,2349,2038,6
86425.0,2014,2354,2035,6
86426.0,2016,2353,2038,6
86427.0,2008,2359,2035,6
86428.0,2007,2355,2028,6
86429.0,2006,2349,2035,6
86430.0,2021,2360,2043,6
86431.0,2013,2346,2039,6
86432.0,2013,2347,2042,6
86433.0,2011,2345,2042,6
86434.0,2016,2350,2042,6
86435.0,2013,2352,2038,6
86436.0,2006,2344,2040,6
86437.0,2011,2351,2036,6
86438.0,2010,2346,2039,6
86439.0,2008,2329,2036,6
86440.0,2006,2343,2042,6
86441.0,2006,2339,2039,6
86442.0,2003,2356,2034,6
86443.0,2003,2365,2031,6
86444.0,2011,2359,2025,6
86445.0,1999,2372,2025,6
86446.0,2015,2376,2005,6
86447.0,2003,2367,2011,6
86448.0,1999,2370,2026,6
86449.0,1999,2360,2031,6
86450.0,2003,2332,2037,6
86451.0,2004,2348,2048,6
86452.0,2014,2343,2053,6
86453.0,2015,2343,2050,6
86454.0,2010,2346,2060,6
86455.0,2005,2352,2055,6
86456.0,2001,2349,2057,6
86457.0,2009,2345,2057,6
86458.0,2005,2353,2046,6
86459.0,2001,2350,2046,6
86460.0,2004,2345,2036,6
86461.0,2004,2357,2032,6
86462.0,2007,2360,2035,6
86463.0,2013,2363,2032,6
86464.0,2024,2362,1983,6
86465.0,2017,2376,2016,6
86466.0,2009,2359,2021,6
86467.0,2002,2355,2022,6
86468.0,2022,2356,2058,6
86469.0,2013,2341,2045,6
86470.0,2007,2359,2043,6
86471.0,2003,2340,2051,6
86472.0,2011,2345,2057,6
86473.0,2012,2347,2053,6
86474.0,2014,2354,2051,6
86475.0,2013,2345,2048,6
86476.0,2009,2342,2049,6
86477.0,2007,2333,2046,6
86478.0,2017,2346,2041,6
86479.0,2019,2359,2036,6
86480.0,2025,2370,1974,6
86481.0,2024,2362,2021,6
86482.0,2016,2348,2028,6
86483.0,2011,2351,2032,6
86484.0,2012,2359,2043,6
86485.0,2012,2353,2038,6
86486.0,2011,2353,2051,6
86487.0,2011,2347,2044,6
86488.0,2018,2350,2039,6
86489.0,2019,2344,2040,6
86490.0,2019,2340,2039,6
86491.0,2025,2348,2033,6
86492.0,2016,2350,2044,6
86493.0,2015,2357,2042,6
86494.0,2016,2339,2034,6
86495.0,2021,2344,2037,6
86496.0,2026,2356,2037,6
86497.0,2020,2357,2035,6
86498.0,2017,2341,2027,6
86499.0,2019,2332,2030,6
86500.0,2020,2338,2033,6
86501.0,2024,2365,2032,6
86502.0,2025,2367,2030,6
86503.0,2021,2352,2025,6
86504.0,2020,2351,2031,6
86505.0,2011,2358,2039,6
86506.0,2013,2360,2032,6
86507.0,2017,2359,2037,6
86508.0,2014,2352,2031,6
86509.0,2010,2355,2030,6
86510.0,2016,2356,2032,6
86511.0,2015,2353,2040,6
86512.0,2017,2345,2048,6
86513.0,2030,2353,2048,6
86514.0,2022,2343,2049,6
86515.0,2024,2345,2044,6
86516.0,2017,2345,2031,6
86517.0,2020,2346,2027,6
86518.0,2024,2343,2027,6
86519.0,2021,2353,2035,6
86520.0,2023,2358,2032,6
86521.0,2015,2353,2030,6
86522.0,2014,2355,2026,6
86523.0,2020,2357,2024,6
86524.0,2018,2350,2027,6
86525.0,2021,2356,2026,6
86526.0,2017,2350,2030,6
86527.0,2024,2355,2035,6
86528.0,2019,2357,2043,6
86529.0,2019,2350,2041,6
86530.0,2034,2340,2033,6
86531.0,2034,2341,2035,6
86532.0,2035,2345,2035,6
86533.0,2024,2347,2039,6
86534.0,2016,2354,2040,6
86535.0,2018,2347,2033,6
86536.0,2015,2356,2027,6
86537.0,2011,2349,2033,6
86538.0,2015,2360,2029,6
86539.0,2014,2362,2026,6
86540.0,2013,2359,2025,6
86541.0,2011,2361,2035,6
86542.0,2008,2353,2033,6
86543.0,2012,2343,2040,6
86544.0,2017,2339,2035,6
86545.0,2018,2342,2044,6
86546.0,2012,2347,2045,6
86547.0,2021,2352,2046,6
86548.0,2016,2351,2041,6
86549.0,2015,2356,2036,6
86550.0,2016,2353,2035,6
86551.0,2010,2360,2028,6
86552.0,2009,2355,2026,6
86553.0,2009,2356,2026,6
86554.0,2006,2359,2030,6
86555.0,2001,2354,2027,6
86556.0,2011,2359,2032,6
86557.0,2016,2351,2027,6
86558.0,2015,2359,2032,6
86559.0,2005,2351,2038,6
86560.0,2004,2346,2037,6
86561.0,2012,2338,2034,6
86562.0,2011,2328,2037,6
86563.0,2008,2333,2038,6
86564.0,2023,2338,2042,6
86565.0,2027,2346,2030,6
86566.0,2038,2372,2033,6
86567.0,2031,2367,2021,6
86568.0,2022,2365,2020,6
86569.0,2009,2369,2026,6
86570.0,2009,2364,2030,6
86571.0,2000,2372,2035,6
86572.0,2002,2364,2032,6
86573.0,2003,2355,2037,6
86574.0,2005,2342,2032,6
86575.0,2016,2333,2034,6
86576.0,2015,2322,2036,6
86577.0,2013,2321,2048,6
86578.0,2020,2339,2045,6
86579.0,2028,2366,2027,6
86580.0,2022,2370,2015,6
86581.0,2012,2356,2018,6
86582.0,1998,2356,2021,6
86583.0,1991,2347,2023,6
86584.0,1984,2329,2020,6
86585.0,1990,2337,2034,6
86586.0,1999,2362,2040,6
86587.0,2010,2375,2044,6
86588.0,2003,2363,2049,6
86589.0,2011,2355,2049,6
86590.0,2009,2355,2049,6
86591.0,2008,2335,2055,6
86592.0,2013,2331,2059,6
86593.0,2019,2357,2053,6
86594.0,2012,2371,2052,6
86595.0,2003,2359,2044,6
86596.0,1996,2341,2038,6
86597.0,1995,2346,2029,6
86598.0,1999,2343,2027,6
86599.0,2003,2328,2015,6
86600.0,2014,2333,2015,6
86601.0,2040,2360,1980,6
86602.0,2013,2387,2026,6
86603.0,2011,2393,2031,6
86604.0,2001,2357,2029,6
86605.0,2002,2343,2037,6
86606.0,2009,2347,2042,6
86607.0,2017,2352,2038,6
86608.0,2020,2343,2046,6
86609.0,2015,2329,2039,6
86610.0,2017,2317,2034,6
86611.0,2025,2341,2042,6
86612.0,2035,2358,2041,6
86613.0,2036,2374,2015,6
86614.0,2034,2372,2017,6
86615.0,2024,2363,2022,6
86616.0,2019,2353,2029,6
86617.0,2012,2333,2008,6
86618.0,2015,2338,2016,6
86619.0,2017,2357,2028,6
86620.0,2025,2374,2013,6
86621.0,2030,2372,2001,6
86622.0,2037,2367,2011,6
86623.0,2033,2368,2022,6
86624.0,2029,2346,2031,6
86625.0,2042,2342,2027,6
86626.0,2039,2320,2026,6
86627.0,2049,2323,2034,6
86628.0,2059,2340,2036,6
86629.0,2052,2355,2036,6
86630.0,2052,2368,2032,6
86631.0,2036,2357,2022,6
86632.0,2022,2336,2022,6
86633.0,2010,2314,2025,6
86634.0,2017,2326,2027,6
86635.0,2040,2339,2024,6
86636.0,2083,2362,2023,6
86637.0,2078,2358,2024,6
86638.0,2057,2337,2023,6
86639.0,2046,2341,2022,6
86640.0,2040,2360,2017,6
86641.0,2040,2371,2015,6
86642.0,2034,2369,2003,6
86643.0,2022,2367,1992,6
86644.0,2022,2369,1991,6
86645.0,2026,2376,1992,6
86646.0,2026,2373,2002,6
86647.0,2023,2394,2027,6
86648.0,2030,2390,2046,6
86649.0,2031,2348,2043,6
86650.0,2030,2325,2049,6
86651.0,2031,2329,2059,6
86652.0,2037,2339,2067,6
86653.0,2034,2310,2066,6
86654.0,2042,2312,2075,6
86655.0,2042,2323,2081,6
86656.0,2042,2326,2064,6
86657.0,2045,2317,2059,6
86658.0,2055,2334,2052,6
86659.0,2106,2339,1973,6
86660.0,2040,2327,2026,6
86661.0,2031,2376,2027,6
86662.0,2015,2363,1997,6
86663.0,2007,2359,1976,6
86664.0,2005,2368,1985,6
86665.0,2003,2372,1987,6
86666.0,2000,2366,2001,6
86667.0,2007,2359,2019,6
86668.0,2018,2363,2026,6
86669.0,2025,2358,2026,6
86670.0,2033,2352,2035,6
86671.0,2037,2347,2046,6
86672.0,2038,2355,2054,6
86673.0,2034,2346,2055,6
86674.0,2036,2342,2051,6
86675.0,2035,2343,2043,6
86676.0,2032,2344,2043,6
86677.0,2024,2340,2040,6
86678.0,2041,2345,2034,6
86679.0,2038,2355,2033,6
86680.0,2028,2362,2026,6
86681.0,2026,2363,2033,6
86682.0,2018,2357,2022,6
86683.0,2024,2360,2028,6
86684.0,2039,2330,2028,6
86685.0,2062,2335,2030,6
86686.0,2033,2341,2041,6
86687.0,2033,2343,2045,6
86688.0,2044,2343,2052,6
86689.0,2049,2345,2051,6
86690.0,2037,2347,2041,6
86691.0,2040,2349,2040,6
86692.0,2037,2347,2041,6
86693.0,2041,2339,2042,6
86694.0,2045,2334,2035,6
86695.0,2048,2350,2030,6
86696.0,2045,2349,2029,6
86697.0,2043,2357,2024,6
86698.0,2035,2361,2021,6
86699.0,2036,2352,2019,6
86700.0,2038,2348,2017,6
86701.0,2036,2351,2019,6
86702.0,2036,2359,2026,6
86703.0,2042,2348,2028,6
86704.0,2042,2347,2033,6
86705.0,2043,2347,2032,6
86706.0,2038,2341,2033,6
86707.0,2048,2341,2035,6
86708.0,2041,2339,2038,6
86709.0,2038,2339,2032,6
86710.0,2037,2340,2033,6
86711.0,2041,2347,2034,6
86712.0,2036,2347,2028,6
86713.0,2040,2352,2027,6
86714.0,2036,2346,2024,6
86715.0,2029,2347,2021,6
86716.0,2027,2349,2023,6
86717.0,2033,2347,2022,6
86718.0,2040,2346,2020,6
86719.0,2038,2345,2021,6
86720.0,2037,2347,2025,6
86721.0,2033,2349,2028,6
86722.0,2041,2339,2034,6
86723.0,2045,2346,2027,6
86724.0,2040,2350,2032,6
86725.0,2031,2358,2029,6
86726.0,2034,2346,2030,6
86727.0,2039,2342,2030,6
86728.0,2021,2336,2035,6
86729.0,2028,2344,2036,6
86730.0,2026,2357,2040,6
86731.0,2029,2377,2045,6
86732.0,2027,2378,2038,6
86733.0,2031,2365,2033,6
86734.0,2026,2345,2029,6
86735.0,2032,2336,2032,6
86736.0,2038,2343,2027,6
86737.0,2036,2341,2034,6
86738.0,2044,2354,2037,6
86739.0,2057,2358,2034,6
86740.0,2061,2359,2038,6
86741.0,2062,2359,2034,6
86742.0,2053,2337,2040,6
86743.0,2047,2328,2046,6
86744.0,2045,2330,2048,6
86745.0,2043,2339,2054,6
86746.0,2050,2353,2053,6
86747.0,2046,2361,2053,6
86748.0,2042,2351,2054,6
86749.0,2038,2346,2051,6
86750.0,2036,2357,2051,6
86751.0,2036,2343,2051,6
86752.0,2031,2335,2047,6
86753.0,2037,2344,2054,6
86754.0,2042,2352,2047,6
86755.0,2044,2349,2051,6
86756.0,2042,2347,2051,6
86757.0,2045,2344,2046,6
86758.0,2042,2335,2053,6
86759.0,2036,2342,2048,6
86760.0,2040,2341,2051,6
86761.0,2042,2338,2044,6
86762.0,2043,2342,2045,6
86763.0,2039,2344,2047,6
86764.0,2040,2338,2046,6
86765.0,2038,2351,2045,6
86766.0,2049,2342,2053,6
86767.0,2041,2343,2046,6
86768.0,2043,2349,2053,6
86769.0,2049,2346,2052,6
86770.0,2044,2343,2050,6
86771.0,2041,2344,2055,6
86772.0,2035,2342,2052,6
86773.0,2030,2338,2050,6
86774.0,2038,2337,2053,6
86775.0,2038,2334,2052,6
86776.0,2043,2343,2045,6
86777.0,2042,2342,2054,6
86778.0,2033,2347,2049,6
86779.0,2035,2350,2047,6
86780.0,2034,2346,2043,6
86781.0,2031,2346,2042,6
86782.0,2043,2335,2052,6
86783.0,2036,2347,2052,6
86784.0,2041,2345,2055,6
86785.0,2037,2351,2057,6
86786.0,2040,2347,2052,6
86787.0,2033,2345,2052,6
86788.0,2035,2341,2045,6
86789.0,2039,2345,2047,6
86790.0,2044,2347,2048,6
86791.0,2048,2350,2044,6
86792.0,2047,2349,2043,6
86793.0,2041,2350,2046,6
86794.0,2038,2347,2043,6
86795.0,2043,2347,2048,6
86796.0,2037,2346,2049,6
86797.0,2031,2339,2048,6
86798.0,2035,2351,2046,6
86799.0,2036,2347,2045,6
86800.0,2046,2343,2043,6
86801.0,2035,2346,2045,6
86802.0,2037,2347,2043,6
86803.0,2046,2354,2044,6
86804.0,2046,2352,2046,6
86805.0,2042,2348,2039,6
86806.0,2038,2350,2038,6
86807.0,2040,2342,2045,6
86808.0,2039,2341,2047,6
86809.0,2044,2343,2053,6
86810.0,2042,2341,2049,6
86811.0,2040,2346,2052,6
86812.0,2037,2341,2052,6
86813.0,2040,2342,2048,6
86814.0,2042,2343,2056,6
86815.0,2049,2350,2051,6
86816.0,2043,2361,2045,6
86817.0,2036,2341,2041,6
86818.0,2039,2341,2044,6
86819.0,2043,2342,2046,6
86820.0,2040,2349,2055,6
86821.0,2037,2353,2051,6
86822.0,2040,2346,2052,6
86823.0,2049,2355,2055,6
86824.0,2051,2356,2053,6
86825.0,2041,2357,2052,6
86826.0,2048,2347,2052,6
86827.0,2047,2344,2058,6
86828.0,2041,2349,2058,6
86829.0,2039,2351,2057,6
86830.0,2044,2345,2062,6
86831.0,2043,2333,2052,6
86832.0,2042,2344,2047,6
86833.0,2045,2352,2048,6
86834.0,2051,2371,2048,6
86835.0,2054,2386,2040,6
86836.0,2053,2403,2035,6
86837.0,2051,2389,2025,6
86838.0,2028,2338,2023,6
86839.0,2015,2312,2021,6
86840.0,2011,2319,2036,6
86841.0,2025,2342,2054,6
86842.0,2034,2348,2068,6
86843.0,2041,2339,2077,6
86844.0,2038,2329,2079,6
86845.0,2042,2328,2078,6
86846.0,2041,2327,2080,6
86847.0,2045,2335,2078,6
86848.0,2047,2333,2081,6
86849.0,2040,2338,2072,6
86850.0,2047,2339,2067,6
86851.0,2039,2346,2062,6
86852.0,2048,2359,2057,6
86853.0,2039,2362,2043,6
86854.0,2038,2369,2019,6
86855.0,2031,2371,2009,6
86856.0,2033,2355,1991,6
86857.0,2038,2355,1983,6
86858.0,2040,2347,1987,6
86859.0,2050,2343,2006,6
86860.0,2050,2352,2027,6
86861.0,2059,2360,2046,6
86862.0,2054,2358,2059,6
86863.0,2066,2349,2130,6
86864.0,2043,2339,2091,6
86865.0,2040,2337,2068,6
86866.0,2048,2351,2071,6
86867.0,2046,2351,2075,6
86868.0,2045,2340,2076,6
86869.0,2040,2335,2070,6
86870.0,2028,2342,2057,6
86871.0,2028,2345,2056,6
86872.0,2030,2347,2054,6
86873.0,2025,2347,2051,6
86874.0,2028,2342,2045,6
86875.0,2035,2363,2049,6
86876.0,2035,2355,2046,6
86877.0,2040,2352,2042,6
86878.0,2036,2351,2051,6
86879.0,2048,2341,2050,6
86880.0,2044,2341,2049,6
86881.0,2048,2340,2048,6
86882.0,2054,2345,2050,6
86883.0,2057,2349,2051,6
86884.0,2055,2342,2058,6
86885.0,2069,2336,2063,6
86886.0,2044,2339,2061,6
86887.0,2031,2339,2057,6
86888.0,2035,2341,2049,6
86889.0,2033,2343,2050,6
86890.0,2031,2349,2051,6
86891.0,2031,2355,2047,6
86892.0,2031,2363,2050,6
86893.0,2028,2356,2045,6
86894.0,2019,2335,2044,6
86895.0,2023,2343,2051,6
86896.0,2027,2344,2057,6
86897.0,2027,2340,2054,6
86898.0,2041,2346,2063,6
86899.0,2037,2339,2058,6
86900.0,2036,2341,2061,6
86901.0,2058,2341,2049,6
86902.0,2055,2341,2049,6
86903.0,2037,2346,2048,6
86904.0,2027,2359,2045,6
86905.0,2022,2347,2043,6
86906.0,2019,2351,2038,6
86907.0,2037,2358,2031,6
86908.0,2060,2348,2022,6
86909.0,2039,2353,2037,6
86910.0,2034,2345,2049,6
86911.0,2033,2347,2043,6
86912.0,2032,2347,2051,6
86913.0,2039,2350,2050,6
86914.0,2045,2339,2050,6
86915.0,2039,2344,2053,6
86916.0,2034,2349,2047,6
86917.0,2038,2351,2047,6
86918.0,2039,2347,2044,6
86919.0,2038,2350,2045,6
86920.0,2039,2347,2040,6
86921.0,2043,2350,2042,6
86922.0,2048,2343,2042,6
86923.0,2043,2343,2042,6
86924.0,2046,2349,2043,6
86925.0,2049,2342,2043,6
86926.0,2039,2349,2047,6
86927.0,2039,2344,2045,6
86928.0,2041,2343,2047,6
86929.0,2042,2348,2040,6
86930.0,2038,2351,2041,6
86931.0,2041,2345,2039,6
86932.0,2043,2341,2034,6
86933.0,2041,2341,2039,6
86934.0,2041,2347,2041,6
86935.0,2045,2349,2039,6
86936.0,2049,2348,2044,6
86937.0,2038,2331,2043,6
