user-id,timestamp,accX,accY,accZ,ActivityEncoded
17,57869902574000,0.5720546,9.80665,-0.53119355,5
17,57870012316000,-0.0,10.18802,-0.5720546,5
17,57870122301000,-0.23154591,9.847511,-0.6946377,5
17,57870222246000,0.14982383,10.079058,-0.50395286,5
17,57870332292000,0.14982383,10.147159,-0.61291564,5
17,57870442278000,0.61291564,9.956474,-0.6946377,5
17,57870542253000,0.10896278,9.997335,-0.50395286,5
17,57870592333000,-0.10896278,10.038197,-0.53119355,5
17,57870702288000,-0.08172209,10.119919,-0.38136974,5
17,57870812303000,0.313268,9.997335,-0.61291564,5
17,57870912248000,0.3405087,9.997335,-0.5720546,5
17,57871012224000,0.38136974,10.079058,-0.53119355,5
17,57871122270000,0.27240697,10.038197,-0.50395286,5
17,57871222399000,0.38136974,9.997335,-0.61291564,5
17,57871332292000,0.50395286,10.038197,-0.61291564,5
17,57871442308000,0.46309182,9.997335,-0.42223078,5
17,57871542284000,0.50395286,9.997335,-0.42223078,5
17,57871652300000,0.38136974,9.997335,-0.3405087,5
17,57871762316000,0.313268,9.956474,-0.38136974,5
17,57871872270000,0.53119355,9.956474,-0.42223078,5
17,57871982317000,0.53119355,9.956474,-0.040861044,5
17,57872032152000,0.5720546,10.038197,-0.23154591,5
17,57872142290000,0.38136974,9.997335,-0.3405087,5
17,57872252336000,0.46309182,10.038197,-0.23154591,5
17,57872352281000,0.6946377,9.997335,-0.29964766,5
17,57872402422000,0.50395286,9.997335,-0.3405087,5
17,57872512285000,0.53119355,9.956474,-0.3405087,5
17,57872622301000,0.46309182,10.038197,-0.08172209,5
17,57872732286000,0.42223078,10.038197,-0.19068487,5
17,57872842302000,0.42223078,9.997335,-0.27240697,5
17,57872952318000,0.3405087,9.956474,-0.23154591,5
17,57873052294000,0.46309182,9.956474,-0.23154591,5
17,57873162279000,0.53119355,9.997335,-0.23154591,5
17,57873332323000,0.50395286,9.997335,-0.29964766,5
17,57873392259000,0.27240697,10.079058,-0.46309182,5
17,57873502275000,0.23154591,10.038197,-0.50395286,5
17,57873612261000,0.50395286,9.997335,-0.0,5
17,57873722307000,0.19068487,10.18802,0.23154591,5
17,57873832292000,-0.08172209,10.991621,1.5390993,5
17,57873932237000,-0.10896278,10.228881,2.4925237,5
17,57874032274000,1.4573772,8.539958,2.2201166,5
17,57874142290000,1.5390993,7.8861814,2.3018389,5
17,57874252306000,2.4108016,8.580819,2.9556155,5
17,57874362261000,3.7864566,9.615966,2.9556155,5
17,57874472307000,2.5606253,8.499097,1.9477097,5
17,57874582292000,1.5390993,12.721405,1.9477097,5
17,57874692308000,1.7297841,8.281172,-0.61291564,5
17,57874802294000,0.84446156,9.466142,-1.7297841,5
17,57874902239000,0.08172209,9.956474,-0.6946377,5
17,57875002275000,2.070293,9.384419,-0.9942854,5
17,57875112291000,2.3699405,9.234595,-0.6537767,5
17,57875212267000,2.8330324,9.466142,-1.3075534,5
17,57875272295000,2.6423476,11.304889,-0.7218784,5
17,57875372362000,2.9556155,11.836082,-1.6889231,5
17,57875482347000,-0.040861044,13.593107,-2.5333846,5
17,57875542284000,1.4165162,10.882658,0.8036005,5
17,57875652300000,2.0294318,5.938472,1.1849703,5
17,57875762316000,-0.08172209,3.445948,2.3426998,5
17,57875872301000,0.53119355,11.182305,6.510526,5
17,57875982317000,1.1849703,11.686258,-0.5720546,5
17,57876092302000,3.214402,9.80665,-2.7513103,5
17,57876202318000,0.53119355,8.281172,-0.27240697,5
17,57876312303000,1.2666923,9.425281,-0.95342433,5
17,57876412279000,4.944186,9.575105,-0.6946377,5
17,57876462358000,7.1234417,12.299174,0.50395286,5
17,57876562273000,0.23154591,11.073342,-1.7570249,5
17,57876672289000,0.7627395,14.750836,0.6537767,5
17,57876782305000,1.879608,3.8681788,-1.0351465,5
17,57876892290000,0.10896278,3.7864566,2.5606253,5
17,57876992266000,-0.84446156,12.639683,6.510526,5
17,57877102312000,2.8330324,11.34575,-0.46309182,5
17,57877212328000,3.568531,8.689782,-3.2961242,5
17,57877272203000,0.5720546,8.689782,0.313268,5
17,57877382311000,2.0294318,7.7363577,-1.9885708,5
17,57877492296000,2.9147544,9.697687,-0.23154591,5
17,57877602312000,5.597963,14.859799,-1.7978859,5
17,57877712297000,-1.4165162,14.47843,-2.4108016,5
17,57877822313000,4.0588636,7.164303,-0.23154591,5
17,57877922289000,0.14982383,3.718355,0.9942854,5
17,57878032305000,4.7943625,15.595298,4.9850473,5
17,57878142290000,2.0294318,14.137921,-0.10896278,5
17,57878242296000,2.4108016,6.469665,-2.5606253,5
17,57878352312000,-0.8036005,8.19945,0.040861044,5
17,57878462297000,2.4108016,9.507003,-0.10896278,5
17,57878562273000,5.5162406,10.337844,-0.6946377,5
17,57878672289000,2.982856,12.598822,-2.2609777,5
17,57878782305000,1.0351465,14.628253,-1.2258313,5
17,57878892290000,1.8387469,4.8216033,-0.6946377,5
17,57878992266000,0.7627395,3.6774938,1.6480621,5
17,57879102312000,2.7921712,18.04696,6.469665,5
17,57879212297000,3.718355,12.489859,-3.255263,5
17,57879322313000,2.7649305,6.8237944,-3.759216,5
17,57879422319000,-0.10896278,6.973618,-0.61291564,5
17,57879532305000,2.1792557,9.043911,-0.27240697,5
17,57879642290000,7.1234417,11.264028,-0.29964766,5
17,57879752306000,-0.88532263,12.53072,-1.3756552,5
17,57879862291000,1.879608,12.639683,0.53119355,5
17,57879972307000,1.920469,2.9147544,-0.7218784,5
17,57880072313000,0.7627395,5.366417,2.7921712,5
17,57880182299000,0.6946377,13.525005,7.8180795,5
17,57880282976000,1.6889231,9.997335,-2.5606253,5
17,57880392290000,3.1054392,11.413852,-1.4982382,5
17,57880502306000,1.9885708,7.4639506,-2.4108016,5
17,57880612291000,5.434519,8.308413,-0.040861044,5
17,57880722307000,6.2789803,12.4489975,-0.10896278,5
17,57880772295000,2.3699405,13.375181,-2.8330324,5
17,57880872240000,0.14982383,15.322891,-2.8738933,5
17,57880982317000,3.3778462,6.851035,-0.61291564,5
17,57881092333000,0.7627395,3.5276701,0.7218784,5
17,57881202318000,7.273266,17.434046,5.9793324,5
17,57881312303000,0.8036005,13.143636,-2.7240696,5
17,57881412279000,0.9942854,5.7477865,-4.140586,5
17,57881462267000,3.445948,11.114203,-1.0760075,5
17,57881562273000,3.568531,7.6954966,-2.8330324,5
17,57881672289000,5.134871,8.471856,-0.6537767,5
17,57881782305000,6.4424243,12.067628,0.53119355,5
17,57881892290000,0.8036005,14.519291,-4.0180025,5
17,57882002306000,3.1463003,9.888372,-0.61291564,5
17,57882112291000,0.53119355,2.4108016,-1.1441092,5
17,57882212297000,3.336985,10.61025,5.366417,5
17,57882322313000,-0.10896278,12.830367,4.372132,5
17,57882422258000,-1.3075534,7.082581,-0.0,5
17,57882532335000,2.8330324,10.501288,-0.08172209,5
17,57882642290000,3.486809,8.281172,-1.6889231,5
17,57882752306000,4.3312707,9.152874,-0.040861044,5
17,57882862291000,5.2165933,14.09706,-2.070293,5
17,57882972307000,0.46309182,15.595298,-3.2961242,5
17,57883072344000,3.8273177,6.8237944,-0.29964766,5
17,57883182299000,0.38136974,3.214402,-0.19068487,5
17,57883292314000,4.7535014,16.548723,6.469665,5
17,57883392259000,2.0294318,13.184497,-2.1111538,5
17,57883502306000,1.0351465,4.399372,-3.7864566,5
17,57883612322000,-0.50395286,7.7363577,0.23154591,5
17,57883722307000,3.3778462,9.425281,0.42223078,5
17,57883832292000,5.938472,10.95076,-0.27240697,5
17,57883942308000,1.2258313,12.489859,-2.070293,5
17,57884042284000,2.2609777,13.715691,0.19068487,5
17,57884152300000,1.9885708,3.6774938,-1.3756552,5
17,57884262316000,0.84446156,5.175732,3.2961242,5
17,57884372301000,0.313268,14.410328,7.1234417,5
17,57884482317000,0.5720546,10.923519,-2.5606253,5
17,57884592302000,4.140586,10.732834,-0.10896278,5
17,57884702837000,2.152015,7.4639506,-2.5333846,5
17,57884812303000,5.434519,8.853226,-0.27240697,5
17,57884912248000,7.164303,13.021052,-0.23154591,5
17,57885012285000,-0.19068487,13.184497,-3.405087,5
17,57885062242000,0.6537767,15.132206,-2.070293,5
17,57885172289000,4.5628166,6.932757,-0.42223078,5
17,57885272264000,-0.46309182,4.0180025,0.95342433,5
17,57885382311000,4.671779,15.854085,6.0201936,5
17,57885492296000,1.0351465,12.4489975,-1.4165162,5
17,57885602312000,0.7218784,5.706926,-4.099725,5
17,57885712297000,0.61291564,6.3607025,-0.14982383,5
17,57885812303000,2.6832085,8.662541,0.19068487,5
17,57885912279000,6.0882955,10.56939,-0.3405087,5
17,57886022295000,3.336985,12.217452,-1.7978859,5
17,57886132311000,0.19068487,15.431854,-0.9125633,5
17,57886232286000,2.8738933,3.990762,-0.23154591,5
17,57886342302000,0.3405087,4.4810944,2.5333846,5
17,57886452318000,3.0237172,13.6748295,7.014479,5
17,57886552263000,1.879608,13.988097,-1.1849703,5
17,57886662310000,2.7649305,8.921328,-2.2609777,5
17,57886772295000,1.7570249,5.938472,-1.4982382,5
17,57886882311000,4.2086873,8.853226,-1.1441092,5
17,57886982317000,6.851035,12.217452,-0.27240697,5
17,57887082353000,0.50395286,12.217452,-1.7978859,5
17,57887192308000,1.607201,13.375181,0.42223078,5
17,57887302294000,2.0294318,3.718355,-0.7218784,5
17,57887402269000,1.607201,4.440233,2.7649305,5
17,57887512316000,1.5390993,14.369467,5.9793324,5
17,57887622301000,1.8387469,10.079058,-2.2609777,5
17,57887732317000,4.6036777,11.264028,-0.19068487,5
17,57887842302000,2.2609777,7.7772183,-2.3426998,5
17,57887952318000,4.099725,8.730643,-0.50395286,5
17,57888052263000,7.5865335,12.912089,-0.6946377,5
17,57888162279000,0.14982383,13.715691,-4.630918,5
17,57888272295000,2.4108016,8.689782,-0.7218784,5
17,57888382341000,1.920469,4.3312707,-0.23154591,5
17,57888492357000,3.6774938,9.302697,4.7535014,5
17,57888602312000,0.3405087,14.628253,2.6014864,5
17,57888712297000,0.8036005,7.3141265,-1.1849703,5
17,57888822313000,1.1849703,8.539958,-0.27240697,5
17,57888922289000,3.6774938,8.308413,-0.9125633,5
17,57889032335000,4.399372,9.697687,-0.19068487,5
17,57889142290000,5.284695,13.633968,-2.2201166,5
17,57889242235000,0.040861044,13.715691,-2.8738933,5
17,57889352312000,4.944186,6.891896,0.10896278,5
17,57889462297000,0.08172209,4.140586,1.2666923,5
17,57889562273000,6.782933,16.017529,5.706926,5
17,57889612139000,1.1168685,14.750836,6.4015636,5
17,57889722307000,-0.040861044,7.1234417,-1.879608,5
17,57889832292000,2.9147544,10.18802,0.7627395,5
17,57889932329000,3.214402,7.5865335,-2.4925237,5
17,57890042314000,5.366417,8.308413,-0.29964766,5
17,57890152300000,5.8976107,12.912089,-0.9942854,5
17,57890252306000,-0.95342433,14.437569,-3.636633,5
17,57890362291000,3.6774938,10.378705,0.42223078,5
17,57890472307000,1.0351465,3.568531,-0.50395286,5
17,57890572252000,1.6480621,7.3549876,3.486809,5
17,57890682299000,1.9885708,12.067628,5.47538,5
17,57890792314000,-0.53119355,7.5456724,0.6537767,5
17,57890902300000,2.8330324,9.956474,0.88532263,5
17,57891002306000,3.5957718,8.281172,-2.2609777,5
17,57891112291000,5.134871,8.390134,-0.38136974,5
17,57891222307000,6.0201936,13.184497,-0.9125633,5
17,57891332292000,-0.08172209,14.246883,-3.445948,5
17,57891432268000,3.486809,9.343558,-0.50395286,5
17,57891542314000,1.0351465,3.405087,-0.38136974,5
17,57891652300000,3.486809,8.580819,3.8681788,5
17,57891762377000,2.2201166,12.176591,2.5333846,5
17,57891872301000,-0.08172209,5.938472,-1.334794,5
17,57891982317000,1.2258313,8.662541,0.42223078,5
17,57892082262000,3.1463003,8.349273,-0.88532263,5
17,57892192308000,5.09401,9.234595,-0.6537767,5
17,57892302294000,4.5219555,13.797412,-2.7513103,5
17,57892402269000,0.9942854,14.519291,-2.8738933,5
17,57892512316000,4.4810944,7.0553403,-0.50395286,5
17,57892622301000,0.88532263,3.7864566,0.6946377,5
17,57892732317000,6.3607025,16.88923,5.706926,5
17,57892842302000,2.2609777,12.217452,-2.1792557,5
17,57892952349000,2.1792557,7.6954966,-4.372132,5
17,57893062303000,0.5720546,6.851035,-0.3405087,5
17,57893172319000,4.3312707,8.62168,0.08172209,5
17,57893282305000,5.366417,10.95076,-0.84446156,5
17,57893392290000,1.9885708,11.454713,-2.0294318,5
17,57893502306000,3.0645783,13.402422,0.61291564,5
17,57893612322000,1.6889231,3.990762,-0.9942854,5
17,57893722307000,1.8387469,4.9850473,2.6832085,5
17,57893832292000,2.4108016,12.258313,8.076866,5
17,57893932268000,1.334794,11.182305,-1.525479,5
17,57894042314000,4.944186,11.495573,-0.6537767,5
17,57894152300000,1.8387469,7.273266,-1.334794,5
17,57894252245000,4.099725,8.662541,-0.3405087,5
17,57894362291000,6.6331096,11.985906,0.10896278,5
17,57894472307000,0.53119355,13.525005,-1.7297841,5
17,57894572283000,2.4516625,11.264028,0.38136974,5
17,57894622270000,4.5628166,6.932757,-0.3405087,5
17,57894732317000,0.27240697,4.399372,0.53119355,5
17,57894842302000,6.932757,15.826844,5.325556,5
17,57894952349000,2.1111538,11.304889,-2.3699405,5
17,57895062303000,2.6832085,5.8976107,-4.399372,5
17,57895172289000,-0.53119355,7.3958488,0.27240697,5
17,57895272295000,3.255263,9.425281,0.46309182,5
17,57895382311000,4.8216033,10.337844,-0.84446156,5
17,57895492296000,2.6014864,11.727119,-1.2666923,5
17,57895592272000,2.3426998,13.947236,0.040861044,5
17,57895702318000,2.6423476,5.407278,-0.61291564,5
17,57895812303000,1.4982382,4.399372,2.5606253,5
17,57895912279000,5.053149,16.88923,5.053149,5
17,57896022295000,2.7921712,10.18802,-4.8216033,5
17,57896132311000,5.012288,10.228881,-1.920469,5
17,57896232286000,0.6537767,7.246025,-0.88532263,5
17,57896342302000,3.1054392,8.471856,-0.08172209,5
17,57896442308000,7.4639506,11.727119,-0.53119355,5
17,57896552294000,0.7627395,12.639683,-1.7570249,5
17,57896662310000,2.070293,12.598822,0.14982383,5
17,57896772295000,1.56634,2.6832085,-0.61291564,5
17,57896882311000,2.7240696,6.973618,3.173541,5
17,57896982317000,1.4573772,12.367276,6.0882955,5
17,57897082231000,-0.61291564,9.112013,-0.040861044,5
17,57897192308000,4.2086873,11.75436,-0.0,5
17,57897302294000,3.1463003,7.8180795,-2.3699405,5
17,57897412310000,4.7943625,8.349273,-0.3405087,5
17,57897522295000,7.3958488,13.593107,-0.9942854,5
17,57897632311000,-0.10896278,13.443283,-4.7943625,5
17,57897742296000,3.568531,8.008764,-0.23154591,5
17,57897852312000,0.6946377,4.7943625,0.7218784,5
17,57897962297000,8.308413,11.454713,6.4424243,5
17,57898072344000,0.92618364,11.536434,-1.6480621,5
17,57898182299000,2.7240696,6.510526,-4.2086873,5
17,57898292314000,-0.08172209,7.246025,-0.23154591,5
17,57898402300000,2.7240696,8.539958,-0.29964766,5
17,57898512316000,6.0474343,11.114203,-0.50395286,5
17,57898562181000,5.938472,13.906375,-1.607201,5
17,57898672411000,-0.08172209,14.056199,-5.09401,5
17,57898782305000,4.1814466,8.008764,-0.19068487,5
17,57898892290000,1.0760075,4.3312707,-0.0,5
17,57898992266000,4.2904096,12.53072,5.407278,5
17,57899092272000,3.2961242,11.454713,0.5720546,5
17,57899142351000,3.173541,11.686258,-2.6832085,5
17,57899242235000,2.9147544,9.956474,-2.9556155,5
17,57899352342000,0.8036005,7.273266,-1.3075534,5
17,57899462297000,4.440233,8.240311,-0.19068487,5
17,57899572313000,5.6660647,10.882658,-0.38136974,5
17,57899682299000,2.1792557,12.299174,-1.7978859,5
17,57899792314000,2.3018389,13.402422,0.53119355,5
17,57899902300000,2.070293,3.636633,-0.5720546,5
17,57900012346000,1.4573772,3.8681788,2.4108016,5
17,57900122301000,3.568531,15.050485,6.1700177,5
17,57900232317000,1.9477097,9.615966,-0.42223078,5
17,57900283495000,2.8738933,6.973618,-3.255263,5
17,57900392321000,-0.27240697,7.504812,0.08172209,5
17,57900502306000,2.4516625,8.308413,-0.42223078,5
17,57900602281000,4.630918,10.119919,-0.61291564,5
17,57900712297000,5.8976107,13.593107,-1.9477097,5
17,57900822313000,1.8387469,13.756551,-1.4982382,5
17,57900922228000,3.0237172,5.8976107,-0.7627395,5
17,57901032305000,0.53119355,5.053149,1.1441092,5
17,57901142290000,6.0201936,17.502148,6.2108784,5
17,57901242266000,2.0294318,12.721405,-1.920469,5
17,57901352312000,2.8738933,6.1700177,-3.255263,5
17,57901462297000,0.08172209,7.205164,-0.7218784,5
17,57901572313000,3.445948,8.812365,-0.95342433,5
17,57901682299000,6.0882955,10.991621,-0.27240697,5
17,57901792314000,-0.42223078,12.258313,-0.9125633,5
17,57901902300000,2.2201166,14.437569,0.10896278,5
17,57902002275000,2.4108016,4.2086873,-0.19068487,5
17,57902102312000,1.3756552,4.8216033,2.4516625,5
17,57902212328000,6.8237944,13.906375,6.0882955,5
17,57902322313000,3.2961242,12.217452,-1.7570249,5
17,57902422258000,3.718355,10.228881,-3.0237172,5
17,57902532305000,0.8036005,7.4639506,-0.46309182,5
17,57902642290000,3.0645783,9.043911,0.14982383,5
17,57902752306000,5.6660647,10.528529,-1.1849703,5
17,57902862291000,2.3018389,11.876944,-2.070293,5
17,57902972338000,3.255263,13.102775,0.14982383,5
17,57903082292000,2.9556155,4.8216033,-0.38136974,5
17,57903192308000,0.9942854,4.2904096,2.152015,5
17,57903302294000,4.4810944,14.1787815,6.973618,5
17,57903412310000,1.879608,10.800936,-1.56634,5
17,57903522295000,4.944186,11.563675,-0.61291564,5
17,57903632311000,2.0294318,7.8861814,-1.3075534,5
17,57903742357000,3.568531,8.349273,0.3405087,5
17,57903802263000,6.0201936,9.80665,-1.3756552,5
17,57903912310000,3.8273177,12.912089,-2.6014864,5
17,57904022295000,1.1849703,14.015338,-1.3756552,5
17,57904132311000,3.8273177,5.706926,-0.29964766,5
17,57904242296000,1.0351465,3.9090397,1.56634,5
17,57904352312000,6.3198414,15.091345,4.7535014,5
17,57904462297000,2.982856,12.639683,-1.1168685,5
17,57904572313000,3.5957718,9.765789,-2.7921712,5
17,57904682299000,0.50395286,7.014479,-1.0351465,5
17,57904792314000,3.990762,8.390134,0.313268,5
17,57904902300000,6.3607025,12.258313,-0.27240697,5
17,57905002306000,0.42223078,13.824653,-2.4925237,5
17,57905102312000,2.9556155,11.114203,1.1168685,5
17,57905212297000,1.7297841,3.8273177,-0.6946377,5
17,57905322313000,1.1849703,5.053149,2.5606253,5
17,57905422289000,4.1814466,13.021052,7.0553403,5
17,57905532305000,2.8738933,11.563675,-1.3756552,5
17,57905642290000,3.9499009,11.795221,-0.38136974,5
17,57905752306000,2.6014864,7.205164,-2.3018389,5
17,57905862322000,4.944186,7.9679036,-0.10896278,5
17,57905972307000,6.5922484,13.0619135,-1.1849703,5
17,57906082292000,-0.9125633,14.246883,-3.8681788,5
17,57906192339000,4.630918,9.00305,-0.50395286,5
17,57906292253000,1.2666923,3.445948,-0.42223078,5
17,57906402300000,2.9147544,9.302697,5.09401,5
17,57906512316000,3.0237172,10.882658,2.2201166,5
17,57906612291000,-0.08172209,6.4424243,-0.9942854,5
17,57906722368000,2.2609777,9.234595,0.50395286,5
17,57906832292000,4.0180025,8.281172,-2.070293,5
17,57906882280000,3.5957718,8.580819,0.10896278,5
17,57906982347000,6.4015636,10.991621,-0.7218784,5
17,57907082323000,2.5333846,12.217452,-2.4516625,5
17,57907192339000,1.8387469,14.137921,-0.6946377,5
17,57907302324000,3.1463003,5.243834,-0.42223078,5
17,57907352190000,1.3756552,3.759216,-0.29964766,5
17,57907452318000,3.8681788,8.539958,4.7943625,5
17,57907562303000,1.1849703,10.732834,4.7943625,5
17,57907672289000,0.50395286,7.1234417,-0.84446156,5
17,57907782305000,2.1111538,10.079058,0.42223078,5
17,57907892290000,4.399372,8.076866,-1.920469,5
17,57908002306000,4.6036777,9.00305,-0.27240697,5
17,57908102281000,5.5162406,13.6748295,-1.9477097,5
17,57908212297000,-0.19068487,14.369467,-4.372132,5
17,57908322313000,4.9850473,8.049625,-0.23154591,5
17,57908422289000,1.1849703,4.5219555,0.19068487,5
17,57908472277000,1.4165162,4.4810944,2.3018389,5
17,57908582292000,4.2904096,15.322891,5.7477865,5
17,57908692308000,2.070293,12.299174,-1.1849703,5
17,57908802294000,3.5957718,10.460427,-1.0760075,5
17,57908912340000,1.4573772,7.504812,-1.2666923,5
17,57909012316000,4.2495484,8.853226,0.08172209,5
17,57909112322000,5.407278,11.141444,-0.8036005,5
17,57909222307000,2.3426998,11.495573,-1.6889231,5
17,57909332292000,2.8330324,12.639683,1.1441092,5
17,57909432299000,2.7240696,4.7126403,-0.29964766,5
17,57909542314000,1.1441092,4.5219555,2.4108016,5
17,57909652300000,3.255263,15.935807,7.164303,5
17,57909762316000,1.2666923,10.923519,-2.4108016,5
17,57909872301000,4.671779,10.882658,-0.5720546,5
17,57909982347000,1.7297841,7.082581,-1.7297841,5
17,57910092302000,3.990762,8.962189,0.08172209,5
17,57910202318000,7.082581,12.789507,-0.38136974,5
17,57910302263000,-0.84446156,14.328606,-4.0588636,5
17,57910412310000,4.1814466,10.038197,0.313268,5
17,57910522295000,1.3075534,2.8738933,-0.6537767,5
17,57910622331000,2.6832085,7.8180795,4.0588636,5
17,57910732317000,0.7218784,13.0619135,5.8976107,5
17,57910842302000,1.6480621,8.499097,-0.6946377,5
17,57910942278000,1.4165162,8.771504,-0.14982383,5
17,57911052294000,4.099725,8.008764,-1.3756552,5
17,57911162310000,5.053149,8.730643,-0.08172209,5
17,57911262316000,5.938472,13.906375,-1.1441092,5
17,57911372301000,-0.38136974,14.328606,-4.0180025,5
17,57911482317000,5.175732,8.771504,-0.6946377,5
17,57911592302000,0.8036005,3.255263,-0.08172209,5
17,57911702318000,4.440233,13.33432,6.782933,5
17,57911812303000,2.5333846,11.223166,0.10896278,5
17,57911922289000,2.6423476,5.829509,-3.0645783,5
17,57912032274000,0.27240697,7.7363577,0.42223078,5
17,57912142290000,3.336985,9.384419,0.040861044,5
17,57912242266000,6.4015636,10.038197,-1.0351465,5
17,57912352342000,2.5606253,12.680544,-1.525479,5
17,57912452471000,2.8330324,13.565866,0.19068487,5
17,57912562334000,2.9556155,5.434519,-0.61291564,5
17,57912622270000,0.5720546,4.0180025,-0.040861044,5
17,57912732317000,4.944186,10.800936,4.6036777,5
17,57912842302000,2.6423476,11.223166,-0.29964766,5
17,57912942369000,3.568531,6.469665,-2.9147544,5
17,57913052294000,0.38136974,8.730643,-0.10896278,5
17,57913162310000,4.372132,8.19945,-0.3405087,5
17,57913262255000,5.407278,9.847511,-0.9125633,5
17,57913372301000,4.2495484,12.9529505,-2.982856,5
17,57913482317000,2.1792557,13.797412,-1.4573772,5
17,57913592302000,2.9147544,4.8216033,-0.88532263,5
17,57913702318000,2.1111538,4.0588636,2.2201166,5
17,57913812303000,5.053149,15.091345,4.862464,5
17,57913922289000,1.0760075,12.571581,-1.1849703,5
17,57914032366000,3.759216,9.152874,-2.5606253,5
17,57914132311000,1.1849703,7.7772183,-1.334794,5
17,57914242266000,4.140586,8.921328,-0.46309182,5
17,57914352312000,7.014479,10.691973,-0.6537767,5
17,57914452318000,2.152015,11.604536,-1.2258313,5
17,57914562303000,2.1792557,14.2877445,0.23154591,5
17,57914672289000,2.6014864,4.5628166,-0.19068487,5
17,57914782305000,1.1849703,4.5628166,2.6014864,5
17,57914892290000,1.9885708,12.299174,6.4015636,5
17,57914992266000,2.7649305,12.489859,-1.920469,5
17,57915102312000,3.405087,9.302697,-2.4925237,5
17,57915212297000,1.2666923,7.504812,-1.1849703,5
17,57915322344000,4.5219555,8.471856,-0.19068487,5
17,57915422289000,5.47538,11.686258,-0.040861044,5
17,57915472277000,5.434519,13.565866,-1.7978859,5
17,57915582292000,-0.0,14.982383,-3.9090397,5
17,57915692308000,5.134871,7.5865335,-0.19068487,5
17,57915802324000,0.7627395,3.759216,0.19068487,5
17,57915912310000,5.47538,14.328606,5.7886477,5
17,57916022295000,1.6889231,11.223166,-1.4982382,5
17,57916122576000,2.4108016,6.3198414,-3.445948,5
17,57916172136000,3.1463003,10.760075,-0.3405087,5
17,57916272234000,1.7570249,7.3958488,-1.6889231,5
17,57916382311000,4.8216033,8.308413,-0.23154591,5
17,57916492418000,5.706926,11.563675,-0.19068487,5
17,57916602312000,1.4165162,12.299174,-1.920469,5
17,57916712297000,2.3018389,11.413852,0.84446156,5
17,57916822313000,1.56634,3.0237172,-0.50395286,5
17,57916922258000,2.6423476,6.742072,4.2904096,5
17,57917032305000,-0.10896278,11.413852,6.238119,5
17,57917132280000,1.56634,8.853226,-0.8036005,5
17,57917242296000,2.7240696,9.656827,0.10896278,5
17,57917352312000,2.152015,7.668256,-2.4516625,5
17,57917452288000,5.134871,8.730643,-0.3405087,5
17,57917562303000,6.932757,13.633968,-0.5720546,5
17,57917672289000,0.84446156,14.137921,-4.671779,5
17,57917782305000,4.5219555,8.662541,-0.61291564,5
17,57917892290000,0.7218784,3.1054392,-0.08172209,5
17,57918002306000,5.134871,13.484144,5.8976107,5
17,57918102281000,1.9477097,12.026767,-1.1441092,5
17,57918212297000,2.4925237,6.5513873,-4.0180025,5
17,57918322313000,-0.10896278,7.6954966,-0.08172209,5
17,57918422258000,3.718355,8.771504,0.8036005,5
17,57918532305000,5.012288,10.119919,-0.7218784,5
17,57918632280000,3.1463003,12.489859,-2.4108016,5
17,57918742296000,1.6480621,14.560152,-0.9942854,5
17,57918852342000,3.568531,4.5628166,-0.38136974,5
17,57918952349000,0.84446156,3.5276701,1.4573772,5
17,57919062303000,4.440233,16.3989,4.862464,5
17,57919172289000,2.5606253,12.367276,-2.3699405,5
17,57919272264000,3.9090397,9.384419,-3.336985,5
17,57919382341000,0.27240697,6.2108784,-0.9125633,5
17,57919492296000,3.759216,9.043911,-0.84446156,5
17,57919602342000,7.014479,12.026767,0.3405087,5
17,57919712297000,0.6537767,13.375181,-3.8273177,5
17,57919822313000,0.84446156,11.182305,-0.23154591,5
17,57919932299000,1.879608,2.8738933,-1.607201,5
17,57920042375000,4.140586,7.6954966,5.134871,5
17,57920142290000,-1.0760075,13.525005,5.09401,5
17,57920252306000,1.879608,7.3141265,-2.4925237,5
17,57920362291000,1.6889231,9.00305,0.38136974,5
17,57920462267000,4.2904096,7.6954966,-1.879608,5
17,57920572344000,4.440233,9.275456,-0.50395286,5
17,57920682299000,6.701211,14.206022,-1.9477097,5
17,57920792284000,1.1168685,14.9006605,-2.9147544,5
17,57920902300000,5.09401,6.4015636,-0.61291564,5
17,57921002275000,-0.040861044,2.9556155,0.88532263,5
17,57921112291000,6.2108784,16.821129,6.2108784,5
17,57921212389000,0.53119355,12.598822,-2.4925237,5
17,57921322313000,2.4925237,6.2108784,-4.2495484,5
17,57921432299000,0.42223078,7.5865335,0.3405087,5
17,57921542314000,2.5333846,8.962189,-0.23154591,5
17,57921642229000,8.853226,10.269742,-0.10896278,5
17,57921692278000,7.504812,13.33432,-1.3756552,5
17,57921802294000,-1.1849703,15.6634,-4.5219555,5
17,57921912310000,4.944186,7.273266,-1.334794,5
17,57922022295000,0.6946377,2.6014864,-0.7627395,5
17,57922122270000,5.2165933,14.328606,5.7886477,5
17,57922232317000,2.5333846,12.340035,-2.2201166,5
17,57922342302000,2.8738933,7.0553403,-4.3312707,5
17,57922442247000,0.313268,8.19945,0.38136974,5
17,57922552294000,3.7864566,9.084772,0.23154591,5
17,57922662310000,5.7886477,10.460427,-0.7627395,5
17,57922772264000,2.7240696,11.604536,-1.334794,5
17,57922882311000,1.5390993,14.519291,0.42223078,5
17,57922982317000,2.982856,3.8681788,-0.8036005,5
17,57923092302000,0.46309182,4.1814466,2.7921712,5
17,57923202318000,2.5333846,12.789507,6.6331096,5
17,57923312303000,2.070293,11.223166,-3.5957718,5
17,57923422289000,3.8681788,9.80665,-0.88532263,5
17,57923532305000,1.9885708,7.8589406,-2.2609777,5
17,57923632250000,4.399372,8.921328,-0.7218784,5
17,57923742296000,7.205164,11.727119,-0.5720546,5
17,57923852312000,0.10896278,14.818938,-3.2961242,5
17,57923952288000,2.9147544,8.894087,-0.29964766,5
17,57924062303000,1.8387469,3.5276701,-1.9477097,5
17,57924172289000,1.5390993,7.43671,3.8273177,5
17,57924272234000,-0.10896278,12.217452,3.486809,5
17,57924382311000,0.53119355,7.1234417,-2.7513103,5
17,57924492296000,4.671779,11.223166,0.27240697,5
17,57924602312000,3.6774938,7.8861814,-1.879608,5
17,57924712297000,4.9850473,9.534244,-0.38136974,5
17,57924822313000,5.434519,13.211738,-2.7513103,5
17,57924932299000,0.3405087,16.3989,-2.5606253,5
17,57925042314000,4.2086873,5.9793324,-0.7218784,5
17,57925092333000,1.3075534,3.1054392,-1.4982382,5
17,57925192247000,2.4516625,6.5513873,4.2086873,5
17,57925292314000,-2.0294318,11.645397,6.3198414,5
17,57925402300000,0.040861044,10.419566,-2.0294318,5
17,57925512316000,3.9499009,9.915613,-0.38136974,5
17,57925622301000,2.9147544,7.8861814,-2.070293,5
17,57925732317000,4.2904096,8.853226,0.313268,5
17,57925842302000,6.5513873,13.525005,-1.8387469,5
17,57925942247000,-0.19068487,15.826844,-3.7864566,5
17,57926052294000,4.944186,7.668256,-0.84446156,5
17,57926152300000,0.27240697,3.1463003,-1.0351465,5
17,57926262316000,4.2904096,11.917805,6.238119,5
17,57926372301000,2.7240696,12.762266,0.88532263,5
17,57926482317000,1.2258313,6.701211,-1.920469,5
17,57926592302000,1.1168685,9.084772,-0.08172209,5
17,57926702318000,3.636633,8.539958,-0.46309182,5
17,57926812303000,5.012288,9.80665,-0.7627395,5
17,57926922289000,4.399372,13.375181,-2.6014864,5
17,57927032305000,1.2666923,15.595298,-1.56634,5
17,57927132280000,4.5628166,6.510526,-0.27240697,5
17,57927242296000,0.08172209,3.6774938,0.38136974,5
17,57927352312000,5.7886477,17.965239,7.1234417,5
17,57927452288000,2.8330324,11.073342,-2.2609777,5
17,57927562303000,3.718355,6.5922484,-3.9090397,5
17,57927672289000,0.38136974,8.076866,-0.040861044,5
17,57927782305000,4.0180025,8.812365,0.040861044,5
17,57927892290000,7.0553403,10.882658,-0.42223078,5
17,57928002306000,0.92618364,11.686258,-1.56634,5
17,57928112291000,1.1849703,13.211738,0.46309182,5
17,57928222338000,1.7570249,3.7864566,-0.84446156,5
17,57928332292000,3.2961242,6.66035,4.372132,5
17,57928432268000,-2.6832085,13.565866,6.8237944,5
17,57928542314000,1.0760075,8.812365,-3.445948,5
17,57928642259000,2.6423476,8.962189,0.08172209,5
17,57928752306000,2.9147544,7.3141265,-2.4516625,5
17,57928862291000,4.6036777,10.038197,-0.10896278,5
17,57928962297000,7.5456724,13.484144,-1.920469,5
17,57929072313000,-1.3756552,15.322891,-4.399372,5
17,57929182299000,4.4810944,7.5865335,-0.95342433,5
17,57929282366000,0.42223078,3.405087,-0.50395286,5
17,57929392321000,5.325556,13.021052,6.3607025,5
17,57929502397000,3.405087,14.369467,-1.3756552,5
17,57929612291000,3.7864566,6.891896,-2.8738933,5
17,57929722277000,-0.0,7.246025,0.8036005,5
17,57929832292000,2.4925237,8.158588,-0.46309182,5
17,57929932268000,7.1234417,10.119919,-0.08172209,5
17,57930042314000,1.5390993,12.9529505,-1.1168685,5
17,57930152300000,1.0760075,12.489859,1.2258313,5
17,57930202257000,5.284695,6.891896,-0.6946377,5
17,57930302294000,-0.0,3.9499009,-0.10896278,5
17,57930412310000,4.140586,11.75436,7.4639506,5
17,57930522295000,3.1054392,13.947236,0.10896278,5
17,57930622331000,3.1054392,6.3198414,-5.202973,5
17,57930732317000,-0.3405087,8.730643,-0.5720546,5
17,57930842302000,3.2961242,8.281172,-0.7218784,5
17,57930942308000,5.284695,9.656827,-0.8036005,5
17,57931052294000,5.175732,13.525005,-2.1383946,5
17,57931152300000,0.46309182,14.137921,-1.920469,5
17,57931262316000,3.8681788,6.510526,-0.9125633,5
17,57931372301000,0.14982383,3.7864566,0.9942854,5
17,57931472307000,7.6954966,16.249075,5.706926,5
17,57931582292000,0.95342433,13.33432,-0.9125633,5
17,57931692308000,1.2666923,6.932757,-4.2086873,5
17,57931802355000,-0.53119355,7.0553403,-0.50395286,5
17,57931912310000,2.7240696,9.534244,-0.6946377,5
17,57932022295000,7.082581,10.732834,-0.42223078,5
17,57932122301000,2.9147544,11.917805,-1.9477097,5
17,57932232317000,2.2609777,14.941522,0.14982383,5
17,57932342302000,1.7978859,4.399372,-1.2258313,5
17,57932442278000,0.9942854,4.9850473,3.336985,5
17,57932552294000,2.982856,15.636159,5.829509,5
17,57932652300000,1.8387469,11.958665,-3.9499009,5
17,57932762316000,5.6660647,9.275456,-2.7513103,5
17,57932872270000,1.3075534,8.008764,-1.56634,5
17,57932972368000,5.5162406,8.894087,-1.1441092,5
17,57933082262000,6.4424243,11.727119,-0.3405087,5
17,57933192278000,1.7978859,13.484144,-2.5606253,5
17,57933292253000,2.6014864,10.501288,0.19068487,5
17,57933402300000,1.5390993,4.372132,-1.7978859,5
17,57933512316000,2.0294318,5.938472,3.9090397,5
17,57933622301000,-0.9942854,13.184497,6.0201936,5
17,57933732317000,-1.2258313,8.662541,-3.214402,5
17,57933842302000,4.140586,9.656827,-0.50395286,5
17,57933942247000,2.8330324,8.471856,-1.334794,5
17,57933992327000,3.445948,8.962189,-0.5720546,5
17,57934092363000,8.19945,10.269742,-0.50395286,5
17,57934202318000,1.3756552,12.9529505,-1.1849703,5
17,57934302294000,2.4516625,13.211738,-0.0,5
17,57934412310000,2.2609777,5.434519,-0.3405087,5
17,57934522295000,1.0760075,4.671779,2.9556155,5
17,57934622301000,2.5606253,16.249075,6.0201936,5
17,57934732317000,3.0237172,10.310603,-4.5900574,5
17,57934842302000,4.1814466,10.119919,-0.8036005,5
17,57934942278000,3.8273177,7.6954966,-2.3426998,5
17,57935052294000,4.399372,8.853226,-0.6946377,5
17,57935152269000,9.193735,10.61025,0.10896278,5
17,57935252306000,-1.0351465,14.47843,-1.7297841,5
17,57935352220000,1.4573772,12.789507,0.040861044,5
17,57935452318000,2.2609777,4.440233,-0.50395286,5
17,57935512285000,0.040861044,4.3312707,-0.27240697,5
17,57935622301000,6.851035,11.182305,5.8567495,5
17,57935732317000,1.56634,11.304889,-1.2258313,5
17,57935842302000,2.7240696,6.5513873,-2.982856,5
17,57935942308000,0.42223078,8.62168,0.95342433,5
17,57936052324000,3.718355,8.117727,-0.29964766,5
17,57936152269000,4.1814466,10.923519,-0.7218784,5
17,57936262316000,4.9850473,12.9529505,-3.1463003,5
17,57936372301000,0.8036005,14.941522,-2.8738933,5
17,57936472338000,4.399372,7.3141265,-0.6537767,5
17,57936582292000,0.23154591,4.3312707,0.23154591,5
17,57936692308000,6.1700177,14.750836,6.5922484,5
17,57936802294000,2.2201166,11.34575,-0.38136974,5
17,57936912310000,3.255263,6.469665,-3.5957718,5
17,57937012255000,0.46309182,8.158588,0.5720546,5
17,57937122331000,3.6774938,8.390134,-0.46309182,5
17,57937232317000,5.829509,10.419566,-0.88532263,5
17,57937342302000,3.718355,12.367276,-2.6014864,5
17,57937442278000,0.50395286,15.935807,-0.5720546,5
17,57937552294000,5.243834,5.938472,-0.23154591,5
17,57937652269000,0.27240697,4.372132,1.0351465,5
17,57937762316000,6.4424243,16.317177,6.0882955,5
17,57937872301000,0.23154591,10.56939,-1.920469,5
17,57937972277000,3.1463003,6.6331096,-4.2904096,5
17,57938082292000,0.6537767,8.008764,-0.040861044,5
17,57938192308000,3.5276701,8.771504,-0.50395286,5
17,57938292253000,7.5865335,10.378705,-0.50395286,5
17,57938402300000,2.2201166,11.495573,-2.6832085,5
17,57938512316000,1.2666923,14.7916975,0.61291564,5
17,57938622301000,3.568531,4.372132,-0.08172209,5
17,57938732317000,2.070293,4.3312707,3.636633,5
17,57938842394000,-2.6832085,15.5135765,6.3198414,5
17,57938942308000,0.61291564,9.656827,-2.9556155,5
17,57939062364000,3.486809,9.915613,-0.0,5
17,57939162310000,2.6014864,8.008764,-2.7240696,5
17,57939222277000,3.2961242,8.689782,-0.7218784,5
17,57939332292000,7.7363577,10.419566,-0.5720546,5
17,57939442308000,2.152015,12.299174,-1.7297841,5
17,57939552263000,1.1849703,13.402422,0.19068487,5
17,57939652422000,2.9147544,3.8681788,-0.23154591,5
17,57939762316000,0.95342433,4.1814466,1.879608,5
17,57939872301000,2.3699405,14.982383,6.851035,5
17,57939972277000,3.1054392,10.923519,-4.3312707,5
17,57940082292000,4.2495484,10.419566,-2.1792557,5
17,57940192308000,2.7649305,6.932757,-2.3018389,5
17,57940292284000,4.1814466,9.724928,-1.3756552,5
17,57940402300000,8.117727,10.651112,-0.040861044,5
17,57940512285000,0.23154591,13.797412,-2.1792557,5
17,57940622301000,1.7978859,10.378705,-0.08172209,5
17,57940732317000,2.2201166,3.2961242,-1.1441092,5
17,57940782274000,0.7218784,3.173541,1.879608,5
17,57940892290000,6.1700177,18.0061,6.5922484,5
17,57940992266000,1.920469,11.34575,-3.5276701,5
17,57941102312000,3.8681788,6.851035,-3.9499009,5
17,57941212358000,0.61291564,6.4015636,-0.3405087,5
17,57941322313000,3.718355,8.921328,-0.88532263,5
17,57941432299000,7.6273947,10.882658,-0.040861044,5
17,57941542314000,0.88532263,12.067628,-1.879608,5
17,57941642259000,1.879608,11.958665,0.6537767,5
17,57941752306000,2.4516625,3.990762,-1.1441092,5
17,57941862291000,1.3756552,5.2165933,2.982856,5
17,57941962236000,-1.334794,13.484144,5.9793324,5
17,57942072313000,0.313268,9.507003,-5.09401,5
17,57942172289000,3.3778462,10.119919,0.08172209,5
17,57942272264000,3.1054392,7.205164,-2.1792557,5
17,57942382341000,6.0882955,8.240311,-0.7218784,5
17,57942492327000,6.8237944,12.598822,-0.84446156,5
17,57942592333000,0.6537767,13.988097,-3.8273177,5
17,57942702318000,3.486809,9.847511,0.42223078,5
17,57942752153000,4.399372,6.469665,-0.08172209,5
17,57942862291000,-0.08172209,3.1054392,1.0760075,5
17,57942962236000,5.706926,18.115063,5.7886477,5
17,57943072313000,2.6423476,11.114203,-2.3699405,5
17,57943122301000,-0.27240697,7.1234417,-2.2609777,5
17,57943232317000,2.982856,9.043911,0.53119355,5
17,57943342302000,3.0645783,7.8180795,-1.9477097,5
17,57943452318000,4.140586,9.615966,-0.53119355,5
17,57943562487000,6.932757,14.206022,-2.7513103,5
17,57943662523000,0.7627395,14.818938,-3.6774938,5
17,57943772295000,3.2961242,7.504812,-1.8387469,5
17,57943882311000,0.10896278,4.372132,0.46309182,5
17,57943982317000,6.3607025,13.375181,6.3607025,5
17,57944092302000,0.42223078,13.797412,1.7978859,5
17,57944202318000,2.2201166,7.6273947,-2.4925237,5
17,57944302233000,1.0351465,8.539958,0.040861044,5
17,57944412310000,4.2086873,8.240311,-1.1441092,5
17,57944522295000,3.7864566,10.228881,-0.08172209,5
17,57944632311000,4.7126403,11.495573,-2.8330324,5
17,57944742479000,2.1111538,15.28203,-0.88532263,5
17,57944852312000,3.568531,5.7477865,-0.27240697,5
17,57944952288000,-0.27240697,4.5219555,2.4925237,5
17,57945002306000,3.173541,7.5865335,3.405087,5
17,57945112291000,0.040861044,12.571581,5.2165933,5
17,57945162462000,0.7218784,12.14935,-1.4165162,5
17,57945262285000,3.636633,7.668256,-3.5276701,5
17,57945372331000,-0.040861044,7.668256,0.10896278,5
17,57945472277000,3.0645783,8.539958,-0.42223078,5
17,57945582292000,5.366417,10.841797,-0.7627395,5
17,57945692308000,4.2904096,11.727119,-2.3699405,5
17,57945802294000,1.2258313,14.015338,-0.19068487,5
17,57945912340000,3.173541,4.944186,-0.61291564,5
17,57946022295000,0.7627395,4.903325,3.568531,5
17,57946132311000,-0.46309182,14.137921,6.932757,5
17,57946242296000,0.5720546,9.656827,-3.255263,5
17,57946352312000,3.6774938,9.466142,0.23154591,5
17,57946452318000,2.8330324,7.504812,-2.6423476,5
17,57946562334000,4.671779,9.193735,-0.7218784,5
17,57946662279000,8.471856,12.680544,-0.27240697,5
17,57946772295000,-0.10896278,14.369467,-3.6774938,5
17,57946882311000,4.7943625,8.662541,-0.61291564,5
17,57946982347000,-0.10896278,3.255263,-1.607201,5
17,57947092455000,3.5957718,8.308413,4.903325,5
17,57947202318000,-0.38136974,15.28203,3.214402,5
17,57947302355000,0.92618364,7.273266,-1.6889231,5
17,57947412279000,0.6946377,9.00305,-0.0,5
17,57947522295000,3.990762,8.19945,-0.9125633,5
17,57947632311000,5.2165933,9.915613,-0.95342433,5
17,57947742296000,4.9850473,12.639683,-1.9885708,5
17,57947852281000,0.50395286,16.017529,-2.3426998,5
17,57947952349000,4.944186,6.510526,-0.10896278,5
17,57948012316000,1.7978859,4.2086873,-0.61291564,5
17,57948122301000,2.1792557,5.09401,2.982856,5
17,57948232317000,-0.50395286,12.598822,6.66035,5
17,57948342302000,1.7978859,6.742072,-2.8330324,5
17,57948452349000,2.070293,8.662541,0.14982383,5
17,57948562303000,3.759216,8.471856,-0.8036005,5
17,57948662248000,5.09401,10.079058,-0.08172209,5
17,57948772295000,5.7477865,12.762266,-3.0237172,5
17,57948882311000,-0.27240697,14.47843,-2.3426998,5
17,57948982378000,4.4810944,6.701211,-0.19068487,5
17,57949092302000,-0.23154591,4.630918,1.2258313,5
17,57949202318000,5.9793324,16.08563,6.4424243,5
17,57949302263000,1.1441092,11.795221,-2.8330324,5
17,57949412310000,3.7864566,6.742072,-4.440233,5
17,57949522264000,0.19068487,7.3141265,0.42223078,5
17,57949632311000,2.7240696,9.00305,-0.10896278,5
17,57949742296000,6.0201936,11.141444,-0.8036005,5
17,57949852281000,2.3018389,10.56939,-0.88532263,5
17,57949952288000,1.920469,13.906375,0.38136974,5
17,57950062303000,3.2961242,4.630918,-0.6537767,5
17,57950162310000,0.3405087,4.862464,3.0645783,5
17,57950262346000,7.3958488,16.08563,6.238119,5
17,57950372301000,0.95342433,11.264028,-2.1792557,5
17,57950472277000,1.6480621,6.5513873,-4.4810944,5
17,57950582292000,0.7218784,7.7363577,0.19068487,5
17,57950682268000,3.336985,9.043911,-0.27240697,5
17,57950792314000,5.938472,10.800936,-0.9942854,5
17,57950902269000,1.56634,11.645397,-1.4982382,5
17,57951002306000,2.2609777,13.756551,0.38136974,5
17,57951112291000,2.6423476,4.140586,-0.6537767,5
17,57951222307000,1.1849703,5.8976107,3.336985,5
17,57951332292000,3.173541,12.14935,6.0882955,5
17,57951442308000,0.040861044,9.384419,-1.879608,5
17,57951492174000,3.5276701,7.0553403,-4.5628166,5
17,57951602281000,-0.27240697,8.730643,-0.38136974,5
17,57951712297000,3.8681788,8.430995,-0.14982383,5
17,57951822313000,4.7943625,10.378705,-0.53119355,5
17,57951932329000,4.903325,12.258313,-2.6014864,5
17,57952042314000,1.4165162,15.745122,-0.46309182,5
17,57952152300000,3.5276701,5.284695,-0.61291564,5
17,57952262316000,-0.0,4.5219555,2.6423476,5
17,57952372301000,2.5606253,13.525005,6.1291566,5
17,57952472277000,1.4165162,11.75436,-2.3018389,5
17,57952582292000,4.0588636,9.534244,-2.0294318,5
17,57952682268000,1.3075534,6.973618,-1.1849703,5
17,57952792284000,4.0588636,8.689782,-1.0351465,5
17,57952902300000,7.504812,11.645397,-0.23154591,5
17,57953002306000,1.4573772,13.633968,-2.9556155,5
17,57953112291000,2.1792557,10.800936,-0.27240697,5
17,57953222307000,1.1849703,3.5276701,-1.920469,5
17,57953322313000,3.173541,7.7363577,4.1814466,5
17,57953432299000,-1.525479,14.056199,5.134871,5
17,57953542314000,-0.08172209,7.3549876,-2.1792557,5
17,57953652300000,1.9477097,9.343558,0.50395286,5
17,57953762316000,3.6774938,7.668256,-2.1111538,5
17,57953872301000,4.944186,9.724928,-0.53119355,5
17,57953972277000,5.9793324,13.143636,-2.2609777,5
17,57954082292000,0.50395286,13.906375,-4.0180025,5
17,57954182268000,3.718355,7.3549876,-1.2258313,5
17,57954292284000,0.23154591,4.3312707,0.040861044,5
17,57954402300000,6.0882955,10.501288,7.082581,5
17,57954512316000,0.7218784,14.015338,-0.84446156,5
17,57954622301000,2.8330324,7.1234417,-4.8216033,5
17,57954732286000,-0.6537767,7.4639506,0.10896278,5
17,57954842302000,2.7649305,7.9270425,-1.1168685,5
17,57954952318000,7.8589406,12.14935,0.8036005,5
17,57955062303000,0.27240697,13.211738,-2.7240696,5
17,57955162279000,1.6889231,10.501288,-0.10896278,5
17,57955262316000,2.5606253,4.1814466,-1.3756552,5
17,57955372301000,3.173541,5.5162406,3.7864566,5
17,57955472277000,-2.1792557,11.032481,6.510526,5
17,57955582292000,1.9885708,10.147159,-2.982856,5
17,57955682268000,1.7570249,9.615966,-0.3405087,5
17,57955792314000,3.0237172,7.8589406,-2.070293,5
17,57955902300000,5.012288,8.349273,-0.040861044,5
17,57956012316000,7.504812,12.721405,-0.8036005,5
17,57956122301000,0.61291564,14.859799,-4.5900574,5
17,57956232347000,3.9090397,8.281172,-0.84446156,5
17,57956342302000,-0.040861044,3.1463003,-0.6946377,5
17,57956452318000,5.09401,13.102775,5.938472,5
17,57956562303000,2.152015,12.489859,-0.6946377,5
17,57956612200000,-0.23154591,8.499097,-2.0294318,5
17,57956722307000,4.4810944,9.915613,-0.38136974,5
17,57956832323000,2.4108016,7.6954966,-2.2201166,5
17,57956942308000,3.8273177,10.528529,-0.61291564,5
17,57957052294000,8.008764,12.912089,-2.1792557,5
17,57957162310000,-0.7627395,15.132206,-3.405087,5
17,57957272295000,4.8216033,7.3141265,-0.7627395,5
17,57957382341000,-0.19068487,3.6774938,0.10896278,5
17,57957482286000,6.238119,15.894946,6.851035,5
17,57957592302000,1.6480621,11.34575,-1.1441092,5
17,57957692339000,4.399372,7.4639506,-3.0645783,5
17,57957802294000,-0.38136974,7.1234417,0.040861044,5
17,57957912310000,3.3778462,8.812365,0.08172209,5
17,57958022295000,7.3958488,10.419566,-0.9125633,5
17,57958132311000,2.4516625,12.067628,-1.6889231,5
17,57958242327000,2.1111538,13.484144,0.10896278,5
17,57958352312000,2.7240696,4.7126403,-0.6537767,5
17,57958462297000,0.7627395,4.944186,3.405087,5
17,57958572313000,0.61291564,15.636159,6.238119,5
17,57958672228000,0.10896278,9.152874,-3.0237172,5
17,57958782305000,3.9090397,10.337844,0.8036005,5
17,57958892259000,2.7921712,7.5865335,-2.4925237,5
17,57958992327000,4.7535014,9.275456,-0.8036005,5
17,57959102312000,7.8180795,11.958665,-1.3075534,5
17,57959212267000,0.53119355,13.484144,-3.8681788,5
17,57959312242000,3.8273177,8.812365,-0.61291564,5
17,57959422289000,0.38136974,3.759216,-1.1168685,5
17,57959532305000,4.3312707,8.539958,4.944186,5
17,57959642290000,-0.46309182,13.525005,2.8738933,5
17,57959752306000,0.14982383,7.43671,-2.4925237,5
17,57959862352000,1.6889231,8.471856,-0.3405087,5
17,57959962267000,3.8273177,8.689782,-0.84446156,5
17,57960072313000,4.7126403,9.656827,-0.7627395,5
17,57960172228000,5.47538,12.871228,-2.3699405,5
17,57960272264000,0.313268,15.5135765,-3.6774938,5
17,57960382311000,4.399372,7.7772183,-1.3756552,5
17,57960432299000,1.7570249,4.140586,-0.9125633,5
17,57960532244000,0.61291564,5.09401,2.6832085,5
17,57960642321000,3.8273177,13.947236,5.829509,5
17,57960752306000,1.334794,11.304889,-2.6423476,5
17,57960862291000,2.982856,9.302697,-1.334794,5
17,57960962297000,2.2609777,7.504812,-2.6014864,5
17,57961012285000,4.0588636,8.689782,0.3405087,5
17,57961122301000,4.2904096,9.956474,-0.53119355,5
17,57961232317000,4.2495484,12.299174,-2.1792557,5
17,57961332292000,1.0760075,15.431854,-1.9885708,5
17,57961442308000,5.012288,7.3958488,-0.84446156,5
17,57961552294000,-0.040861044,4.7126403,0.9942854,5
17,57961662310000,7.43671,16.698545,5.5162406,5
17,57961772295000,2.4925237,11.264028,-3.9499009,5
17,57961882311000,3.336985,8.349273,-3.6774938,5
17,57961982256000,1.56634,7.1234417,0.23154591,5
17,57962092302000,2.9147544,9.043911,-0.10896278,5
17,57962192278000,6.510526,10.923519,-1.0351465,5
17,57962302294000,1.9477097,11.372991,-2.0294318,5
17,57962412310000,1.6480621,14.015338,0.53119355,5
17,57962522295000,3.2961242,4.630918,-0.7218784,5
17,57962632341000,0.50395286,4.7126403,2.6014864,5
17,57962742296000,0.53119355,14.859799,7.014479,5
17,57962852312000,1.1441092,10.991621,-2.2609777,5
17,57962962297000,3.718355,10.61025,-1.2258313,5
17,57963072313000,1.7570249,7.43671,-1.3756552,5
17,57963172258000,3.486809,9.043911,-0.14982383,5
17,57963282305000,7.504812,12.4489975,-0.9942854,5
17,57963392290000,0.313268,15.28203,-4.7943625,5
17,57963492266000,3.990762,8.580819,-0.6946377,5
17,57963602312000,1.3756552,3.718355,-0.95342433,5
17,57963702318000,3.486809,7.7772183,4.2495484,5
17,57963812303000,0.38136974,13.906375,4.2904096,5
17,57963922289000,-0.84446156,5.938472,-2.4108016,5
17,57964032335000,3.486809,9.425281,-0.23154591,5
17,57964142290000,3.255263,8.076866,-1.9477097,5
17,57964252336000,4.0588636,9.997335,-0.8036005,5
17,57964362291000,5.2165933,12.53072,-3.214402,5
17,57964462267000,0.8036005,15.4046135,-2.1383946,5
17,57964572313000,4.8216033,6.6331096,-0.95342433,5
17,57964672258000,0.08172209,3.445948,0.50395286,5
17,57964782305000,6.1291566,14.519291,6.510526,5
17,57964892290000,1.920469,13.293459,-0.6537767,5
17,57964992266000,3.1054392,7.014479,-3.2961242,5
17,57965102312000,-0.29964766,7.504812,0.08172209,5
17,57965202257000,3.3778462,9.152874,-0.08172209,5
17,57965302233000,5.325556,10.732834,-1.0760075,5
17,57965412310000,4.9850473,12.408136,-2.8330324,5
17,57965472338000,-0.8036005,14.709975,-3.2961242,5
17,57965582292000,2.6832085,8.921328,-0.50395286,5
17,57965682268000,1.2258313,3.759216,-0.88532263,5
17,57965792314000,4.372132,7.082581,4.9850473,5
17,57965902300000,-0.9125633,13.375181,3.9090397,5
17,57966002275000,-0.42223078,7.014479,-1.7978859,5
17,57966112261000,3.1463003,9.656827,0.10896278,5
17,57966222338000,3.718355,8.308413,-1.4573772,5
17,57966322405000,3.9090397,9.915613,-0.5720546,5
17,57966432299000,6.8237944,14.015338,-2.982856,5
17,57966542314000,-0.7627395,15.091345,-3.5957718,5
17,57966652300000,4.2904096,6.469665,-0.7627395,5
17,57966762316000,0.88532263,4.7126403,0.6537767,5
17,57966872301000,4.630918,14.709975,6.2789803,5
17,57966972277000,2.3699405,11.836082,-2.6832085,5
17,57967082292000,3.3778462,7.1234417,-4.2904096,5
17,57967182268000,-0.5720546,7.5865335,-0.08172209,5
17,57967292284000,3.2961242,9.466142,-0.08172209,5
17,57967402300000,7.4639506,10.691973,-0.61291564,5
17,57967502275000,2.0294318,11.495573,-1.9885708,5
17,57967612291000,1.56634,14.7916975,-0.29964766,5
17,57967722307000,3.214402,5.134871,-0.27240697,5
17,57967832292000,0.313268,4.2495484,2.6014864,5
17,57967942308000,1.6889231,13.33432,7.164303,5
17,57968052294000,2.2201166,11.686258,-3.486809,5
17,57968162340000,4.7126403,9.575105,-2.2201166,5
17,57968272325000,0.61291564,7.504812,-1.6889231,5
17,57968382311000,4.5628166,9.043911,-0.88532263,5
17,57968482256000,8.730643,12.026767,-0.61291564,5
17,57968592302000,0.46309182,13.565866,-2.6014864,5
17,57968692247000,2.2201166,10.528529,-0.040861044,5
17,57968802294000,2.152015,3.173541,-1.2258313,5
17,57968912310000,3.0237172,6.66035,3.718355,5
17,57969012285000,-1.6889231,13.565866,4.944186,5
17,57969122301000,0.5720546,6.973618,-3.2961242,5
17,57969232317000,2.982856,8.730643,0.84446156,5
17,57969282183000,0.7218784,8.076866,-0.19068487,5
17,57969392290000,2.4108016,8.962189,-0.19068487,5
17,57969492266000,7.3141265,10.56939,0.08172209,5
17,57969602312000,1.4982382,11.495573,-1.56634,5
17,57969702288000,1.920469,12.176591,1.334794,5
17,57969812303000,2.6423476,3.2961242,-0.42223078,5
17,57969922289000,1.879608,4.671779,3.6774938,5
17,57970032305000,-1.2666923,14.2877445,4.7535014,5
17,57970142290000,0.5720546,8.281172,-3.1463003,5
17,57970252306000,2.6832085,9.425281,-0.10896278,5
17,57970362291000,3.1463003,8.499097,-1.879608,5
17,57970472307000,4.7535014,10.18802,-0.23154591,5
17,57970582292000,5.47538,13.211738,-2.0294318,5
17,57970682268000,0.95342433,15.4046135,-1.607201,5
17,57970792314000,4.1814466,6.510526,-0.8036005,5
17,57970902330000,0.313268,4.2904096,1.4982382,5
17,57971002306000,4.7126403,16.04477,4.8216033,5
17,57971112291000,1.879608,11.876944,-2.7240696,5
17,57971212297000,4.7943625,7.9679036,-3.0237172,5
17,57971312273000,-0.23154591,7.8589406,0.313268,5
17,57971422289000,3.8273177,8.689782,-0.46309182,5
17,57971532305000,6.742072,11.795221,-0.3405087,5
17,57971642290000,1.7978859,12.408136,-1.56634,5
17,57971752306000,2.070293,10.95076,0.8036005,5
17,57971862291000,1.4573772,4.7126403,-1.607201,5
17,57971972307000,2.1792557,6.5513873,4.2904096,5
17,57972082292000,-0.50395286,12.830367,5.7477865,5
17,57972182268000,1.4165162,6.891896,-2.1383946,5
17,57972292314000,3.405087,10.800936,-0.08172209,5
17,57972402300000,3.3778462,7.7772183,-1.920469,5
17,57972502275000,4.0180025,10.460427,-0.46309182,5
17,57972612291000,6.8237944,12.258313,-2.1383946,5
17,57972712267000,-0.08172209,15.636159,-3.8681788,5
17,57972822313000,4.0180025,8.281172,-0.9942854,5
17,57972932299000,0.6946377,3.8681788,-0.95342433,5
17,57973042314000,5.243834,11.141444,6.1700177,5
17,57973152330000,0.6946377,13.947236,-0.46309182,5
17,57973262316000,2.5606253,6.238119,-4.0588636,5
17,57973372301000,-0.5720546,8.771504,0.23154591,5
17,57973472277000,3.9090397,8.689782,-0.0,5
17,57973582292000,5.407278,10.760075,-0.6946377,5
17,57973692339000,4.5628166,11.141444,-2.3018389,5
17,57973802294000,1.334794,15.363752,0.040861044,5
17,57973912310000,4.099725,6.0474343,-0.61291564,5
17,57974022295000,0.42223078,4.671779,2.6832085,5
17,57974132311000,4.0180025,14.941522,5.407278,5
17,57974242296000,1.2258313,13.525005,-1.6889231,5
17,57974342302000,3.759216,9.275456,-2.5606253,5
17,57974452349000,1.3756552,7.246025,-1.0351465,5
17,57974512255000,3.336985,8.349273,-0.42223078,5
17,57974622301000,5.47538,10.528529,-0.14982383,5
17,57974722338000,4.5219555,12.408136,-2.3426998,5
17,57974832292000,0.95342433,16.657684,-2.6014864,5
17,57974942308000,4.440233,6.2789803,-0.19068487,5
17,57975052294000,-0.14982383,4.2495484,1.4165162,5
17,57975162310000,5.9793324,17.352324,5.8976107,5
17,57975262316000,0.92618364,12.871228,-2.4925237,5
17,57975372301000,2.3018389,6.6331096,-3.8273177,5
17,57975472277000,0.5720546,8.281172,0.38136974,5
17,57975582292000,3.405087,8.539958,0.040861044,5
17,57975692308000,6.2108784,10.991621,-0.7218784,5
17,57975802294000,1.4165162,11.75436,-1.4165162,5
17,57975912310000,2.4516625,13.525005,0.7218784,5
17,57976022295000,2.982856,4.4810944,-0.7218784,5
17,57976132311000,1.0351465,5.09401,3.1054392,5
17,57976242296000,-0.10896278,13.824653,5.829509,5
17,57976342241000,1.9885708,10.147159,-3.7864566,5
17,57976452318000,4.4810944,10.337844,-1.8387469,5
17,57976562303000,1.607201,7.273266,-2.5333846,5
17,57976672289000,5.47538,8.962189,-0.88532263,5
17,57976782305000,7.5456724,11.727119,-0.6537767,5
17,57976892290000,1.5390993,14.2877445,-3.8681788,5
17,57976992235000,3.2961242,8.730643,-0.53119355,5
17,57977102312000,1.0351465,3.6774938,-1.4982382,5
17,57977202257000,4.2904096,7.273266,3.718355,5
17,57977312303000,-1.4165162,12.299174,4.630918,5
17,57977422289000,1.1441092,7.273266,-2.6832085,5
17,57977532305000,1.1441092,9.765789,-0.23154591,5
17,57977642290000,4.2495484,8.117727,-1.607201,5
17,57977752306000,4.7535014,9.915613,-0.0,5
17,57977862291000,5.47538,12.912089,-2.3426998,5
17,57977972307000,1.4165162,15.6634,-2.2609777,5
17,57978082292000,4.2904096,6.5513873,-0.6946377,5
17,57978192308000,0.040861044,4.0180025,0.6537767,5
17,57978242144000,2.8738933,7.6954966,4.0180025,5
17,57978342241000,-1.0351465,12.571581,4.7943625,5
17,57978452318000,0.42223078,9.00305,-1.3756552,5
17,57978562303000,2.4925237,10.038197,0.19068487,5
17,57978672289000,3.0645783,8.049625,-2.6423476,5
17,57978782305000,4.0588636,9.956474,-0.10896278,5
17,57978892290000,6.2108784,12.639683,-1.9477097,5
17,57978992266000,0.14982383,16.249075,-4.099725,5
17,57979102312000,4.3312707,7.7772183,-1.1849703,5
17,57979202257000,0.313268,3.759216,-1.1441092,5
17,57979252275000,0.42223078,5.012288,3.0645783,5
17,57979352312000,5.434519,15.636159,6.3607025,5
17,57979462297000,2.3699405,10.882658,-1.56634,5
17,57979572313000,4.630918,8.812365,-3.0645783,5
17,57979682299000,0.5720546,7.6273947,-0.42223078,5
17,57979792314000,3.6774938,8.662541,-0.10896278,5
17,57979902300000,7.3549876,11.495573,0.14982383,5
17,57980002275000,2.1111538,11.876944,-1.879608,5
17,57980112291000,2.1792557,12.108489,1.0351465,5
17,57980212572000,1.9885708,3.214402,-1.4573772,5
17,57980322313000,1.5390993,6.3198414,4.4810944,5
17,57980432299000,-2.3018389,10.378705,7.246025,5
17,57980542314000,1.5390993,10.691973,-2.7921712,5
17,57980652300000,3.5276701,10.841797,-0.7218784,5
17,57980762316000,3.173541,7.164303,-2.4516625,5
17,57980872331000,4.9850473,9.956474,0.23154591,5
17,57980982317000,6.510526,12.571581,-1.3756552,5
17,57981092302000,0.040861044,15.935807,-3.9771416,5
17,57981192278000,4.372132,7.014479,-1.1168685,5
17,57981292223000,0.23154591,3.3778462,-0.6537767,5
17,57981402300000,5.829509,11.917805,7.014479,5
17,57981502275000,-0.08172209,13.906375,-0.5720546,5
17,57981612291000,2.5606253,6.742072,-3.0237172,5
17,57981712236000,0.10896278,8.390134,0.040861044,5
17,57981822313000,3.568531,8.962189,-0.23154591,5
17,57981932299000,7.3141265,10.528529,-0.6537767,5
17,57982042314000,2.5333846,11.141444,-1.3756552,5
17,57982152300000,2.2201166,15.132206,-0.38136974,5
17,57982262316000,2.7921712,4.630918,-0.61291564,5
17,57982372331000,0.19068487,5.5162406,3.255263,5
17,57982482317000,0.10896278,14.7916975,6.742072,5
17,57982592272000,0.42223078,10.460427,-3.255263,5
17,57982692278000,3.445948,9.615966,-1.1441092,5
17,57982802294000,2.9147544,8.076866,-2.4516625,5
17,57982912310000,4.4810944,8.689782,0.27240697,5
17,57983012285000,6.5513873,12.258313,-1.2258313,5
17,57983122301000,0.27240697,14.941522,-3.486809,5
17,57983222277000,3.0237172,8.812365,-0.6946377,5
17,57983292314000,3.336985,4.4810944,-0.29964766,5
17,57983402330000,0.92618364,4.944186,3.255263,5
17,57983462267000,6.2108784,15.554437,6.4015636,5
17,57983572405000,0.8036005,13.021052,-1.2258313,5
17,57983682299000,2.6014864,6.0201936,-3.718355,5
17,57983792314000,0.10896278,8.430995,0.313268,5
17,57983902300000,3.173541,8.853226,0.040861044,5
17,57984002306000,6.6331096,10.882658,-0.5720546,5
17,57984112291000,2.9556155,11.372991,-1.6889231,5
17,57984212236000,0.88532263,15.554437,-0.38136974,5
17,57984322344000,4.5628166,5.8976107,-0.19068487,5
17,57984432299000,-0.08172209,4.0588636,1.5390993,5
17,57984542314000,3.9499009,16.88923,5.9793324,5
17,57984652300000,3.255263,12.367276,-1.2666923,5
17,57984762377000,4.7126403,9.084772,-1.6480621,5
17,57984872301000,1.56634,7.4639506,-1.7570249,5
17,57984982317000,4.630918,9.656827,-0.9125633,5
17,57985092302000,7.273266,11.495573,-0.27240697,5
17,57985202318000,0.7218784,14.328606,-3.336985,5
17,57985302324000,2.7649305,8.689782,-0.38136974,5
17,57985412310000,1.3756552,4.6036777,-0.9125633,5
17,57985512285000,3.2961242,6.742072,5.7886477,5
17,57985622301000,-1.9477097,12.176591,5.8976107,5
17,57985722490000,1.9885708,9.112013,-3.5276701,5
17,57985832292000,1.2258313,9.234595,0.3405087,5
17,57985882280000,2.070293,7.7772183,-0.7627395,5
17,57985982286000,2.8738933,10.038197,-0.23154591,5
17,57986092302000,9.00305,9.765789,-0.46309182,5
17,57986202318000,0.88532263,12.067628,-1.4982382,5
17,57986312303000,1.2258313,11.304889,0.95342433,5
17,57986422319000,2.3426998,3.9090397,0.14982383,5
17,57986532305000,4.099725,6.469665,2.9147544,5
17,57986642290000,-1.6889231,14.015338,3.759216,5
17,57986752306000,2.1792557,7.8589406,-0.9942854,5
17,57986862291000,1.0351465,9.847511,0.3405087,5
17,57986972338000,4.2495484,8.662541,-1.0351465,5
17,57987022173000,4.2495484,8.894087,-0.6537767,5
17,57987132311000,7.0553403,10.079058,0.14982383,5
17,57987232286000,1.9885708,11.141444,-1.879608,5
17,57987332262000,0.46309182,11.645397,0.6537767,5
17,57987442278000,3.5276701,4.440233,-0.10896278,5
17,57987552294000,1.3075534,5.829509,3.445948,5
17,57987662310000,0.10896278,13.293459,5.938472,5
17,57987772295000,-0.46309182,10.269742,-2.070293,5
17,57987882311000,4.440233,10.038197,-0.50395286,5
17,57988012377000,2.982856,8.499097,-1.7570249,5
17,57988122393000,5.012288,9.615966,-0.38136974,5
17,57988222246000,5.434519,12.980191,-2.4516625,5
17,57988272356000,3.1463003,11.563675,-1.8387469,5
17,57988382311000,1.7570249,11.536434,0.38136974,5
17,57988482286000,3.405087,4.7943625,-1.0351465,5
17,57988592302000,0.5720546,5.5162406,4.099725,5
17,57988702318000,2.7649305,13.402422,5.243834,5
17,57988812303000,-0.10896278,9.915613,-1.607201,5
17,57988922289000,5.175732,11.304889,-0.53119355,5
17,57989032305000,3.9090397,7.3141265,-2.7513103,5
17,57989142290000,4.903325,9.466142,-0.0,5
17,57989242296000,6.0474343,12.762266,-1.9477097,5
17,57989342241000,0.10896278,14.941522,-4.372132,5
17,57989452501000,3.759216,8.240311,-1.3075534,5
17,57989562273000,0.50395286,4.2904096,-1.4573772,5
17,57989672289000,5.8976107,9.915613,5.366417,5
17,57989782305000,-0.0,13.0619135,1.3756552,5
17,57989892290000,2.2609777,7.7772183,-2.6014864,5
17,57989992266000,1.5390993,8.62168,-0.38136974,5
17,57990102312000,3.8681788,8.049625,-0.88532263,5
17,57990212297000,4.8216033,10.378705,-0.42223078,5
17,57990322313000,3.173541,12.408136,-2.1111538,5
17,57990432299000,1.4982382,15.023244,-1.334794,5
17,57990542314000,3.7864566,5.7477865,-0.3405087,5
17,57990652300000,0.38136974,4.7535014,1.8387469,5
17,57990762316000,4.944186,15.636159,4.9850473,5
17,57990872301000,1.920469,12.026767,-2.6832085,5
17,57990982317000,3.9090397,9.656827,-2.1111538,5
17,57991092302000,1.9477097,7.504812,-2.6832085,5
17,57991202318000,5.938472,8.430995,-0.6946377,5
17,57991312303000,6.3607025,12.4489975,-1.0351465,5
17,57991422289000,0.88532263,14.982383,-4.2086873,5
17,57991522295000,3.8681788,8.499097,-0.7218784,5
17,57991632311000,0.92618364,2.982856,-1.7978859,5
17,57991732286000,3.636633,9.00305,5.2165933,5
17,57991842302000,-0.10896278,11.795221,4.140586,5
17,57991952318000,0.08172209,7.4639506,-0.7218784,5
17,57992072344000,1.4573772,8.812365,0.38136974,5
17,57992182329000,4.0180025,8.62168,-0.6946377,5
17,57992242266000,5.2165933,8.471856,-0.3405087,5
17,57992342241000,7.0553403,12.639683,-0.9942854,5
17,57992452318000,1.2666923,13.402422,-2.9147544,5
17,57992562303000,2.4516625,9.234595,-0.27240697,5
17,57992672289000,1.2258313,2.9556155,-1.2258313,5
17,57992782305000,5.325556,10.147159,6.0201936,5
17,57992892290000,1.334794,12.980191,1.334794,5
17,57993012377000,1.7297841,5.9793324,-3.173541,5
17,57993122362000,0.23154591,8.662541,0.14982383,5
17,57993222338000,3.445948,8.430995,-0.5720546,5
17,57993282244000,5.175732,9.507003,-0.50395286,5
17,57993392290000,6.469665,13.184497,-1.1168685,5
17,57993492266000,1.2258313,13.565866,-4.0180025,5
17,57993602312000,2.6423476,8.049625,-0.5720546,5
17,57993712297000,0.6946377,3.5957718,-0.95342433,5
17,57993822344000,6.851035,11.917805,6.782933,5
17,57993922258000,0.14982383,10.991621,0.5720546,5
17,57994022295000,3.7864566,7.9270425,-3.445948,5
17,57994132280000,0.23154591,8.962189,-0.3405087,5
17,57994232256000,4.1814466,7.9270425,-0.14982383,5
17,57994282274000,5.6252036,8.349273,-1.1441092,5
17,57994392290000,7.0553403,11.604536,-0.08172209,5
17,57994492266000,1.6480621,12.53072,-2.3699405,5
17,57994602312000,1.9477097,11.141444,0.27240697,5
17,57994712328000,2.1111538,3.759216,-1.4982382,5
17,57994822344000,1.6889231,6.891896,3.486809,5
17,57994932299000,-0.14982383,13.756551,3.5957718,5
17,57995042314000,-0.6537767,6.0201936,-2.1383946,5
17,57995152300000,3.405087,9.80665,0.6946377,5
17,57995252336000,3.636633,8.008764,-0.6946377,5
17,57995352373000,5.284695,10.038197,-0.23154591,5
17,57995452379000,6.1700177,13.211738,-2.3699405,5
17,57995502306000,0.9942854,12.680544,-1.607201,5
17,57995562242000,0.42223078,16.017529,-3.405087,5
17,57995672350000,4.5219555,7.0553403,-0.84446156,5
17,57995722124000,1.2258313,3.7864566,-1.6889231,5
17,57995832445000,2.1111538,5.407278,4.2086873,5
17,57995942339000,-2.1383946,12.680544,5.325556,5
17,57996052324000,1.4573772,8.962189,-2.1111538,5
17,57996162310000,2.3426998,9.956474,0.313268,5
17,57996262316000,3.405087,7.273266,-2.3699405,5
17,57996362230000,4.2904096,9.956474,-1.2258313,5
17,57996472307000,7.7363577,12.680544,-1.1441092,5
17,57996582292000,1.4982382,14.206022,-3.718355,5
17,57996692339000,4.2495484,8.117727,-0.9942854,5
17,57996802294000,-0.3405087,3.9499009,-0.08172209,5
17,57996912310000,3.9090397,12.217452,7.014479,5
17,57997012285000,1.0760075,14.015338,-1.3075534,5
17,57997122301000,3.5957718,6.4015636,-3.6774938,5
17,57997222277000,-0.3405087,8.539958,1.1441092,5
17,57997332292000,3.5957718,8.62168,0.27240697,5
17,57997442308000,6.8237944,11.141444,-0.08172209,5
17,57997552294000,2.6832085,11.563675,-1.3756552,5
17,57997662310000,0.9942854,12.026767,0.38136974,5
17,57997772295000,2.4516625,4.630918,-0.9942854,5
17,57997882311000,2.8330324,6.4015636,3.759216,5
17,57997982286000,-0.9942854,12.108489,5.407278,5
17,57998092302000,-0.0,8.853226,-2.982856,5
17,57998202318000,4.7535014,10.651112,0.08172209,5
17,57998312303000,3.336985,7.668256,-2.7513103,5
17,57998422289000,4.862464,9.534244,-0.5720546,5
17,57998522264000,7.3549876,13.443283,-2.2609777,5
17,57998632311000,-0.46309182,15.322891,-4.944186,5
17,57998732286000,4.4810944,7.8180795,-0.95342433,5
17,57998842302000,0.040861044,3.336985,-0.5720546,5
17,57998952318000,5.09401,11.032481,6.510526,5
17,57999062303000,2.0294318,11.536434,-0.8036005,5
17,57999172289000,3.1463003,6.701211,-2.6423476,5
17,57999282305000,0.38136974,8.390134,0.19068487,5
17,57999392290000,3.1463003,8.62168,-0.7218784,5
17,57999492266000,8.308413,10.18802,-0.53119355,5
17,57999602312000,0.27240697,13.402422,-0.84446156,5
17,57999712267000,1.879608,11.795221,0.8036005,5
17,57999822283000,1.879608,3.255263,-1.0760075,5
17,57999932299000,2.3018389,5.7477865,4.372132,5
17,58000032305000,-0.50395286,12.4489975,5.8567495,5
17,58000142290000,1.9477097,8.689782,-3.214402,5
17,58000242235000,2.7649305,9.888372,-0.19068487,5
17,58000292284000,-0.23154591,9.084772,0.5720546,5
17,58000402300000,3.9499009,8.117727,0.50395286,5
17,58000502275000,4.944186,11.372991,-0.46309182,5
17,58000612291000,4.2904096,12.367276,-2.3018389,5
17,58000722277000,1.1168685,14.859799,-1.1168685,5
17,58000832292000,3.1054392,5.47538,-0.040861044,5
17,58000942369000,0.38136974,5.175732,2.3426998,5
17,58001002306000,6.3198414,10.228881,5.7477865,5
17,58001112291000,0.3405087,11.264028,0.50395286,5
17,58001222307000,1.6889231,6.8237944,-2.5333846,5
17,58001332262000,0.42223078,8.499097,0.19068487,5
17,58001442308000,3.6774938,8.689782,0.08172209,5
17,58001552294000,5.938472,10.882658,-0.6537767,5
17,58001662310000,2.6014864,11.563675,-1.1168685,5
17,58001762285000,1.0351465,14.2877445,0.040861044,5
17,58001872301000,3.718355,4.2904096,-0.29964766,5
17,58001982317000,-0.0,4.8216033,2.6423476,5
17,58002092302000,2.070293,13.715691,6.510526,5
17,58002202318000,0.5720546,11.536434,-1.9885708,5
17,58002312273000,5.053149,10.528529,-0.14982383,5
17,58002422319000,3.6774938,7.4639506,-2.9147544,5
17,58002522264000,5.366417,8.730643,-0.27240697,5
17,58002632311000,6.6331096,12.217452,-1.1441092,5
17,58002732286000,1.1849703,14.437569,-4.4810944,5
17,58002782244000,1.56634,15.4046135,-0.27240697,5
17,58002892290000,3.568531,6.1291566,-0.50395286,5
17,58002992266000,0.19068487,4.4810944,1.56634,5
17,58003102312000,5.597963,15.595298,5.325556,5
17,58003212297000,1.334794,11.372991,-3.0645783,5
17,58003322313000,4.630918,9.043911,-2.1792557,5
17,58003432299000,1.879608,7.6273947,-1.7978859,5
17,58003532305000,4.862464,8.921328,-0.5720546,5
17,58003642290000,8.008764,11.073342,-0.23154591,5
17,58003742266000,0.9942854,13.906375,-2.5606253,5
17,58003852312000,1.6480621,11.304889,0.19068487,5
17,58003962297000,2.070293,3.759216,-0.95342433,5
17,58004072313000,3.568531,8.049625,4.9850473,5
17,58004182299000,1.1441092,15.132206,2.4516625,5
17,58004292314000,0.19068487,6.6331096,-3.568531,5
17,58004402300000,2.6832085,9.152874,0.92618364,5
17,58004502275000,4.399372,7.43671,-0.27240697,5
17,58004552141000,5.053149,9.084772,-1.0351465,5
17,58004662310000,7.205164,11.795221,-0.50395286,5
17,58004762590000,1.607201,12.176591,-2.6423476,5
17,58004872301000,1.3075534,13.375181,0.27240697,5
17,58004982317000,1.4573772,4.3312707,-0.6537767,5
17,58005092302000,3.486809,5.829509,4.140586,5
17,58005202318000,-1.1441092,12.980191,5.597963,5
17,58005312303000,-0.61291564,7.205164,-1.1441092,5
17,58005422289000,3.9090397,9.724928,0.50395286,5
17,58005522264000,3.255263,8.580819,-2.070293,5
17,58005632311000,5.134871,9.507003,-0.61291564,5
17,58005742296000,4.1814466,14.137921,-3.2961242,5
17,58005852312000,-0.14982383,15.976667,-2.7513103,5
17,58005962297000,5.012288,6.469665,-1.0760075,5
17,58006072313000,-0.23154591,4.2904096,0.61291564,5
17,58006182299000,5.434519,15.132206,6.6331096,5
17,58006292314000,1.9885708,14.601013,-2.7513103,5
17,58006402300000,2.070293,8.499097,-4.7126403,5
17,58006502275000,0.53119355,6.851035,-1.4165162,5
17,58006612291000,4.140586,8.812365,-0.84446156,5
17,58006722307000,8.117727,10.923519,-0.0,5
17,58006832292000,1.0760075,13.021052,-2.5333846,5
17,58006942308000,2.0294318,10.501288,0.14982383,5
17,58007052294000,0.92618364,3.214402,-1.3075534,5
17,58007162310000,4.440233,8.539958,5.434519,5
17,58007262407000,-0.53119355,12.721405,3.336985,5
17,58007362230000,0.10896278,7.3141265,-1.334794,5
17,58007472277000,3.445948,10.228881,-0.19068487,5
17,58007582292000,3.0645783,8.158588,-1.7297841,5
17,58007692308000,4.903325,9.724928,-0.53119355,5
17,58007802294000,4.440233,13.402422,-2.4108016,5
17,58007912310000,0.88532263,16.017529,-1.56634,5
17,58008012255000,4.7535014,5.8567495,-0.42223078,5
17,58008122301000,-0.14982383,3.5957718,0.3405087,5
17,58008232317000,5.053149,16.358038,6.1700177,5
17,58008342302000,1.879608,11.34575,-3.8273177,5
17,58008452318000,4.0180025,9.275456,-2.8330324,5
17,58008562303000,1.4573772,6.891896,-2.070293,5
17,58008672289000,4.7943625,9.534244,-1.1168685,5
17,58008772264000,7.3549876,11.604536,-1.0760075,5
17,58008882311000,0.53119355,14.47843,-3.9090397,5
17,58008982317000,2.7649305,9.084772,-0.27240697,5
17,58009092302000,1.5390993,3.405087,-1.525479,5
17,58009202318000,4.372132,8.349273,3.9499009,5
17,58009312303000,-0.23154591,14.601013,2.4925237,5
17,58009422289000,1.2666923,6.0474343,-2.4516625,5
17,58009522264000,0.50395286,9.00305,-0.08172209,5
17,58009572344000,1.1849703,7.4639506,-1.9885708,5
17,58009682299000,4.7943625,9.193735,-0.84446156,5
17,58009782305000,7.4639506,11.686258,-0.42223078,5
17,58009892259000,1.1849703,12.762266,-2.5333846,5
17,58010002306000,1.6480621,9.915613,0.08172209,5
17,58010112291000,1.7297841,2.8738933,-1.0351465,5
17,58010222307000,5.5571017,9.466142,5.9793324,5
17,58010332292000,0.50395286,14.1787815,0.38136974,5
17,58010442308000,1.9477097,5.5162406,-3.5276701,5
17,58010552294000,-0.27240697,8.281172,0.9942854,5
17,58010662310000,4.5219555,9.193735,0.08172209,5
17,58010762255000,6.851035,10.691973,-0.3405087,5
17,58010872301000,1.7297841,11.985906,-1.334794,5
17,58010982317000,1.4573772,13.33432,1.5390993,5
17,58011092302000,2.6014864,2.5606253,-1.3075534,5
17,58011202318000,2.1111538,7.246025,4.3312707,5
17,58011312303000,-0.08172209,13.0619135,5.8976107,5
17,58011422289000,0.313268,6.3198414,-2.1383946,5
17,58011522234000,1.5390993,9.343558,0.19068487,5
17,58011632311000,3.5957718,7.7363577,-1.4982382,5
17,58011742296000,5.6660647,10.337844,0.08172209,5
17,58011852312000,2.4108016,12.217452,-2.5606253,5
17,58011962297000,2.152015,15.050485,0.08172209,5
17,58012072313000,3.1463003,4.2086873,-0.95342433,5
17,58012182329000,1.0351465,5.09401,3.1463003,5
17,58012282274000,-0.42223078,12.639683,6.8237944,5
17,58012382250000,0.7627395,11.536434,-1.6480621,5
17,58012492296000,3.636633,10.228881,-2.070293,5
17,58012602312000,1.7978859,7.014479,-2.7921712,5
17,58012712297000,5.6660647,9.043911,-0.53119355,5
17,58012822344000,6.1700177,13.102775,-1.9885708,5
17,58012932299000,-0.040861044,16.739407,-3.3642259,5
17,58013032274000,5.434519,7.014479,-0.7218784,5
17,58013142290000,-0.27240697,3.255263,-0.9125633,5
17,58013252306000,6.238119,13.33432,6.4424243,5
17,58013352281000,-0.27240697,14.669114,-2.1383946,5
17,58013462297000,1.7297841,5.6660647,-3.1054392,5
17,58013512133000,3.568531,9.697687,-1.4982382,5
17,58013622423000,1.8387469,7.273266,-2.3018389,5
17,58013732317000,5.09401,9.343558,-0.61291564,5
17,58013842302000,6.3607025,12.871228,-1.2666923,5
17,58013952318000,0.19068487,15.023244,-4.140586,5
17,58014062303000,3.486809,8.158588,-1.4982382,5
17,58014172380000,0.14982383,3.486809,-0.84446156,5
17,58014272447000,4.7943625,12.721405,6.2108784,5
17,58014372240000,1.334794,13.947236,-0.08172209,5
17,58014482317000,1.4573772,5.7886477,-2.982856,5
17,58014592302000,0.6946377,8.008764,0.9942854,5
17,58014702318000,3.1463003,9.275456,-0.08172209,5
17,58014812303000,6.3198414,10.732834,-0.46309182,5
17,58014922289000,3.214402,11.536434,-1.1441092,5
17,58015022234000,1.879608,14.137921,-0.0,5
17,58015132311000,2.2609777,4.944186,-0.6946377,5
17,58015242296000,1.56634,5.366417,3.0645783,5
17,58015352312000,-0.5720546,11.645397,5.7886477,5
17,58015462297000,2.152015,9.275456,-3.6774938,5
17,58015572313000,2.3426998,9.765789,0.14982383,5
17,58015682299000,3.405087,7.504812,-2.1792557,5
17,58015782274000,4.3312707,10.228881,-0.10896278,5
17,58015892290000,7.273266,12.571581,-0.9942854,5
17,58016002306000,0.27240697,15.091345,-4.2086873,5
17,58016112291000,4.862464,7.7363577,-0.6946377,5
17,58016222307000,-0.08172209,3.6774938,-0.42223078,5
17,58016332292000,5.2165933,13.6748295,6.510526,5
17,58016442278000,1.5390993,15.023244,-1.4165162,5
17,58016542314000,2.7649305,5.6660647,-4.3312707,5
17,58016652300000,-0.14982383,7.4639506,1.1441092,5
17,58016762316000,2.5333846,8.689782,-0.10896278,5
17,58016872301000,5.706926,10.800936,-0.5720546,5
17,58016982317000,3.1463003,11.686258,-1.8387469,5
17,58017092272000,2.0294318,13.947236,0.14982383,5
17,58017202318000,2.3426998,4.3312707,-0.9125633,5
17,58017312303000,1.7978859,5.053149,3.173541,5
17,58017422289000,3.568531,12.680544,5.7477865,5
17,58017522264000,1.3756552,10.61025,-2.982856,5
17,58017632280000,4.440233,9.152874,-1.920469,5
17,58017742296000,2.982856,7.5865335,-2.3699405,5
17,58017852312000,4.7535014,9.112013,-1.0760075,5
17,58017962297000,8.076866,10.337844,-0.10896278,5
17,58018072313000,0.8036005,13.0619135,-1.607201,5
17,58018182299000,2.0294318,10.56939,0.10896278,5
17,58018282274000,1.6889231,4.4810944,-0.6946377,5
17,58018382250000,2.9147544,6.0474343,3.486809,5
17,58018492327000,-0.6537767,11.836082,6.4424243,5
17,58018562273000,1.2258313,12.912089,-0.5720546,5
17,58018672289000,4.099725,6.932757,-2.3018389,5
17,58018732256000,0.92618364,9.384419,-0.040861044,5
17,58018782457000,0.7627395,7.668256,-0.88532263,5
17,58018892321000,3.2961242,9.084772,-1.334794,5
17,58018992266000,7.246025,9.847511,-0.53119355,5
17,58019102312000,2.4108016,11.495573,-1.525479,5
17,58019212267000,1.4165162,14.9006605,-0.53119355,5
17,58019322313000,3.8273177,5.706926,-0.040861044,5
17,58019432299000,0.50395286,4.9850473,2.9556155,5
17,58019532274000,2.8330324,15.173067,6.4015636,5
17,58019642321000,2.4516625,11.795221,-2.2609777,5
17,58019752306000,4.671779,9.724928,-3.1463003,5
17,58019862291000,0.88532263,7.014479,-1.334794,5
17,58019972307000,4.7126403,9.697687,-0.9125633,5
17,58020022264000,5.434519,10.119919,-0.50395286,5
17,58020132341000,4.7126403,12.340035,-2.8738933,5
17,58020242296000,1.0760075,14.560152,-1.6480621,5
17,58020352312000,3.336985,6.3198414,0.50395286,5
17,58020462297000,0.10896278,5.134871,2.4108016,5
17,58020572313000,5.8567495,15.322891,4.630918,5
17,58020682268000,0.10896278,12.489859,0.08172209,5
17,58020782244000,3.1054392,8.008764,-1.9477097,5
17,58020892321000,0.08172209,8.894087,-0.0,5
17,58020992266000,2.5333846,9.507003,-0.27240697,5
17,58021102312000,6.701211,10.691973,-0.53119355,5
17,58021212297000,2.8330324,11.563675,-1.7978859,5
17,58021322313000,1.0760075,14.669114,-0.19068487,5
17,58021432299000,2.9556155,4.903325,-0.23154591,5
17,58021532274000,1.0351465,4.630918,3.3778462,5
17,58021642290000,2.5606253,15.554437,6.3198414,5
17,58021752275000,1.8387469,10.760075,-3.1463003,5
17,58021862291000,4.5219555,10.228881,-1.1168685,5
17,58021972307000,1.920469,7.3141265,-1.9885708,5
17,58022082262000,4.671779,8.62168,-0.50395286,5
17,58022192308000,7.8861814,11.413852,-0.5720546,5
17,58022292284000,0.42223078,13.33432,-2.3426998,5
17,58022342180000,1.1441092,14.47843,-1.7297841,5
17,58022452471000,4.399372,7.668256,-1.2258313,5
17,58022562303000,0.040861044,5.243834,1.2666923,5
17,58022672289000,4.440233,16.04477,5.7477865,5
17,58022772264000,1.3756552,11.836082,-2.3018389,5
17,58022882341000,4.1814466,7.273266,-3.214402,5
17,58022982317000,0.50395286,7.9270425,0.3405087,5
17,58023032549000,3.0645783,7.246025,-2.4108016,5
17,58023142290000,4.944186,9.466142,-0.0,5
17,58023252306000,6.891896,12.489859,-1.0760075,5
17,58023362291000,-0.5720546,14.9006605,-3.5276701,5
17,58023472307000,4.372132,7.273266,-0.7627395,5
17,58023582353000,0.50395286,3.2961242,0.23154591,5
17,58023692308000,6.66035,15.4046135,5.7477865,5
17,58023792467000,1.2258313,12.830367,-2.5606253,5
17,58023902300000,4.2904096,7.3549876,-3.0645783,5
17,58024012316000,0.7218784,8.008764,0.23154591,5
17,58024122301000,3.336985,9.00305,-1.0351465,5
17,58024232317000,7.43671,10.269742,-0.23154591,5
17,58024342302000,0.9942854,12.408136,-1.7570249,5
17,58024452318000,2.1792557,10.841797,0.14982383,5
17,58024562303000,1.1168685,4.372132,-0.95342433,5
17,58024672289000,3.5957718,6.0882955,3.405087,5
17,58024782366000,-0.7627395,12.571581,4.0180025,5
17,58024892290000,1.1168685,7.504812,-2.1111538,5
17,58024992266000,1.9885708,10.079058,0.19068487,5
17,58025102312000,3.5957718,7.8589406,-1.9885708,5
17,58025212297000,4.671779,9.234595,-0.3405087,5
17,58025312303000,6.510526,12.721405,-1.9477097,5
17,58025422289000,0.84446156,14.09706,-4.0588636,5
17,58025522264000,3.445948,8.730643,-0.84446156,5
17,58025632311000,0.8036005,4.4810944,-0.38136974,5
17,58025742296000,4.399372,7.8180795,4.5628166,5
17,58025852312000,-0.3405087,12.571581,2.4516625,5
17,58025962297000,0.38136974,7.6273947,-0.46309182,5
17,58026072313000,1.6480621,8.689782,0.10896278,5
17,58026182299000,2.9147544,9.00305,-0.7627395,5
17,58026282274000,4.2904096,10.378705,-0.46309182,5
17,58026382250000,5.175732,13.0619135,-2.4108016,5
17,58026492296000,-0.040861044,15.363752,-3.7864566,5
17,58026602312000,3.8273177,6.891896,-0.8036005,5
17,58026712297000,-0.14982383,4.2086873,0.84446156,5
17,58026812334000,5.5571017,15.785983,6.510526,5
17,58026922289000,0.61291564,12.299174,-1.1441092,5
17,58027022264000,3.8273177,6.4015636,-3.8681788,5
17,58027132341000,-0.14982383,8.62168,0.46309182,5
17,58027242296000,3.9090397,8.962189,0.23154591,5
17,58027342302000,5.134871,9.915613,-0.88532263,5
17,58027452440000,5.012288,12.340035,-2.4108016,5
17,58027562303000,-0.23154591,15.854085,-2.6423476,5
17,58027622270000,3.0237172,9.847511,-0.5720546,5
17,58027732317000,0.88532263,4.7535014,-0.95342433,5
17,58027842302000,4.2495484,7.504812,4.3312707,5
17,58027952318000,-0.19068487,13.375181,4.099725,5
17,58028052263000,0.27240697,6.932757,-1.7570249,5
17,58028162310000,2.9147544,9.507003,0.38136974,5
17,58028272295000,2.9147544,8.19945,-1.3075534,5
17,58028372301000,4.2495484,9.466142,-0.10896278,5
17,58028482317000,6.2108784,12.980191,-2.6014864,5
17,58028592302000,0.08172209,14.601013,-4.440233,5
17,58028702318000,4.140586,7.8180795,-1.2666923,5
17,58028802446000,0.19068487,4.140586,0.19068487,5
17,58028912340000,6.3198414,9.724928,6.510526,5
17,58029012255000,-0.23154591,13.525005,0.19068487,5
17,58029122301000,1.7570249,5.9793324,-2.8738933,5
17,58029232378000,0.6946377,9.00305,0.19068487,5
17,58029342302000,3.718355,9.043911,-0.6537767,5
17,58029452318000,4.2086873,9.956474,-0.8036005,5
17,58029552294000,5.134871,13.715691,-3.0645783,5
17,58029662310000,-0.23154591,14.859799,-2.9147544,5
17,58029772295000,4.944186,7.1234417,-0.61291564,5
17,58029882280000,-0.23154591,4.4810944,0.08172209,5
17,58029992296000,6.3198414,15.554437,6.3198414,5
17,58030102312000,1.607201,11.958665,-3.1054392,5
17,58030212328000,3.8273177,6.4015636,-4.0180025,5
17,58030312273000,0.040861044,7.164303,-0.3405087,5
17,58030422319000,3.8273177,9.697687,-0.9942854,5
17,58030522264000,7.8180795,10.501288,-0.8036005,5
17,58030632311000,1.56634,11.727119,-1.920469,5
17,58030742327000,1.7570249,12.571581,0.27240697,5
17,58030852312000,2.3699405,4.944186,-0.6946377,5
17,58030962328000,1.6480621,4.2086873,2.6832085,5
17,58031072313000,-0.50395286,15.5135765,7.5456724,5
17,58031182299000,-1.9477097,6.469665,-1.4573772,5
17,58031232134000,3.5276701,8.689782,-3.7864566,5
17,58031342455000,0.38136974,7.3958488,-0.50395286,5
17,58031452318000,2.982856,9.466142,-0.38136974,5
17,58031552294000,7.3549876,10.378705,-1.0351465,5
17,58031662310000,1.7570249,11.645397,-1.6889231,5
17,58031772325000,2.070293,13.252599,0.10896278,5
17,58031882311000,3.214402,5.5162406,-0.7627395,5
17,58031992296000,0.27240697,5.706926,2.7921712,5
17,58032102312000,3.5276701,13.756551,6.238119,5
17,58032212297000,1.920469,11.563675,-2.1792557,5
17,58032312273000,4.671779,10.760075,-1.0760075,5
17,58032422289000,1.7570249,7.164303,-1.7978859,5
17,58032522264000,3.9090397,8.471856,-1.0760075,5
17,58032632311000,7.4639506,10.691973,-0.040861044,5
17,58032742296000,0.27240697,12.830367,-2.070293,5
17,58032852312000,2.1111538,11.75436,0.3405087,5
17,58032962297000,1.920469,3.9090397,-0.7627395,5
17,58033072313000,3.5276701,6.1291566,3.9499009,5
17,58033182299000,-1.4982382,11.795221,6.3607025,5
17,58033292284000,0.84446156,9.656827,-1.7297841,5
17,58033392259000,2.3699405,9.80665,-0.38136974,5
17,58033502306000,2.6014864,7.9679036,-2.4925237,5
17,58033612291000,5.012288,9.084772,-0.88532263,5
17,58033722307000,6.932757,12.4489975,-1.7570249,5
17,58033822283000,0.3405087,14.9006605,-3.486809,5
17,58033932299000,2.982856,9.043911,-1.2666923,5
17,58034032244000,0.313268,3.9090397,-0.95342433,5
17,58034142290000,3.8681788,6.742072,3.336985,5
17,58034192278000,6.851035,16.88923,6.1291566,5
17,58034292284000,1.3756552,10.528529,-2.6014864,5
17,58034392259000,4.440233,7.164303,-2.9556155,5
17,58034502306000,0.14982383,8.076866,-0.61291564,5
17,58034612291000,3.0237172,8.894087,-0.95342433,5
17,58034722307000,6.469665,10.079058,-1.1441092,5
17,58034822283000,2.2609777,12.721405,-1.8387469,5
17,58034932299000,0.50395286,14.47843,-1.2258313,5
17,58035032274000,4.2086873,5.325556,-0.61291564,5
17,58035142290000,0.5720546,4.3312707,1.334794,5
17,58035252336000,4.099725,17.052675,5.7477865,5
17,58035362596000,1.607201,11.917805,-2.8330324,5
17,58035472307000,5.012288,9.534244,-2.3426998,5
17,58035582292000,0.88532263,7.3958488,-1.4165162,5
17,58035692308000,4.0588636,8.894087,-0.8036005,5
17,58035802294000,8.539958,10.841797,-0.5720546,5
17,58035912310000,0.23154591,13.906375,-1.7978859,5
17,58036022295000,2.070293,9.997335,-0.50395286,5
17,58036132311000,1.2258313,4.2904096,-0.84446156,5
17,58036232286000,4.630918,7.504812,4.399372,5
17,58036332414000,-0.84446156,12.762266,6.0882955,5
17,58036442339000,0.53119355,9.847511,-1.9885708,5
17,58036502245000,4.0588636,7.5865335,-3.568531,5
17,58036612291000,0.8036005,7.9270425,0.27240697,5
17,58036722307000,3.5957718,8.853226,-1.1168685,5
17,58036822313000,7.246025,10.528529,-0.6946377,5
17,58036932299000,2.0294318,10.991621,-1.2258313,5
17,58037032244000,2.4925237,14.818938,-0.27240697,5
17,58037142290000,2.9147544,5.325556,0.040861044,5
17,58037252306000,1.1441092,4.3312707,2.8330324,5
17,58037362291000,2.1111538,16.507862,6.5513873,5
17,58037472307000,0.8036005,11.372991,-1.8387469,5
17,58037582292000,4.4810944,10.119919,-0.61291564,5
17,58037692308000,1.879608,7.5456724,-2.2201166,5
17,58037802294000,4.5628166,8.921328,-0.7627395,5
17,58037912310000,7.014479,12.489859,-1.0351465,5
17,58038022295000,0.313268,14.2877445,-3.8273177,5
17,58038132311000,3.405087,8.430995,-0.84446156,5
17,58038242296000,0.84446156,3.9499009,-0.95342433,5
17,58038352312000,5.366417,9.466142,4.2086873,5
17,58038462297000,0.27240697,13.184497,1.8387469,5
17,58038572313000,1.0351465,6.2789803,-2.4516625,5
17,58038682299000,0.23154591,8.62168,0.10896278,5
17,58038792314000,3.9090397,9.00305,-0.88532263,5
17,58038902330000,5.5162406,9.656827,-1.2666923,5
17,58039002275000,4.903325,12.680544,-2.7513103,5
17,58039112322000,0.92618364,15.894946,-2.6423476,5
17,58039222307000,5.284695,8.008764,-0.27240697,5
17,58039322283000,0.23154591,3.8681788,0.46309182,5
17,58039432299000,7.273266,14.709975,6.0201936,5
17,58039532335000,2.5606253,11.413852,-0.46309182,5
17,58039642290000,3.255263,7.273266,-3.636633,5
17,58039752306000,-0.19068487,8.430995,-0.040861044,5
17,58039862291000,3.445948,9.084772,-0.14982383,5
17,58039972307000,4.4810944,10.147159,-0.95342433,5
17,58040082384000,4.1814466,12.026767,-1.4573772,5
17,58040132158000,1.5390993,12.4489975,-3.255263,5
17,58040242479000,1.879608,10.800936,0.040861044,5
17,58040352312000,1.56634,4.140586,-0.95342433,5
17,58040462297000,4.0588636,6.469665,3.255263,5
17,58040572313000,-0.6946377,9.765789,4.2495484,5
17,58040682299000,1.3756552,9.80665,0.23154591,5
17,58040792314000,1.6480621,9.697687,-0.0,5
17,58040902330000,3.6774938,8.499097,-1.4982382,5
17,58041002275000,4.5628166,9.112013,-0.38136974,5
17,58041112291000,5.47538,13.525005,-2.1111538,5
17,58041222307000,1.0760075,13.6748295,-3.5276701,5
17,58041322252000,5.053149,7.8861814,-0.6537767,5
17,58041432299000,0.5720546,5.09401,-0.29964766,5
17,58041532274000,2.7649305,9.00305,4.399372,5
17,58041642290000,2.5606253,10.419566,1.1168685,5
17,58041752306000,0.92618364,6.782933,-1.525479,5
17,58041862291000,1.6480621,8.471856,0.38136974,5
17,58041972307000,3.636633,8.662541,-0.23154591,5
17,58042082292000,4.372132,10.038197,-1.1441092,5
17,58042192308000,4.6036777,13.102775,-2.2609777,5
17,58042302324000,1.3756552,14.560152,-2.4108016,5
17,58042402391000,3.568531,6.66035,-0.50395286,5
17,58042512346000,-0.0,4.862464,0.95342433,5
17,58042622301000,6.932757,15.28203,6.0474343,5
17,58042732317000,-1.0760075,13.565866,-1.3756552,5
17,58042832292000,2.7240696,6.3198414,-4.4810944,5
17,58042942308000,0.88532263,7.3958488,0.42223078,5
17,58043042284000,3.0645783,8.730643,0.46309182,5
17,58043152300000,4.7535014,10.269742,-1.1849703,5
17,58043262316000,4.0180025,11.372991,-2.3426998,5
17,58043372301000,1.1441092,15.091345,-0.6946377,5
17,58043482317000,3.1054392,5.6252036,-0.7627395,5
17,58043592333000,0.27240697,4.099725,1.6889231,5
17,58043702318000,5.175732,16.86199,5.8976107,5
17,58043812303000,2.152015,10.991621,-2.7921712,5
17,58043922289000,4.7943625,10.079058,-1.0351465,5
17,58044032305000,1.607201,7.3141265,-1.4982382,5
17,58044142290000,3.1463003,9.00305,-0.9942854,5
17,58044252306000,9.152874,11.223166,-0.38136974,5
17,58044362291000,-0.14982383,12.408136,-1.4165162,5
17,58044412279000,1.334794,14.015338,-1.56634,5
17,58044522295000,5.012288,7.3549876,0.08172209,5
17,58044632341000,0.42223078,4.862464,0.95342433,5
17,58044742327000,6.5922484,17.161638,6.469665,5
17,58044842333000,3.0645783,11.413852,-2.6832085,5
17,58044952349000,3.1463003,7.1234417,-3.759216,5
17,58045052263000,0.040861044,8.117727,-0.10896278,5
17,58045162340000,2.982856,9.00305,-0.19068487,5
17,58045262316000,6.8237944,10.269742,-0.84446156,5
17,58045372301000,3.5957718,12.4489975,-2.982856,5
17,58045482286000,0.8036005,15.241169,-1.1168685,5
17,58045542345000,3.759216,8.008764,-1.3756552,5
17,58045652300000,0.84446156,4.903325,-1.1441092,5
17,58045762316000,3.759216,7.668256,3.7864566,5
17,58045872301000,1.5390993,12.571581,2.070293,5
17,58045982317000,0.5720546,5.5162406,-2.8330324,5
17,58046092302000,-0.10896278,9.084772,0.53119355,5
17,58046202318000,3.2961242,8.853226,-0.42223078,5
17,58046312303000,5.706926,9.80665,-1.0351465,5
17,58046412248000,4.399372,12.489859,-2.6832085,5
17,58046522295000,0.53119355,15.785983,-3.1054392,5
17,58046632341000,4.630918,7.014479,-0.29964766,5
17,58046742296000,0.19068487,3.9499009,0.313268,5
17,58046842302000,5.2165933,16.249075,6.3607025,5
17,58046952318000,2.4108016,11.182305,-0.9942854,5
17,58047052263000,3.214402,6.66035,-3.9090397,5
17,58047162310000,-0.88532263,8.158588,0.08172209,5
17,58047272295000,3.214402,8.62168,-0.3405087,5
17,58047382311000,6.6331096,10.501288,-0.9942854,5
17,58047492296000,2.0294318,12.4489975,-2.7921712,5
17,58047602312000,2.2609777,14.709975,-0.5720546,5
17,58047712297000,4.399372,5.8567495,-0.50395286,5
17,58047822313000,0.53119355,3.718355,1.8387469,5
17,58047932299000,5.175732,15.363752,6.5922484,5
17,58048032274000,1.6480621,11.75436,-2.3426998,5
17,58048142290000,4.7126403,9.275456,-1.9477097,5
17,58048252306000,0.95342433,7.6273947,-0.7218784,5
17,58048352312000,2.8738933,8.921328,-0.29964766,5
17,58048462267000,7.9270425,10.079058,-0.53119355,5
17,58048562303000,1.2666923,12.680544,-1.7978859,5
17,58048672289000,2.3426998,13.565866,-0.23154591,5
17,58048782305000,3.173541,4.9850473,-0.6537767,5
17,58048892321000,-0.3405087,4.1814466,1.9885708,5
17,58048992266000,3.990762,15.472715,6.973618,5
17,58049042162000,-0.42223078,13.988097,3.7864566,5
17,58049152330000,-0.6537767,6.973618,-1.9885708,5
17,58049262316000,3.445948,10.528529,0.53119355,5
17,58049372301000,3.336985,8.349273,-2.7513103,5
17,58049482347000,4.8216033,9.152874,-0.42223078,5
17,58049592302000,5.8567495,12.9529505,-2.3699405,5
17,58049702318000,-0.10896278,15.050485,-4.140586,5
17,58049812303000,4.7943625,8.076866,-1.0760075,5
17,58049922289000,0.92618364,4.5219555,-0.08172209,5
17,58050032305000,4.4810944,11.182305,6.1291566,5
17,58050142290000,1.1168685,12.571581,-0.6537767,5
17,58050252336000,2.9556155,6.469665,-4.440233,5
17,58050352312000,0.08172209,8.049625,0.08172209,5
17,58050462297000,4.140586,8.730643,0.040861044,5
17,58050562303000,5.012288,9.956474,-0.9125633,5
17,58050672289000,4.399372,12.789507,-2.1383946,5
17,58050782305000,0.5720546,15.4046135,-2.0294318,5
17,58050892290000,4.0180025,7.164303,-0.23154591,5
17,58050992266000,0.19068487,4.0588636,0.6946377,5
17,58051102342000,5.09401,15.5135765,6.851035,5
17,58051212297000,1.1849703,11.454713,-2.1383946,5
17,58051322344000,1.3075534,5.366417,-4.9850473,5
17,58051422258000,0.040861044,7.7363577,-0.5720546,5
17,58051532305000,4.0180025,8.662541,-0.29964766,5
17,58051642290000,6.701211,10.419566,-0.8036005,5
17,58051752306000,1.879608,11.536434,-1.2666923,5
17,58051852312000,2.3699405,14.206022,-0.0,5
17,58051962297000,2.6832085,5.2165933,-0.7627395,5
17,58052062273000,1.0760075,4.6036777,2.8330324,5
17,58052172289000,3.8273177,16.08563,5.053149,5
17,58052282305000,1.7978859,13.252599,-2.5333846,5
17,58052392290000,3.486809,8.430995,-3.255263,5
17,58052502306000,1.0351465,7.7363577,-0.88532263,5
17,58052612291000,4.2495484,8.539958,-0.7218784,5
17,58052722307000,6.932757,11.413852,-0.0,5
17,58052822283000,1.5390993,11.304889,-1.56634,5
17,58052932329000,1.9885708,13.102775,1.3075534,5
17,58053032305000,2.4516625,3.7864566,-1.0760075,5
17,58053142290000,0.7627395,4.9850473,3.3778462,5
17,58053252306000,1.879608,10.651112,6.932757,5
17,58053352281000,1.4573772,10.501288,-3.405087,5
17,58053462297000,4.099725,10.460427,-1.2666923,5
17,58053562273000,2.3426998,7.205164,-1.6480621,5
17,58053672289000,4.862464,9.084772,-1.0760075,5
17,58053782305000,7.014479,11.985906,-0.42223078,5
17,58053892290000,1.920469,11.454713,-1.879608,5
17,58054002306000,2.3699405,10.56939,0.19068487,5
17,58054112291000,1.5390993,4.099725,-1.334794,5
17,58054222338000,2.3426998,6.6331096,4.2904096,5
17,58054282274000,5.8567495,16.358038,5.366417,5
17,58054392290000,0.5720546,12.108489,-2.1792557,5
17,58054502306000,3.1054392,7.8589406,-2.7513103,5
17,58054612291000,1.0760075,7.3958488,-0.7627395,5
17,58054722338000,4.2495484,8.921328,-0.84446156,5
17,58054832292000,7.164303,11.495573,-0.46309182,5
17,58054942308000,1.7570249,12.598822,-1.879608,5
17,58055042284000,1.607201,11.141444,0.23154591,5
17,58055152330000,2.6014864,4.2495484,-0.61291564,5
17,58055252306000,1.5390993,4.862464,3.2961242,5
17,58055352251000,1.1441092,14.1787815,6.2108784,5
17,58055462328000,1.879608,10.923519,-3.0237172,5
17,58055522264000,3.486809,6.0201936,-3.445948,5
17,58055632311000,-0.19068487,8.689782,0.08172209,5
17,58055742296000,3.9499009,8.962189,-0.8036005,5
17,58055842241000,6.469665,9.888372,-0.84446156,5
17,58055952318000,3.1054392,13.211738,-2.4516625,5
17,58056052233000,1.2258313,14.519291,-0.5720546,5
17,58056162340000,4.399372,5.706926,-0.19068487,5
17,58056262316000,0.23154591,4.3312707,1.8387469,5
17,58056362291000,4.372132,16.780268,6.0882955,5
17,58056472338000,2.5333846,11.073342,-3.486809,5
17,58056572313000,3.486809,8.390134,-4.0588636,5
17,58056682299000,0.6537767,7.8861814,0.040861044,5
17,58056792284000,3.336985,8.19945,-0.040861044,5
17,58056902300000,7.205164,10.760075,-0.14982383,5
17,58057002275000,1.7297841,12.026767,-1.334794,5
17,58057112291000,1.879608,14.859799,0.313268,5
17,58057222307000,2.152015,4.3312707,-0.6537767,5
17,58057332292000,1.3756552,5.434519,3.568531,5
17,58057432268000,0.95342433,15.745122,6.4015636,5
17,58057542314000,2.1111538,9.888372,-3.173541,5
17,58057652300000,3.445948,9.425281,-0.7627395,5
17,58057762346000,2.4108016,8.158588,-2.6832085,5
17,58057862261000,4.8216033,8.853226,-0.50395286,5
17,58057912157000,4.7126403,9.697687,-0.6946377,5
17,58058022295000,5.175732,12.762266,-1.920469,5
17,58058132311000,0.27240697,15.854085,-1.7978859,5
17,58058242296000,4.8216033,6.510526,0.23154591,5
17,58058342272000,-0.040861044,4.099725,0.88532263,5
17,58058452318000,6.1700177,16.507862,5.706926,5
17,58058552233000,0.88532263,11.454713,-2.0294318,5
17,58058662310000,2.9556155,7.014479,-4.1814466,5
17,58058772295000,-0.61291564,7.5865335,0.14982383,5
17,58058882311000,3.1054392,9.765789,0.23154591,5
17,58058982317000,7.273266,9.724928,-0.7218784,5
17,58059092302000,3.1054392,11.795221,-1.7978859,5
17,58059202318000,1.334794,14.669114,-0.23154591,5
17,58059312303000,3.3778462,4.8216033,-0.14982383,5
17,58059412310000,0.46309182,5.5162406,3.1054392,5
17,58059522295000,4.7943625,15.5135765,5.706926,5
17,58059632311000,1.2258313,13.443283,-1.607201,5
17,58059742296000,3.5276701,9.275456,-3.2961242,5
17,58059842272000,1.1849703,7.3141265,-1.4573772,5
17,58059952318000,4.5628166,8.499097,-0.46309182,5
17,58060052233000,7.014479,11.536434,-0.10896278,5
17,58060162310000,2.6423476,12.367276,-1.879608,5
17,58060262316000,2.1111538,11.114203,0.53119355,5
17,58060362261000,2.070293,4.630918,-1.0351465,5
17,58060472277000,0.50395286,4.903325,2.7921712,5
17,58060572313000,3.0645783,15.704261,6.3607025,5
17,58060682299000,0.7627395,12.830367,-1.334794,5
17,58060792314000,3.990762,10.119919,-1.9477097,5
17,58060902300000,1.920469,6.891896,-1.7978859,5
17,58061002275000,4.7943625,8.008764,0.040861044,5
17,58061112291000,6.510526,11.836082,-0.6537767,5
17,58061222307000,1.334794,12.980191,-2.3699405,5
17,58061332292000,2.5333846,9.956474,-0.14982383,5
17,58061432238000,1.1849703,3.9499009,-0.6946377,5
17,58061542314000,2.5333846,5.8976107,4.140586,5
17,58061652300000,0.61291564,11.182305,5.6252036,5
17,58061762316000,1.1849703,8.689782,-1.7297841,5
17,58061862261000,2.7921712,10.501288,0.50395286,5
17,58061912340000,0.46309182,7.164303,-1.0760075,5
17,58062022325000,3.636633,9.043911,-0.46309182,5
17,58062132311000,7.43671,10.460427,-0.9942854,5
17,58062242296000,1.56634,11.304889,-1.334794,5
17,58062342272000,1.607201,14.328606,0.3405087,5
17,58062452318000,3.636633,4.944186,-0.19068487,5
17,58062552263000,0.5720546,4.8216033,2.152015,5
17,58062662310000,6.0882955,14.437569,5.8567495,5
17,58062762285000,1.607201,11.563675,-0.9942854,5
17,58062862505000,2.7240696,8.471856,-3.636633,5
17,58062962297000,0.313268,7.3958488,-0.10896278,5
17,58063062487000,3.1463003,9.343558,0.27240697,5
17,58063122270000,5.012288,8.962189,-0.7218784,5
17,58063232347000,7.668256,12.489859,-1.6480621,5
17,58063342302000,-0.08172209,14.47843,-3.8273177,5
17,58063452318000,4.5628166,8.471856,-1.2258313,5
17,58063552263000,0.50395286,3.990762,-0.7627395,5
17,58063602281000,1.1168685,4.5628166,2.2609777,5
17,58063712297000,5.09401,17.434046,5.938472,5
17,58063822313000,1.2666923,10.732834,-2.5606253,5
17,58063932299000,4.399372,10.61025,-1.4982382,5
17,58064042314000,2.3699405,7.4639506,-2.5606253,5
17,58064152300000,4.903325,8.730643,-0.88532263,5
17,58064262316000,7.8180795,11.413852,-1.334794,5
17,58064362230000,0.08172209,14.1787815,-2.6832085,5
17,58064472307000,2.2201166,10.228881,0.040861044,5
17,58064572283000,1.7570249,3.336985,-1.334794,5
17,58064682299000,1.7297841,5.6660647,4.1814466,5
17,58064792345000,-0.61291564,13.184497,6.66035,5
17,58064902300000,-0.08172209,7.6954966,-1.607201,5
17,58065002275000,3.9499009,10.310603,0.27240697,5
17,58065112291000,2.9556155,8.117727,-2.6423476,5
17,58065222307000,5.012288,9.043911,-0.42223078,5
17,58065332292000,6.2789803,13.33432,-2.6832085,5
17,58065432238000,0.10896278,14.859799,-4.1814466,5
17,58065482286000,0.8036005,13.143636,-0.46309182,5
17,58065592302000,3.1054392,4.8216033,-0.14982383,5
17,58065702318000,0.08172209,5.434519,2.4516625,5
17,58065812303000,5.7477865,16.698545,5.134871,5
17,58065922289000,1.2258313,12.489859,-3.0645783,5
17,58066032305000,4.140586,7.9270425,-2.5606253,5
17,58066142290000,1.6889231,7.5865335,-0.6946377,5
17,58066252306000,4.399372,9.043911,-0.7627395,5
17,58066352281000,7.9270425,11.495573,-0.19068487,5
17,58066462297000,1.3756552,11.563675,-1.8387469,5
17,58066562242000,1.6480621,10.882658,0.14982383,5
17,58066672289000,2.5606253,4.944186,-0.6946377,5
17,58066722154000,0.040861044,5.012288,0.6537767,5
17,58066832445000,6.4424243,13.33432,6.2789803,5
17,58066942308000,-0.27240697,13.143636,-1.6889231,5
17,58067042284000,1.4573772,5.5571017,-4.140586,5
17,58067152300000,-1.1441092,8.19945,0.6537767,5
17,58067262316000,3.9090397,8.894087,-0.3405087,5
17,58067362230000,4.944186,10.501288,-0.5720546,5
17,58067472307000,4.399372,11.34575,-2.0294318,5
17,58067572283000,1.56634,13.633968,-1.6889231,5
17,58067682299000,3.2961242,7.5865335,-0.9942854,5
17,58067792314000,0.5720546,5.434519,2.2201166,5
17,58067902300000,6.3607025,13.906375,5.938472,5
17,58068012316000,0.8036005,10.732834,-1.8387469,5
17,58068122301000,4.5219555,8.430995,-2.6014864,5
17,58068232317000,2.1792557,7.6273947,-0.50395286,5
17,58068342333000,3.568531,8.008764,-0.95342433,5
17,58068442308000,7.273266,11.645397,-0.08172209,5
17,58068552294000,2.070293,11.563675,-0.88532263,5
17,58068662310000,2.1111538,11.413852,-0.040861044,5
17,58068772295000,1.5390993,3.9090397,-1.1849703,5
17,58068872484000,1.334794,5.7477865,3.636633,5
17,58068982317000,2.7240696,12.980191,6.0474343,5
17,58069082262000,1.7570249,9.575105,-2.3018389,5
17,58069192308000,4.2495484,10.310603,-0.88532263,5
17,58069302294000,3.405087,7.9679036,-3.0645783,5
17,58069412310000,5.5162406,8.894087,-0.040861044,5
17,58069522295000,6.238119,12.217452,-1.4573772,5
17,58069632311000,-0.040861044,14.628253,-4.0588636,5
17,58069742327000,4.2904096,8.308413,-1.0351465,5
17,58069852312000,0.50395286,4.440233,-0.08172209,5
17,58069962297000,5.09401,10.378705,5.8567495,5
17,58070062273000,2.6423476,11.686258,0.08172209,5
17,58070172319000,0.42223078,4.3312707,-3.3642259,5
17,58070272264000,0.61291564,8.894087,0.53119355,5
17,58070372301000,3.568531,8.471856,-2.1111538,5
17,58070482317000,3.718355,9.656827,-0.50395286,5
17,58070582262000,7.7772183,11.264028,-1.3756552,5
17,58070692308000,0.27240697,14.206022,-3.636633,5
17,58070802294000,0.88532263,9.888372,-1.1168685,5
17,58070912340000,1.879608,4.3312707,-0.42223078,5
17,58071012255000,5.597963,7.3549876,6.2108784,5
17,58071122301000,-1.8387469,12.598822,6.66035,5
17,58071232317000,-0.27240697,8.308413,-2.2609777,5
17,58071342333000,1.879608,9.656827,-0.5720546,5
17,58071442247000,4.0180025,8.349273,-1.9477097,5
17,58071552294000,4.7535014,8.771504,-0.040861044,5
17,58071662310000,5.938472,12.299174,-2.3018389,5
17,58071762346000,-0.5720546,15.4046135,-4.2086873,5
17,58071862322000,3.214402,9.084772,-0.9125633,5
17,58071922228000,2.7921712,5.938472,-0.88532263,5
17,58072032305000,-0.08172209,4.440233,2.152015,5
17,58072142290000,4.9850473,16.507862,5.6252036,5
17,58072252306000,2.4516625,12.14935,-2.8738933,5
17,58072362291000,4.140586,9.507003,-2.3699405,5
17,58072472307000,1.334794,7.4639506,-0.95342433,5
17,58072572283000,3.7864566,8.471856,-0.29964766,5
17,58072682299000,7.43671,11.304889,-0.27240697,5
17,58072792314000,0.7218784,12.176591,-1.1168685,5
17,58072892259000,2.1111538,11.563675,0.46309182,5
17,58072992266000,1.9477097,4.4810944,-0.7218784,5
17,58073102312000,1.6480621,4.4810944,3.2961242,5
17,58073212297000,0.7218784,11.604536,6.8237944,5
17,58073322313000,1.0351465,9.956474,-2.5606253,5
17,58073422289000,3.445948,10.501288,-0.42223078,5
17,58073532305000,3.9090397,6.973618,-1.9885708,5
17,58073642290000,6.4424243,8.812365,-0.29964766,5
17,58073752306000,6.1291566,12.639683,-1.4982382,5
17,58073862291000,-0.7218784,15.213928,-3.255263,5
17,58073972307000,5.09401,7.014479,-0.50395286,5
17,58074072283000,0.14982383,4.4810944,0.10896278,5
17,58074182299000,3.636633,11.917805,5.6252036,5
17,58074292314000,2.4516625,13.525005,1.6889231,5
17,58074392259000,0.08172209,5.706926,-1.7570249,5
17,58074502306000,2.7921712,7.4639506,0.46309182,5
17,58074612291000,2.7921712,9.234595,0.08172209,5
17,58074722307000,7.246025,8.894087,-0.5720546,5
17,58074832292000,0.14982383,12.14935,-0.3405087,5
17,58074942308000,1.4165162,13.484144,1.607201,5
17,58075052294000,2.2609777,4.1814466,-0.7218784,5
17,58075162340000,1.1168685,5.47538,3.8273177,5
17,58075262316000,0.08172209,10.119919,6.782933,5
17,58075372484000,2.4925237,11.114203,-3.1054392,5
17,58075482317000,5.175732,11.604536,-1.2666923,5
17,58075582262000,1.9885708,7.164303,-3.1054392,5
17,58075632128000,3.173541,9.343558,0.23154591,5
17,58075742418000,5.597963,10.119919,-0.84446156,5
17,58075852312000,4.099725,11.264028,-2.1111538,5
17,58075962297000,1.2258313,15.554437,-1.2258313,5
17,58076062273000,3.759216,5.8567495,-0.19068487,5
17,58076172289000,0.27240697,4.5219555,2.5606253,5
17,58076282366000,7.7363577,12.408136,4.862464,5
17,58076382250000,1.607201,10.882658,-0.61291564,5
17,58076492296000,3.3778462,11.114203,-2.8330324,5
17,58076542528000,1.3075534,9.112013,0.7218784,5
17,58076652300000,4.6036777,8.008764,-1.4573772,5
17,58076762316000,4.7535014,10.460427,-0.29964766,5
17,58076872301000,4.862464,12.489859,-2.3699405,5
17,58076982317000,1.0760075,15.213928,-1.9477097,5
17,58077082262000,4.7535014,6.238119,0.14982383,5
17,58077192308000,-0.23154591,4.7943625,0.27240697,5
17,58077302294000,7.7363577,14.941522,5.5571017,5
17,58077402300000,0.84446156,12.598822,-0.9942854,5
17,58077512316000,1.607201,5.597963,-2.7513103,5
17,58077622301000,-0.46309182,8.308413,-0.23154591,5
17,58077732347000,2.0294318,9.043911,-0.50395286,5
17,58077842302000,5.8567495,9.466142,-0.8036005,5
17,58077952318000,2.0294318,12.9529505,-1.879608,5
17,58078052263000,1.8387469,14.015338,-0.7218784,5
17,58078162310000,3.3778462,5.7477865,-0.19068487,5
17,58078272295000,1.1849703,3.9499009,2.1111538,5
17,58078372270000,5.9793324,17.24336,6.851035,5
17,58078482317000,0.8036005,12.639683,-1.879608,5
17,58078582262000,3.7864566,8.049625,-0.29964766,5
17,58078692308000,0.46309182,9.615966,-2.6832085,5
17,58078802294000,3.990762,9.152874,-0.9942854,5
17,58078902330000,5.5162406,10.95076,-1.0351465,5
17,58079002306000,3.255263,11.073342,-1.4573772,5
17,58079112291000,1.7570249,13.6748295,0.08172209,5
17,58079222307000,2.4108016,4.3312707,-1.1849703,5
17,58079332292000,1.4982382,3.9090397,2.982856,5
17,58079432268000,0.3405087,17.161638,6.701211,5
17,58079542314000,-0.19068487,9.847511,-2.070293,5
17,58079652300000,4.7535014,10.732834,0.3405087,5
17,58079762316000,3.0645783,7.6273947,-2.4516625,5
17,58079872301000,4.671779,9.00305,-0.14982383,5
17,58079982317000,6.1291566,12.871228,-1.9885708,5
17,58080082323000,0.313268,14.818938,-4.2086873,5
17,58080192308000,3.336985,7.6273947,-1.2666923,5
17,58080292253000,0.8036005,4.2086873,-1.3075534,5
17,58080392229000,3.8273177,8.662541,5.284695,5
17,58080442339000,4.5219555,16.358038,5.325556,5
17,58080552294000,2.152015,11.604536,-3.405087,5
17,58080662340000,3.214402,8.580819,-3.636633,5
17,58080772936000,1.1168685,7.3141265,-1.1441092,5
17,58080882341000,4.630918,8.812365,-0.6946377,5
17,58080982317000,6.932757,10.882658,-0.6946377,5
17,58081082262000,1.1849703,12.4489975,-1.3075534,5
17,58081192308000,1.4982382,13.525005,0.23154591,5
17,58081292284000,3.445948,4.9850473,0.040861044,5
17,58081392229000,0.92618364,3.6774938,3.0645783,5
17,58081442308000,6.3607025,8.812365,5.47538,5
17,58081552294000,-0.6537767,13.756551,2.3426998,5
17,58081662310000,0.313268,6.742072,-2.5333846,5
17,58081772295000,0.8036005,8.19945,-0.10896278,5
17,58081882311000,3.8681788,8.471856,-1.0351465,5
17,58081992296000,5.434519,10.038197,-0.7627395,5
17,58082092302000,4.399372,12.721405,-2.8738933,5
17,58082202288000,1.0351465,14.750836,-2.4108016,5
17,58082312303000,3.9499009,7.164303,-0.50395286,5
17,58082412310000,0.6537767,4.0588636,0.50395286,5
17,58082522295000,4.2495484,15.636159,6.701211,5
17,58082632311000,2.8330324,10.800936,-2.5606253,5
17,58082742296000,4.2904096,8.471856,-3.486809,5
17,58082852281000,0.08172209,8.308413,-0.29964766,5
17,58082962328000,3.636633,8.771504,-0.3405087,5
17,58083062273000,6.3198414,10.56939,-0.5720546,5
17,58083172319000,3.445948,12.217452,-2.3699405,5
17,58083272264000,1.6889231,13.906375,-0.23154591,5
17,58083382311000,4.099725,5.7886477,-0.3405087,5
17,58083492296000,0.27240697,4.630918,1.7297841,5
17,58083592302000,4.4810944,16.698545,6.5922484,5
17,58083702318000,2.1111538,10.95076,-2.3018389,5
17,58083812303000,4.372132,9.152874,-2.7513103,5
17,58083912279000,0.42223078,7.668256,-0.50395286,5
17,58084022295000,1.9885708,8.962189,-0.08172209,5
17,58084132311000,7.3958488,10.501288,-0.50395286,5
17,58084242296000,1.3075534,12.108489,-1.4982382,5
17,58084352342000,2.1111538,13.0619135,0.6946377,5
17,58084402147000,4.7535014,7.3549876,-0.95342433,5
17,58084512438000,0.7627395,4.140586,-0.29964766,5
17,58084622301000,4.8216033,12.108489,5.8567495,5
17,58084732347000,2.7921712,11.727119,-0.61291564,5
17,58084842302000,1.9885708,6.2789803,-3.3642259,5
17,58084952318000,0.27240697,8.62168,0.14982383,5
17,58085062303000,4.372132,8.894087,-0.7218784,5
17,58085172319000,4.5219555,9.343558,-1.3075534,5
17,58085272264000,3.5276701,13.211738,-3.0237172,5
17,58085382280000,0.7627395,14.628253,-3.405087,5
17,58085492327000,5.175732,7.5865335,-0.84446156,5
17,58085592302000,-0.3405087,5.012288,0.7218784,5
17,58085702318000,5.366417,11.563675,6.0201936,5
17,58085812303000,1.7978859,12.299174,-1.1168685,5
17,58085912279000,1.334794,5.5571017,-4.140586,5
17,58085962267000,4.440233,11.114203,-0.9125633,5
17,58086062334000,1.6889231,7.504812,-1.4573772,5
17,58086172289000,3.0237172,8.730643,0.08172209,5
17,58086282305000,6.2789803,10.691973,-0.6946377,5
17,58086392290000,1.879608,11.686258,-1.9477097,5
17,58086502306000,2.4516625,12.571581,0.3405087,5
17,58086612291000,2.2201166,4.1814466,-0.5720546,5
17,58086722307000,1.56634,4.8216033,2.5606253,5
17,58086832323000,2.3699405,13.715691,7.014479,5
17,58086942308000,-0.23154591,9.275456,-0.61291564,5
17,58087052294000,4.1814466,10.691973,0.61291564,5
17,58087162310000,2.2201166,7.7363577,-2.4108016,5
17,58087272325000,5.5571017,8.240311,-0.5720546,5
17,58087382311000,6.851035,12.571581,-1.4573772,5
17,58087492296000,-0.5720546,15.854085,-5.012288,5
17,58087592272000,3.336985,8.430995,-1.0760075,5
17,58087702318000,1.0760075,2.7240696,-0.7218784,5
17,58087812303000,4.903325,9.575105,5.407278,5
17,58087912523000,2.152015,13.593107,1.9477097,5
17,58088022295000,0.7627395,7.3549876,-0.53119355,5
17,58088132311000,3.405087,9.466142,-0.0,5
17,58088242296000,2.9556155,7.9679036,-1.879608,5
17,58088292284000,3.405087,8.390134,0.38136974,5
17,58088392259000,4.4810944,12.367276,-1.525479,5
17,58088502306000,0.7627395,11.495573,-1.9477097,5
17,58088612291000,3.1054392,13.565866,0.313268,5
17,58088722307000,1.879608,4.5219555,-0.6537767,5
17,58088832292000,0.61291564,4.6036777,3.173541,5
17,58088942339000,4.0180025,13.593107,8.117727,5
17,58089052263000,0.50395286,10.269742,-0.0,5
17,58089162310000,1.1849703,9.084772,0.08172209,5
17,58089272295000,2.5606253,8.076866,-1.8387469,5
17,58089382311000,2.4108016,9.724928,-0.3405087,5
17,58089452410000,5.938472,10.991621,-0.10896278,5
17,58089562395000,1.4573772,11.304889,-2.2201166,5
17,58089672289000,1.9885708,13.021052,0.42223078,5
17,58089782305000,2.6014864,4.5219555,-0.6946377,5
17,58089892290000,1.2666923,5.134871,2.3018389,5
17,58090002306000,2.9147544,14.709975,5.829509,5
17,58090112322000,1.1849703,9.425281,-0.50395286,5
17,58090222307000,3.990762,10.991621,0.5720546,5
17,58090332292000,2.9147544,8.158588,-2.2201166,5
17,58090432299000,3.990762,9.112013,-0.3405087,5
17,58090542314000,5.829509,12.789507,-1.56634,5
17,58090652300000,-0.08172209,13.484144,-3.336985,5
17,58090702288000,1.920469,13.252599,-0.08172209,5
17,58090812303000,2.9147544,5.6252036,-0.50395286,5
17,58090912279000,1.4573772,5.325556,3.2961242,5
17,58091012255000,3.759216,14.7916975,5.706926,5
17,58091122331000,2.4108016,10.691973,-2.1792557,5
17,58091232347000,2.9556155,7.7772183,-3.336985,5
17,58091342302000,0.46309182,7.4639506,-0.23154591,5
17,58091442308000,2.6832085,9.00305,-0.3405087,5
17,58091552294000,7.164303,10.337844,-0.53119355,5
17,58091662310000,2.6423476,11.958665,-2.2609777,5
17,58091772295000,1.2666923,12.912089,-0.27240697,5
17,58091882311000,2.982856,5.7477865,-0.42223078,5
17,58091992296000,0.95342433,5.434519,3.214402,5
17,58092092272000,3.5276701,13.184497,6.2108784,5
17,58092202318000,0.8036005,11.75436,-1.6889231,5
17,58092312303000,3.405087,8.812365,-2.9556155,5
17,58092412310000,0.6537767,7.205164,-0.6946377,5
17,58092522295000,2.7649305,9.00305,0.19068487,5
17,58092632311000,8.281172,11.264028,-0.23154591,5
17,58092742296000,-0.0,12.871228,-1.607201,5
17,58092852312000,2.982856,11.114203,0.46309182,5
17,58092962297000,1.7297841,4.1814466,-0.95342433,5
17,58093072313000,2.4108016,6.4424243,3.636633,5
17,58093182299000,0.92618364,12.680544,6.0882955,5
17,58093232195000,0.5720546,12.489859,-2.4516625,5
17,58093342302000,2.6423476,7.014479,-4.140586,5
17,58093442278000,0.040861044,7.6954966,0.14982383,5
17,58093552324000,3.9090397,8.962189,0.5720546,5
17,58093662310000,6.1291566,10.460427,-0.6946377,5
17,58093772295000,3.568531,11.141444,-1.7570249,5
17,58093882311000,1.56634,13.593107,-0.10896278,5
17,58093992296000,3.3778462,5.325556,-0.08172209,5
17,58094092272000,1.920469,5.2165933,3.3778462,5
17,58094202349000,2.070293,15.132206,6.1700177,5
17,58094312303000,2.2609777,10.419566,-1.9885708,5
17,58094412279000,1.879608,9.697687,-0.42223078,5
17,58094522295000,2.5333846,7.6273947,-1.525479,5
17,58094632311000,4.099725,9.00305,-0.29964766,5
17,58094742296000,7.7772183,10.923519,-0.84446156,5
17,58094852312000,-0.42223078,12.980191,-1.7570249,5
17,58094962328000,3.2961242,10.18802,0.040861044,5
17,58095072313000,1.4573772,4.1814466,-0.46309182,5
17,58095182329000,3.173541,6.1291566,3.173541,5
17,58095286028000,-0.5720546,15.785983,6.0474343,5
17,58095342241000,3.3778462,8.730643,-3.336985,5
17,58095442308000,4.7126403,9.575105,-3.1054392,5
17,58095552294000,1.0351465,7.6954966,-0.46309182,5
17,58095662310000,3.759216,8.430995,-0.14982383,5
17,58095772295000,7.014479,10.651112,-0.14982383,5
17,58095882311000,0.8036005,12.067628,-1.4982382,5
17,58095992296000,2.9556155,12.53072,1.1168685,5
17,58096092302000,2.4925237,4.2495484,-0.8036005,5
17,58096202318000,0.7218784,4.5219555,2.8738933,5
17,58096312303000,3.2961242,14.246883,7.0553403,5
17,58096412279000,0.6537767,10.56939,-1.3756552,5
17,58096522295000,3.336985,10.378705,0.3405087,5
17,58096632311000,2.6423476,7.8180795,-1.4573772,5
17,58096742296000,3.8273177,8.19945,0.19068487,5
17,58096852312000,6.891896,11.34575,-0.9125633,5
17,58096962297000,0.42223078,13.293459,-1.879608,5
17,58097072344000,2.982856,10.732834,0.38136974,5
17,58097182299000,1.3756552,3.8681788,-0.6537767,5
17,58097292314000,3.759216,6.891896,3.9090397,5
17,58097402269000,0.313268,13.525005,5.134871,5
17,58097512346000,2.2609777,7.9679036,-1.525479,5
17,58097622301000,1.1441092,8.894087,0.42223078,5
17,58097732347000,3.636633,8.281172,-1.334794,5
17,58097842302000,4.099725,9.112013,-0.23154591,5
17,58097942308000,6.1291566,13.565866,-1.9885708,5
17,58098052294000,-0.7218784,14.437569,-3.8681788,5
17,58098162310000,4.3312707,7.9270425,-1.0760075,5
17,58098282366000,0.53119355,4.671779,0.9942854,5
17,58098392321000,5.706926,15.4046135,5.6252036,5
17,58098452257000,0.19068487,12.53072,5.284695,5
17,58098562303000,2.4108016,8.662541,-1.7297841,5
17,58098672289000,1.6889231,10.310603,1.1168685,5
17,58098782305000,3.0237172,7.6954966,-2.070293,5
17,58098892290000,4.140586,9.302697,-0.3405087,5
17,58098992266000,6.238119,12.912089,-1.920469,5
17,58099092272000,-0.3405087,14.560152,-3.255263,5
17,58099202318000,3.405087,9.00305,-0.29964766,5
17,58099312303000,1.2258313,4.6036777,-0.53119355,5
17,58099412279000,1.4165162,6.701211,3.405087,5
17,58099462328000,6.851035,16.017529,6.238119,5
17,58099572313000,0.53119355,11.563675,-0.88532263,5
17,58099682299000,2.3699405,6.238119,-4.4810944,5
17,58099792314000,0.5720546,7.6954966,0.19068487,5
17,58099902300000,2.8330324,9.302697,0.19068487,5
17,58100012316000,6.66035,10.419566,-0.84446156,5
17,58100122331000,2.7649305,11.372991,-1.920469,5
17,58100232317000,2.4925237,13.865514,0.23154591,5
17,58100342333000,2.4925237,5.2165933,-0.61291564,5
17,58100442278000,1.1849703,4.944186,2.9556155,5
17,58100552294000,5.366417,15.704261,4.671779,5
17,58100662310000,2.1792557,10.841797,-2.7240696,5
17,58100712267000,1.334794,7.4639506,-0.95342433,5
17,58100822313000,1.9477097,10.038197,0.19068487,5
17,58100922258000,3.2961242,8.240311,-1.9477097,5
17,58101032305000,5.706926,8.499097,-0.27240697,5
17,58101142290000,6.0882955,12.9529505,-1.7570249,5
17,58101252306000,1.0351465,13.525005,-4.671779,5
17,58101362291000,3.990762,8.308413,-0.9942854,5
17,58101462267000,0.42223078,5.434519,0.3405087,5
17,58101512285000,1.0760075,5.8567495,2.9556155,5
17,58101622301000,6.932757,13.906375,4.399372,5
17,58101732317000,2.0294318,11.114203,-1.3756552,5
17,58101842302000,3.636633,8.240311,-2.6423476,5
17,58101942278000,0.8036005,7.668256,-0.46309182,5
17,58102052294000,3.1463003,8.539958,-0.29964766,5
17,58102102129000,5.175732,9.234595,-0.6537767,5
17,58102212297000,6.1700177,13.375181,-1.7978859,5
17,58102322283000,0.84446156,13.525005,-3.9499009,5
17,58102422258000,4.7943625,7.5456724,-0.38136974,5
17,58102532274000,0.27240697,5.243834,-0.23154591,5
17,58102642290000,4.2904096,9.425281,5.2165933,5
17,58102752306000,1.6480621,12.14935,-0.53119355,5
17,58102862291000,1.4165162,5.8976107,-3.1463003,5
17,58102972307000,0.61291564,8.580819,0.313268,5
17,58103072283000,4.099725,9.425281,-0.5720546,5
17,58103182299000,4.903325,8.662541,-0.6537767,5
17,58103292314000,5.175732,13.293459,-1.920469,5
17,58103402330000,1.1849703,14.519291,-3.214402,5
17,58103512316000,4.099725,7.43671,-0.3405087,5
17,58103612322000,0.50395286,4.5628166,0.42223078,5
17,58103722307000,5.5571017,14.1787815,5.8976107,5
17,58103832292000,2.8330324,10.841797,-1.525479,5
17,58103932268000,3.1054392,6.4015636,-3.445948,5
17,58104042314000,0.3405087,8.539958,-0.23154591,5
17,58104152300000,3.8681788,9.343558,-0.3405087,5
17,58104262316000,6.1700177,9.847511,-0.9942854,5
17,58104372301000,3.3778462,11.727119,-1.7570249,5
17,58104472246000,0.95342433,14.560152,-0.6946377,5
17,58104582292000,4.2904096,5.706926,0.08172209,5
17,58104692308000,0.10896278,4.8216033,1.0760075,5
17,58104802324000,6.1700177,17.583868,5.938472,5
17,58104912310000,0.9942854,10.760075,-1.6480621,5
17,58105012255000,3.3778462,6.66035,-3.173541,5
17,58105112291000,-0.0,7.9270425,0.08172209,5
17,58105222307000,3.336985,9.00305,-0.3405087,5
17,58105332292000,5.706926,9.956474,-0.9125633,5
17,58105432299000,3.9090397,12.258313,-2.982856,5
17,58105542284000,0.61291564,14.982383,-2.4516625,5
17,58105652300000,4.0180025,6.4424243,-0.50395286,5
17,58105762316000,0.27240697,4.4810944,1.2258313,5
17,58105872301000,5.366417,16.780268,6.782933,5
17,58105982347000,2.1792557,10.310603,-2.1383946,5
17,58106082262000,4.0180025,7.6954966,-3.636633,5
17,58106192308000,-0.23154591,7.8861814,-0.29964766,5
17,58106292345000,2.6832085,9.302697,0.10896278,5
17,58106402300000,6.742072,9.765789,-0.95342433,5
17,58106512316000,2.4925237,12.026767,-2.1111538,5
17,58106612291000,1.334794,14.015338,-0.53119355,5
17,58106722277000,4.140586,6.0474343,-0.040861044,5
17,58106832292000,0.38136974,4.6036777,1.8387469,5
17,58106932329000,5.243834,16.821129,6.2789803,5
17,58107042314000,1.56634,11.34575,-1.1849703,5
17,58107142595000,3.405087,7.0553403,-3.718355,5
17,58107252336000,0.040861044,8.499097,-0.08172209,5
17,58107312273000,3.3778462,8.076866,-2.3426998,5
17,58107422289000,4.9850473,8.689782,0.040861044,5
17,58107532305000,5.8567495,12.789507,-0.9942854,5
17,58107642290000,1.4573772,14.7916975,-4.1814466,5
17,58107752306000,3.990762,8.076866,-0.6946377,5
17,58107862291000,0.8036005,4.862464,-0.46309182,5
17,58107962267000,3.990762,9.343558,5.012288,5
17,58108072344000,1.3075534,12.980191,1.9885708,5
17,58108182299000,2.070293,7.5456724,-2.1111538,5
17,58108292314000,1.1441092,9.656827,0.23154591,5
17,58108402300000,4.2086873,8.499097,-0.95342433,5
17,58108512316000,5.012288,9.043911,-0.84446156,5
17,58108612291000,4.7535014,13.402422,-2.6423476,5
17,58108722307000,0.84446156,14.519291,-3.8681788,5
17,58108832292000,4.944186,7.3958488,-0.7627395,5
17,58108932268000,0.46309182,5.325556,-0.0,5
17,58109042314000,4.7943625,10.079058,5.829509,5
17,58109152330000,1.56634,12.980191,-1.2666923,5
17,58109262346000,2.070293,6.891896,-2.7921712,5
17,58109372301000,0.53119355,9.043911,-0.08172209,5
17,58109472399000,4.2495484,8.730643,-0.3405087,5
17,58109582292000,4.7126403,8.730643,-0.46309182,5
17,58109692308000,4.9850473,13.525005,-2.3426998,5
17,58109802263000,0.61291564,14.709975,-3.3642259,5
17,58109912310000,5.284695,7.43671,-0.3405087,5
17,58110022295000,0.46309182,4.399372,0.27240697,5
17,58110132341000,8.076866,15.4046135,6.3607025,5
17,58110242296000,0.84446156,9.915613,-2.7240696,5
17,58110352312000,2.4108016,7.6273947,-4.399372,5
17,58110452257000,0.88532263,7.7772183,-0.27240697,5
17,58110562303000,3.405087,8.662541,0.42223078,5
17,58110672319000,5.134871,9.765789,-0.88532263,5
17,58110782305000,3.2961242,11.727119,-1.7570249,5
17,58110892290000,2.4108016,14.328606,-0.50395286,5
17,58110992266000,2.9556155,4.9850473,-0.7218784,5
17,58111042192000,0.8036005,3.718355,-0.88532263,5
17,58111152330000,3.3778462,7.7363577,3.3778462,5
17,58111262316000,2.6014864,12.367276,3.8681788,5
17,58111372301000,-0.61291564,6.891896,0.27240697,5
17,58111472307000,2.982856,9.956474,0.6537767,5
17,58111582292000,3.1463003,8.308413,-2.5606253,5
17,58111692308000,4.8216033,8.812365,-0.14982383,5
17,58111802294000,4.903325,14.560152,-2.1792557,5
17,58111912340000,0.84446156,13.865514,-4.2086873,5
17,58112022295000,4.140586,7.668256,-0.7218784,5
17,58112132311000,0.9942854,5.09401,0.42223078,5
17,58112242296000,6.932757,11.34575,6.1700177,5
17,58112352312000,1.56634,12.108489,-0.5720546,5
17,58112452288000,2.4925237,6.238119,-4.2495484,5
17,58112562303000,-0.50395286,7.8589406,0.040861044,5
17,58112672289000,2.982856,9.084772,-0.3405087,5
17,58112782305000,4.8216033,9.765789,-1.0351465,5
17,58112892290000,4.7535014,13.865514,-2.2609777,5
17,58112992235000,1.4165162,14.328606,-3.0645783,5
17,58113092241000,4.3312707,7.5865335,-0.42223078,5
17,58113202440000,0.23154591,4.399372,-0.23154591,5
17,58113262285000,1.879608,5.284695,3.405087,5
17,58113372301000,2.7921712,11.876944,7.0553403,5
17,58113472277000,1.6889231,10.038197,-1.1441092,5
17,58113582292000,2.982856,10.419566,-0.27240697,5
17,58113692308000,2.7649305,7.9270425,-2.6832085,5
17,58113802294000,4.9850473,8.349273,-0.23154591,5
17,58113912340000,6.66035,12.408136,-0.8036005,5
17,58114022295000,1.6889231,11.604536,-3.1054392,5
17,58114122301000,2.4925237,9.575105,-0.08172209,5
17,58114232347000,2.1792557,5.243834,-0.42223078,5
17,58114342302000,2.9147544,6.6331096,4.440233,5
17,58114442278000,1.4982382,13.402422,4.0588636,5
17,58114552324000,1.1441092,5.8976107,-3.255263,5
17,58114662310000,1.334794,8.771504,0.9942854,5
17,58114772295000,3.568531,8.308413,-1.334794,5
17,58114882311000,4.2086873,9.575105,-0.19068487,5
17,58114982317000,5.6660647,12.680544,-2.4516625,5
17,58115092302000,0.7627395,13.484144,-2.8330324,5
17,58115202318000,5.5162406,7.273266,-0.29964766,5
17,58115302538000,0.040861044,4.7943625,0.7627395,5
17,58115412340000,4.440233,13.402422,6.4424243,5
17,58115472307000,2.2609777,13.0619135,5.325556,5
17,58115582292000,1.3075534,9.302697,-1.0760075,5
17,58115692308000,4.2086873,10.95076,0.53119355,5
17,58115802294000,2.9147544,7.8861814,-2.1111538,5
17,58115912340000,5.5571017,8.308413,-0.19068487,5
17,58116022295000,5.9793324,12.639683,-1.525479,5
17,58116092302000,1.0760075,12.680544,-1.525479,5
17,58116202379000,3.568531,11.604536,0.6946377,5
17,58116262255000,3.6774938,6.0882955,-0.38136974,5
17,58116372301000,0.5720546,4.2086873,0.92618364,5
17,58116472277000,5.325556,16.467001,5.706926,5
17,58116582292000,2.6423476,11.454713,-2.3699405,5
17,58116692339000,3.6774938,6.891896,-4.140586,5
17,58116802294000,0.10896278,8.158588,0.040861044,5
17,58116912310000,3.2961242,9.00305,0.46309182,5
17,58117012285000,6.0882955,10.732834,-0.8036005,5
17,58117112261000,2.6014864,11.645397,-1.920469,5
17,58117222307000,2.7649305,13.443283,-0.14982383,5
17,58117332292000,3.718355,5.012288,-0.38136974,5
17,58117442339000,1.0351465,4.1814466,2.6014864,5
17,58117552294000,6.1291566,15.472715,5.8567495,5
17,58117662310000,1.1849703,9.997335,-1.6889231,5
17,58117772325000,3.759216,10.378705,-0.3405087,5
17,58117882311000,2.1792557,7.7772183,-1.7570249,5
17,58117982317000,4.8216033,8.076866,0.040861044,5
17,58118052294000,5.2165933,9.888372,-0.95342433,5
17,58118162340000,3.568531,12.639683,-2.4108016,5
17,58118272295000,2.070293,13.6748295,-0.10896278,5
17,58118382280000,3.445948,4.671779,-0.42223078,5
17,58118482256000,0.95342433,3.9090397,2.152015,5
17,58118532274000,4.2086873,8.117727,5.243834,5
17,58118642290000,0.8036005,14.015338,4.903325,5
17,58118752306000,0.6537767,7.0553403,-0.95342433,5
17,58118862291000,1.9477097,8.894087,0.61291564,5
17,58118962236000,3.2961242,8.62168,-2.4108016,5
17,58119012316000,3.336985,8.499097,0.23154591,5
17,58119112261000,7.246025,10.760075,-0.84446156,5
17,58119222307000,1.9885708,12.53072,-2.3699405,5
17,58119332292000,2.0294318,13.402422,0.46309182,5
17,58119442308000,2.8738933,3.5276701,-0.53119355,5
17,58119552294000,1.7297841,4.372132,2.6832085,5
17,58119662310000,0.7627395,12.9529505,6.3198414,5
17,58119712114000,3.636633,11.264028,-1.7570249,5
17,58119822313000,4.2086873,6.0882955,-3.255263,5
17,58119932268000,-0.7218784,8.349273,0.23154591,5
17,58120042314000,3.336985,9.084772,-0.29964766,5
17,58120152330000,6.510526,10.419566,-1.1168685,5
17,58120262316000,1.879608,11.958665,-1.525479,5
17,58120372301000,2.3018389,13.593107,0.7218784,5
17,58120472246000,3.636633,3.9499009,-0.19068487,5
