user-id,timestamp,accX,accY,accZ,ActivityEncoded
24,15323581735000,-6.32,-2.98,9.72,1
24,15323621652000,-0.69,-7.82,8.73,1
24,15323661508000,4.18,-13.21,6.7,1
24,15323741617000,-5.13,-17.92,1.65,1
24,15323781503000,-5.86,-13.48,-1.8,1
24,15323821939000,-7.44,-18.81,-1.31,1
24,15323861673000,-4.18,-17.08,4.21,1
24,15323941599000,12.53,-8.5,6.74,1
24,15323981485000,17.2,0.89,-5.94,1
24,15324021585000,0.57,0.84,-14.98,1
24,15324061624000,-2.76,-8.24,-3.38,1
24,15324141611000,8.24,-19.61,6.05,1
24,15324181650000,-2.68,-19.61,11.18,1
24,15324221658000,-6.7,-15.62,5.2,1
24,15324261514000,-8.66,-8.77,-4.1,1
24,15324301737000,-14.82,0.11,-4.18,1
24,15324392069000,-5.48,0.84,0.76,1
24,15324431497000,-1.33,-5.43,6.55,1
24,15324471658000,1.23,-16.51,7.01,1
24,15324511545000,-1.27,-19.61,5.67,1
24,15324591470000,-4.1,-19.61,2.07,1
24,15324631662000,-5.6,-19.61,2.18,1
24,15324671671000,2.98,-15.7,4.99,1
24,15324711649000,9.62,-5.63,8.5,1
24,15324791483000,12.49,2.72,-1.04,1
24,15324831522000,7.89,4.14,0.08,1
24,15324871652000,1.88,-1.31,0.5,1
24,15324911661000,-0.57,-14.71,4.59,1
24,15324991617000,-16.7,-19.61,4.94,1
24,15325031503000,-9.62,-12.03,0.91,1
24,15325071634000,-8.58,-7.25,-9.92,1
24,15325112161000,-16.66,6.59,-13.06,1
24,15325192148000,-2.96,-3.17,9.15,1
24,15325231485000,3.95,-10.84,8.58,1
24,15325271555000,3.95,-16.59,4.82,1
24,15325311502000,-2.49,-19.61,3.34,1
24,15325391489000,-5.43,-18.89,-0.31,1
24,15325431650000,-5.63,-19.5,2.72,1
24,15325471628000,-2.6,-13.99,6.05,1
24,15325511667000,5.18,-8.2,7.35,1
24,15325591654000,19.27,-1.31,-1.46,1
24,15325631662000,8.73,2.83,-7.25,1
24,15325671671000,-5.98,-3.26,-1.31,1
24,15325711649000,0.69,-16.47,4.99,1
24,15325791635000,-18.35,-19.61,7.35,1
24,15325831491000,-8.85,-13.17,1.33,1
24,15325871652000,-10.23,-5.71,-6.21,1
24,15325911691000,-19.53,5.56,-15.05,1
24,15325991434000,-6.93,-2.49,8.27,1
24,15326031656000,-0.8,-13.48,13.29,1
24,15326071665000,9.72,-16.32,12.95,1
24,15326111490000,4.21,-19.42,3.6,1
24,15326151560000,-9.38,-19.3,-3.21,1
24,15326241831000,-7.74,-18.28,3.72,1
24,15326281503000,-5.75,-11.11,10.88,1
24,15326321634000,2.11,-6.82,7.97,1
24,15326361704000,12.95,-5.33,9.34,1
24,15326443186000,-5.37,4.4,-7.21,1
24,15326481638000,2.03,-13.48,2.45,1
24,15326522135000,0.46,-19.61,6.78,1
24,15326641397000,-7.06,-12.98,0.76,1
24,15326641397000,-7.06,-12.98,0.76,1
24,15326681894000,-13.99,-6.13,-6.21,1
24,15326721506000,-19.57,6.85,-16.4,1
24,15326761484000,-12.95,8.85,-13.06,1
24,15326841593000,0.11,-8.47,6.21,1
24,15326881662000,-0.72,-17.16,5.05,1
24,15326921671000,-3.72,-19.61,4.86,1
24,15326961466000,-3.76,-17.86,1.14,1
24,15327041696000,-6.05,-19.61,4.4,1
24,15327081674000,-0.89,-15.01,3.76,1
24,15327121652000,5.2,-11.84,3.95,1
24,15327161630000,17.24,-7.93,1.65,1
24,15327241617000,-8.08,2.72,-9.28,1
24,15327281626000,-0.04,-11.07,0.53,1
24,15327321634000,6.89,-19.27,-0.27,1
24,15327361551000,5.67,-19.61,8.01,1
24,15327441629000,-10.88,-14.79,1.38,1
24,15327481638000,-10.23,-8.39,-14.18,1
24,15327521524000,-10.84,7.25,-19.53,1
24,15327561472000,5.09,6.55,-16.13,1
24,15327641489000,-12.11,-10.65,9.11,1
24,15327681650000,-2.41,-10.76,6.74,1
24,15327721720000,-1.5,-18.77,5.33,1
24,15327761667000,-6.02,-19.0,0.89,1
24,15327841470000,-5.28,-19.04,1.38,1
24,15327888712000,-0.57,-13.29,-3.11,1
24,15327926248000,2.72,-11.54,4.56,1
24,15327961893000,11.11,-7.44,8.73,1
24,15328041666000,-3.53,5.86,-11.22,1
24,15328081491000,1.46,-7.97,-0.61,1
24,15328121622000,2.41,-18.81,5.13,1
24,15328161661000,-6.21,-19.61,6.7,1
24,15328241647000,-5.13,-11.95,-1.5,1
24,15328281503000,-5.28,-7.63,-3.57,1
24,15328322122000,-11.18,-0.8,-5.24,1
24,15328362009000,-18.96,15.24,-7.55,1
24,15328441629000,4.56,-4.18,8.92,1
24,15328481577000,5.43,-17.43,3.26,1
24,15328521494000,-4.79,-19.61,-0.76,1
24,15328561533000,-5.67,-18.73,0.23,1
24,15328641672000,-7.27,-19.08,2.56,1
24,15328681650000,-5.98,-16.44,4.37,1
24,15328721658000,0.57,-8.66,3.64,1
24,15328761667000,6.43,-9.3,1.38,1
24,15328841623000,3.02,3.41,-15.47,1
24,15328881632000,-3.87,-8.16,-0.27,1
24,15328921640000,3.36,-18.77,1.42,1
24,15328961588000,-0.04,-19.61,6.32,1
24,15329041666000,-8.12,-15.7,1.12,1
24,15329081705000,-5.63,-8.31,-10.92,1
24,15329121622000,-14.56,5.83,-11.22,1
24,15329161539000,-17.31,16.21,-12.64,1
24,15329241647000,-1.42,-5.56,2.68,1
24,15329281503000,-3.53,-17.97,1.92,1
24,15329321481000,-9.51,-19.61,-0.69,1
24,15329361673000,-5.94,-18.54,0.0,1
24,15329441629000,-5.9,-18.89,2.07,1
24,15329481668000,-3.06,-15.13,5.13,1
24,15329521646000,1.8,-8.31,5.13,1
24,15329561624000,13.02,-4.06,7.46,1
24,15329641641000,-12.26,2.49,-10.34,1
24,15329681680000,2.18,-12.3,1.38,1
24,15329721628000,5.48,-18.96,1.92,1
24,15329801523000,-9.23,-18.96,2.98,1
24,15329841654000,-6.55,-8.92,-6.13,1
24,15329881662000,-9.43,-6.85,-5.28,1
24,15329921671000,-18.89,7.89,-11.07,1
24,15329961527000,-13.57,7.97,-5.63,1
24,15330041696000,-0.5,-7.86,3.17,1
24,15330081674000,-4.37,-19.46,2.37,1
24,15330121530000,-7.93,-19.61,-0.95,1
24,15330161661000,-3.49,-16.78,0.89,1
24,15330241586000,-0.99,-19.23,6.51,1
24,15330281626000,4.37,-12.53,7.27,1
24,15330321634000,12.64,-6.24,4.99,1
24,15330361643000,18.39,1.27,-2.07,1
24,15330441477000,-3.3,-5.43,-1.38,1
24,15330481638000,0.3,-18.58,3.3,1
24,15330521646000,-3.68,-19.61,6.66,1
24,15330561502000,-17.88,-19.61,7.04,1
24,15330641641000,-10.88,-4.21,-1.54,1
24,15330681650000,-8.5,8.69,-16.09,1
24,15330721506000,-1.57,6.82,-18.16,1
24,15330761667000,-7.08,-1.73,0.11,1
24,15330841623000,-2.49,-13.78,5.28,1
24,15330881662000,-6.02,-19.53,3.79,1
24,15330921518000,-5.94,-18.43,-0.19,1
24,15330961649000,-4.21,-15.13,0.11,1
24,15331041513000,-3.49,-14.02,1.92,1
24,15331081674000,-0.27,-9.77,2.3,1
24,15331121683000,2.53,-9.77,5.67,1
24,15331161691000,16.93,-4.4,7.78,1
24,15331241800000,-11.45,-6.63,-3.38,1
24,15331281656000,3.11,-14.37,-1.04,1
24,15331321481000,5.56,-19.61,0.15,1
24,15331361704000,2.87,-19.61,7.93,1
24,15331441507000,-4.99,-9.34,-9.92,1
24,15331481668000,-15.7,-1.65,-15.51,1
24,15331521524000,-19.0,17.08,-16.97,1
24,15331567423000,-5.71,0.76,1.76,1
24,15331608072000,-1.27,-8.47,5.33,1
24,15331691446000,-3.3,-19.61,1.57,1
24,15331732065000,-2.68,-16.89,0.42,1
24,15331771524000,-3.11,-16.02,1.65,1
24,15331811685000,-5.75,-19.57,5.67,1
24,15331891641000,-0.65,-7.16,3.06,1
24,15331931650000,5.98,-3.3,6.59,1
24,15331971658000,18.69,3.3,3.49,1
24,15332011636000,-4.44,1.88,-14.33,1
24,15332091623000,5.24,-15.79,0.89,1
24,15332131601000,3.17,-19.61,5.82,1
24,15332171488000,-10.42,-19.61,5.71,1
24,15332211405000,-8.58,-17.58,1.61,1
24,15332291635000,-10.31,-3.41,-1.8,1
24,15332331674000,-19.27,14.79,-10.34,1
24,15332374765000,-10.69,9.38,0.65,1
24,15332412424000,-1.33,-2.72,6.28,1
24,15332491403000,-3.38,-19.61,0.69,1
24,15332532297000,-5.75,-19.61,1.31,1
24,15332571512000,-3.53,-15.32,0.95,1
24,15332611704000,-3.87,-15.24,0.46,1
24,15332691660000,-3.3,-12.83,4.14,1
24,15332731638000,0.15,-9.3,5.48,1
24,15332771524000,7.89,-5.09,8.62,1
24,15332811685000,19.42,4.99,4.56,1
24,15332891489000,-2.79,-13.02,2.96,1
24,15332931619000,3.15,-19.0,2.91,1
24,15332971536000,2.49,-19.61,5.2,1
24,15333011453000,1.5,-19.27,2.75,1
24,15333091470000,-9.62,-2.83,0.08,1
24,15333131723000,-9.85,10.76,-17.62,1
24,15333171518000,6.24,7.93,-14.67,1
24,15333211496000,-10.69,0.8,-0.42,1
24,15333291605000,-6.4,-18.5,-0.61,1
24,15333331491000,-5.22,-19.61,0.11,1
24,15333371622000,-3.79,-16.02,-1.04,1
24,15333411630000,-6.59,-18.54,-1.76,1
24,15333491617000,-9.3,-11.03,3.06,1
24,15333531687000,-9.92,-9.62,0.0,1
24,15333571634000,-18.01,-5.52,3.98,1
24,15333611643000,-6.09,1.76,13.57,1
24,15333691599000,-0.99,-7.86,0.19,1
24,15333731638000,-6.89,-18.28,2.53,1
24,15333771646000,-18.24,-19.61,10.27,1
24,15333811502000,-17.82,15.51,-12.41,1
24,15333971262000,-18.12,15.51,-12.41,1
24,15333971262000,-18.12,15.51,-12.41,1
24,15333971262000,-18.12,15.51,-12.41,1
24,15334011484000,-9.81,3.83,6.89,1
24,15334091593000,3.57,-15.75,5.82,1
24,15334132822000,0.53,-19.61,2.53,1
24,15334171640000,-5.67,-19.42,1.65,1
24,15334211557000,-5.9,-15.32,0.04,1
24,15334291605000,-6.44,-17.08,3.36,1
24,15334331644000,0.34,-9.43,5.56,1
24,15334371622000,8.69,-7.74,5.86,1
24,15334411630000,17.54,-3.79,-1.23,1
24,15334491464000,-10.53,0.19,-4.02,1
24,15334531931000,2.11,-14.52,1.61,1
24,15334571634000,5.2,-19.61,1.84,1
24,15334611673000,-3.06,-19.61,12.22,1
24,15334691477000,-6.59,-10.08,3.64,1
24,15334731577000,-8.81,-3.95,-4.44,1
24,15334771829000,-18.16,4.6,-16.55,1
24,15334811502000,-16.32,4.9,-9.53,1
24,15334891519000,-1.95,-4.56,2.96,1
24,15334931650000,-4.48,-17.2,4.02,1
24,15334971658000,-7.67,-19.61,2.34,1
24,15335011606000,-4.18,-16.13,1.14,1
24,15335091470000,-6.74,-19.34,6.24,1
24,15335131632000,-1.42,-13.14,4.37,1
24,15335171579000,4.29,-9.38,3.95,1
24,15335211557000,16.7,-7.21,2.45,1
24,15335291635000,-9.04,2.45,-4.4,1
24,15335331613000,0.57,-14.14,2.49,1
24,15335371500000,4.63,-19.61,0.65,1
24,15335413980000,-0.65,-19.61,9.72,1
24,15335491464000,-6.66,-9.81,2.22,1
24,15335532053000,-9.19,-5.24,-5.86,1
24,15335571634000,-15.51,9.51,-16.32,1
24,15335611673000,-8.12,9.85,-12.95,1
24,15335691599000,-3.15,-10.53,6.93,1
24,15335732187000,-2.76,-18.89,4.33,1
24,15335771494000,-6.74,-19.61,0.84,1
24,15335811502000,-4.4,-16.78,-0.23,1
24,15335891489000,-4.52,-17.82,1.18,1
24,15335931619000,-2.22,-12.91,2.68,1
24,15335971506000,0.11,-7.12,5.94,1
24,15336011453000,7.12,-2.03,9.34,1
24,15336091593000,4.18,1.88,-4.44,1
24,15336131510000,-1.54,-6.17,-3.34,1
24,15336171457000,1.12,-17.2,2.91,1
24,15336211618000,8.66,-19.61,-0.61,1
24,15336291483000,-3.02,-14.79,3.3,1
24,15336331644000,-7.12,-8.81,-3.99,1
24,15336371622000,-14.71,-0.76,-12.37,1
24,15336416208000,-17.01,14.06,-9.3,1
24,15336491953000,-1.14,-4.4,5.24,1
24,15336532266000,0.19,-18.16,4.25,1
24,15336571573000,-2.96,-19.61,1.61,1
24,15336611490000,-4.37,-18.62,0.61,1
24,15336691477000,-4.25,-19.5,1.04,1
24,15336731638000,-2.83,-14.06,3.6,1
24,15336771646000,0.99,-8.2,4.48,1
24,15336811655000,5.52,-7.35,4.86,1
24,15336891641000,6.93,5.37,-7.08,1
24,15336932840000,-4.63,-1.61,0.11,1
24,15336971628000,1.61,-15.32,1.08,1
24,15337011606000,2.75,-19.61,-1.88,1
24,15337091409000,4.67,-18.35,5.41,1
24,15337131632000,-0.61,-8.27,8.39,1
24,15337171762000,-7.01,-1.04,13.48,1
24,15337211527000,-5.13,8.92,18.85,1
24,15337291605000,8.62,-5.13,-0.65,1
24,15337331644000,7.59,-17.12,-3.87,1
24,15337371500000,0.46,-19.61,-3.83,1
24,15337411661000,-15.32,-19.04,-1.33,1
24,15337491464000,9.85,-19.61,4.33,1
24,15337531595000,-0.72,-16.74,8.35,1
24,15337571512000,1.08,-6.17,-0.76,1
24,15337615213000,-1.14,-5.67,2.68,1
24,15337691477000,8.62,-1.8,3.98,1
24,15337731638000,16.17,2.68,3.83,1
24,15337771646000,2.75,-4.79,-1.27,1
24,15337811624000,-1.27,-18.66,0.57,1
24,15337891611000,0.0,-19.61,2.53,1
24,15337931650000,-2.56,-15.83,2.45,1
24,15337971475000,-3.53,-8.43,-3.87,1
24,15338025919000,-10.53,2.03,-7.86,1
24,15338065408000,-16.89,15.4,-0.31,1
24,15338141519000,1.18,-3.79,3.68,1
24,15338181619000,0.08,-17.12,-2.83,1
24,15338221597000,-4.86,-19.61,-3.45,1
24,15338261514000,-3.53,-15.94,-2.07,1
24,15338341593000,-5.24,-19.15,1.88,1
24,15338381632000,-4.9,-16.78,5.05,1
24,15338421518000,0.95,-13.57,6.55,1
24,15338461649000,10.19,-9.77,5.13,1
24,15338541513000,-11.35,2.49,-15.98,1
24,15338581491000,-8.89,-11.41,7.04,1
24,15338621469000,4.9,-19.61,1.57,1
24,15338661661000,8.54,-19.61,-5.56,1
24,15338741586000,9.08,-15.98,-3.26,1
24,15338781473000,-0.61,-3.83,5.94,1
24,15338821634000,-2.6,-4.25,15.51,1
24,15338861521000,12.22,5.71,6.05,1
24,15338941629000,2.26,-3.06,-5.98,1
24,15338981912000,-1.8,-14.82,-6.85,1
24,15339021921000,-4.86,-19.61,-2.87,1
24,15339061655000,-3.64,-18.35,-0.08,1
24,15339141489000,-0.95,-19.04,1.18,1
24,15339181497000,0.3,-16.47,-2.49,1
24,15339221658000,-2.41,-9.43,-6.09,1
24,15339261514000,-7.31,-7.97,-8.43,1
24,15339341501000,-0.89,7.21,8.69,1
24,15339381510000,4.56,-3.91,3.17,1
24,15339421518000,-3.45,-17.58,-1.88,1
24,15339461649000,-1.38,-19.61,-2.87,1
24,15339541666000,-2.45,-18.85,10.34,1
24,15339581674000,1.5,-10.88,9.0,1
24,15339621652000,10.72,8.16,13.82,1
24,15339661539000,9.11,12.41,13.44,1
24,15339741647000,-2.03,-14.25,-7.93,1
24,15339781503000,-4.4,-17.12,-2.07,1
24,15339821634000,-4.06,-19.61,-1.84,1
24,15339861673000,-2.6,-15.85,8.62,1
24,15339941751000,-0.19,-18.47,-4.48,1
24,15339981516000,-1.54,-15.62,-7.35,1
24,15340021646000,-2.76,-8.96,-4.4,1
24,15340061472000,-6.89,-5.41,-4.79,1
24,15340141489000,-1.46,0.95,11.5,1
24,15340181680000,6.36,-10.72,1.5,1
24,15340221628000,-4.4,-18.47,-0.31,1
24,15340261636000,-6.28,-19.61,-2.26,1
24,15340341623000,2.49,-18.24,-1.12,1
24,15340381479000,-0.76,-11.14,16.17,1
24,15340421671000,14.75,5.71,16.55,1
24,15340461649000,13.63,16.25,11.03,1
24,15340501688000,3.98,1.61,-4.6,1
24,15340582102000,-9.08,-19.61,-4.29,1
24,15340621469000,-3.95,-19.61,-0.23,1
24,15340661661000,-0.99,-16.24,0.5,1
24,15340741464000,3.06,-15.47,-1.18,1
24,15340781626000,-0.46,-12.18,1.38,1
24,15340821665000,-1.5,-7.86,-2.76,1
24,15340861673000,-8.2,-10.92,-7.4,1
24,15340941538000,-0.38,3.79,10.15,1
24,15340981516000,5.13,-11.3,0.08,1
24,15341021646000,-5.71,-19.08,0.3,1
24,15341062357000,-6.63,-10.53,-10.08,1
24,15341332590000,-6.09,-10.53,-10.08,1
24,15341332590000,-6.09,-10.53,-10.08,1
24,15341332590000,-6.09,-10.53,-10.08,1
24,15341332590000,-6.09,-10.53,-10.08,1
24,15341332590000,-6.09,-10.53,-10.08,1
24,15341372232000,-5.83,-18.85,-0.8,1
24,15341411630000,-3.87,-19.57,0.61,1
24,15341491464000,-0.31,-13.44,0.99,1
24,15341531473000,-0.15,-18.66,0.72,1
24,15341571634000,2.64,-15.62,-0.15,1
24,15341611643000,0.04,-8.05,-4.18,1
24,15341691629000,-13.87,-7.44,-5.98,1
24,15341732095000,-11.07,1.04,7.4,1
24,15341776254000,6.13,-5.01,5.94,1
24,15341814432000,-4.25,-19.15,0.23,1
24,15341891489000,-1.18,-19.61,-5.28,1
24,15341931650000,0.57,-18.39,-1.31,1
24,15341971628000,2.34,-10.69,10.8,1
24,15342011484000,14.52,2.03,5.52,1
24,15342091470000,0.38,1.65,4.18,1
24,15342137583000,-3.95,-13.72,-10.08,1
24,15342176676000,-7.67,-16.82,-5.83,1
24,15342221567000,-2.34,-19.57,-0.31,1
24,15342261667000,-0.69,-18.77,0.46,1
24,15342341593000,0.61,-14.1,1.14,1
24,15342381510000,-0.76,-12.87,0.84,1
24,15342421640000,-1.99,-7.78,-5.63,1
24,15342461527000,2.22,-8.85,-4.75,1
24,15342541513000,-16.32,2.07,-6.21,1
24,15342581522000,0.57,-10.46,3.68,1
24,15342621622000,2.3,-17.01,0.3,1
24,15342662576000,-4.33,-19.61,-1.8,1
24,15342741617000,-0.08,-16.97,6.43,1
24,15342781656000,2.64,-13.21,5.67,1
24,15342825540000,16.74,5.09,0.65,1
24,15342862100000,16.85,15.24,18.73,1
24,15342941629000,-5.75,-7.97,-6.55,1
24,15342984415000,-8.39,-19.42,-0.31,1
24,15343023477000,-6.13,-19.61,-0.19,1
24,15343061685000,-1.38,-17.08,0.61,1
24,15343141611000,-1.14,-19.61,0.61,1
24,15343184030000,0.84,-16.82,-5.6,1
24,15343222543000,-3.76,-7.55,-4.86,1
24,15343261667000,-6.7,-7.27,-3.41,1
24,15343341593000,-8.69,2.03,15.13,1
24,15343381510000,6.43,-1.99,4.44,1
24,15343421640000,-3.57,-16.63,-1.14,1
24,15343461496000,-6.21,-19.61,-0.69,1
24,15343541696000,3.53,-19.61,-7.55,1
24,15343581644000,4.63,-16.97,6.89,1
24,15343621622000,6.7,-10.04,19.0,1
24,15343661508000,-10.57,11.99,19.61,1
24,15343741464000,14.29,-5.41,-1.95,1
24,15343781656000,6.66,-11.41,-3.21,1
24,15343821634000,0.5,-18.58,-1.08,1
24,15343861673000,-2.18,-19.61,-0.46,1
24,15343941629000,-0.27,-19.57,0.11,1
24,15343981485000,1.61,-18.77,-3.91,1
24,15344021494000,-1.84,-15.36,-4.79,1
24,15344061502000,-3.49,-10.72,-7.25,1
24,15344141641000,-12.68,3.72,6.4,1
24,15344181650000,9.04,3.83,9.38,1
24,15344221597000,-0.04,-4.75,-2.83,1
24,15344264078000,-4.82,-18.39,-0.42,1
24,15344341593000,-6.51,-19.61,-3.06,1
24,15344381601000,2.87,-14.4,-6.78,1
24,15344421640000,7.12,-7.25,5.98,1
24,15344461618000,-3.11,2.03,19.53,1
24,15344541544000,13.95,-2.34,-2.64,1
24,15344581522000,3.49,-9.81,-4.02,1
24,15344621622000,-1.99,-18.66,-0.89,1
24,15344661478000,-3.21,-19.61,-0.08,1
24,15344741586000,-0.38,-13.76,0.08,1
24,15344781503000,1.65,-19.38,-4.71,1
24,15344821634000,-1.84,-15.66,-6.24,1
24,15344861490000,-3.79,-9.11,-5.6,1
24,15344941599000,-16.78,1.5,4.06,1
24,15344981638000,8.96,7.01,14.4,1
24,15345021646000,5.94,-5.6,-1.8,1
24,15345061624000,-5.28,-18.28,-0.15,1
24,15345141641000,0.23,-19.61,-5.98,1
24,15345181497000,2.6,-19.0,-2.6,1
24,15345221628000,0.65,-14.21,10.95,1
24,15345264932000,14.4,-0.72,12.41,1
24,15345311655000,10.88,13.06,14.56,1
24,15345351541000,4.02,0.23,-5.33,1
24,15345441690000,-5.18,-19.61,-1.88,1
24,15345481638000,-1.84,-19.61,-0.04,1
24,15345521524000,-0.72,-15.83,0.23,1
24,15345561502000,-1.12,-18.73,1.65,1
24,15345641641000,0.0,-12.98,-4.14,1
24,15345681589000,-3.6,-11.03,-4.14,1
24,15345721628000,-11.5,-12.79,-3.26,1
24,15345761636000,-18.39,-2.75,7.04,1
24,15345841470000,3.79,-0.72,-3.15,1
24,15345881876000,-3.72,-17.5,-0.27,1
24,15345921671000,-5.83,-19.61,0.5,1
24,15345962076000,-11.35,-19.61,3.26,1
24,15346006967000,-7.97,-17.82,-3.95,1
24,15346083627000,15.01,-0.46,-7.89,1
24,15346121622000,12.49,8.35,14.48,1
24,15346167978000,4.52,0.11,5.71,1
24,15346211618000,-0.99,-1.88,-5.71,1
24,15346292612000,-6.7,-19.61,-0.69,1
24,15346342203000,-2.41,-18.01,0.84,1
24,15346381632000,-2.11,-15.89,0.57,1
24,15346426187000,0.69,-19.38,-0.93,1
24,15346465433000,-0.31,-14.06,-3.02,1
24,15346542032000,-12.6,-9.7,-8.35,1
24,15346581522000,-19.19,-0.76,1.14,1
24,15346621591000,-0.72,5.43,15.51,1
24,15346661661000,1.46,-7.65,3.57,1
24,15346741464000,-5.24,-19.61,-3.76,1
24,15346781503000,1.8,-19.61,-8.01,1
24,15346821634000,5.2,-19.57,-2.15,1
24,15346861673000,-1.08,-12.45,12.79,1
24,15346941690000,17.46,10.38,14.37,1
24,15346981638000,9.38,9.66,5.05,1
24,15347021616000,1.42,-5.41,-10.65,1
24,15347061685000,-8.73,-15.17,-8.54,1
24,15347141611000,-1.88,-19.53,0.42,1
24,15347181497000,4.37,-17.82,8.05,1
24,15347221597000,0.61,-19.23,1.23,1
24,15347261636000,0.57,-19.61,-3.41,1
24,15347341623000,-3.45,-8.01,-4.06,1
24,15347381662000,-9.04,-4.86,-4.06,1
24,15347421549000,-19.19,-1.73,-0.76,1
24,15347461679000,-0.65,2.72,11.54,1
24,15347542185000,-3.53,-19.61,-0.65,1
24,15347581644000,-8.35,-19.61,-2.53,1
24,15347621622000,-3.76,-19.61,-7.01,1
24,15347661630000,3.98,-19.46,-8.47,1
24,15347742990000,14.06,-2.72,16.21,1
24,15347782266000,12.53,9.58,16.63,1
24,15347822031000,4.14,-0.27,-1.84,1
24,15347861673000,-0.53,-6.89,-8.89,1
24,15347941721000,-2.26,-19.61,-0.23,1
24,15347981668000,-1.54,-18.89,0.53,1
24,15348021677000,-1.12,-19.61,3.17,1
24,15348061685000,1.31,-19.61,-4.82,1
24,15348141489000,-6.32,-8.05,-6.32,1
24,15348181925000,-15.24,-4.29,-7.67,1
24,15348221536000,-15.85,-19.61,-6.47,1
24,15348381998000,2.03,-19.61,-6.47,1
24,15348381998000,2.03,-19.61,-6.47,1
24,15348381998000,2.03,-19.61,-6.47,1
24,15348421488000,6.97,-19.61,-2.68,1
24,15348461679000,2.22,-13.72,8.24,1
24,15348501749000,1.61,-8.69,13.38,1
24,15348591501000,6.36,7.44,9.53,1
24,15348631662000,4.14,-5.79,-11.45,1
24,15348671640000,-7.35,-17.5,-15.05,1
24,15348711649000,-5.98,-19.57,6.28,1
24,15348791513000,3.36,-19.3,5.75,1
24,15348831674000,-0.42,-19.61,-0.76,1
24,15348871469000,3.41,-19.53,-5.37,1
24,15348911508000,5.52,-12.26,-7.44,1
24,15348991617000,-5.63,-5.33,-5.24,1
24,15349031656000,-17.01,-3.72,-11.6,1
24,15349076242000,-11.92,3.64,1.31,1
24,15349115701000,8.05,-7.5,2.18,1
24,15349152536000,-2.91,-18.05,-1.8,1
24,15349231577000,4.67,-19.61,-4.21,1
24,15349271677000,0.84,-15.32,7.16,1
24,15349311502000,-0.84,-11.5,8.27,1
24,15349391672000,16.02,15.28,16.47,1
24,15349431497000,6.05,3.41,-3.3,1
24,15349471658000,-1.73,-7.5,-6.17,1
24,15349511606000,-5.18,-18.81,-3.68,1
24,15349591623000,-1.23,-16.82,0.11,1
24,15349631479000,0.27,-18.39,6.36,1
24,15349671671000,-1.18,-18.66,-0.8,1
24,15349711679000,-1.61,-13.44,-2.76,1
24,15349791635000,-8.12,-5.94,-7.27,1
24,15349831522000,-18.05,0.38,-4.63,1
24,15349871652000,-7.01,2.53,8.05,1
24,15349911508000,5.18,-7.7,-0.11,1
24,15349991617000,-6.09,-19.61,-2.68,1
24,15350031656000,-0.34,-19.61,-6.47,1
24,15350071665000,4.67,-18.89,-4.79,1
24,15350111490000,3.98,-10.38,13.48,1
24,15350192270000,12.91,13.87,9.77,1
24,15350231455000,2.3,0.84,-3.64,1
24,15350273966000,-3.57,-12.15,-7.4,1
24,15350311655000,-5.01,-19.61,-1.76,1
24,15350391611000,-0.72,-14.44,4.56,1
24,15350431467000,-0.53,-16.13,0.72,1
24,15350471628000,0.76,-18.92,-3.21,1
24,15350511667000,-0.61,-10.84,-4.52,1
24,15350591470000,-9.04,-11.03,-7.08,1
24,15350631632000,-18.7,-2.11,-3.76,1
24,15350671640000,3.36,5.75,13.76,1
24,15350711618000,-1.04,-11.75,-1.14,1
24,15350791605000,2.07,-19.61,-5.13,1
24,15350831918000,4.79,-19.61,-2.11,1
24,15350871622000,0.65,-16.17,8.35,1
24,15350911661000,4.52,-10.65,6.32,1
24,15350991892000,16.04,11.11,7.16,1
24,15351031626000,6.4,2.07,-6.02,1
24,15351071634000,-3.17,-10.57,-12.72,1
24,15351111704000,-11.03,-19.61,-5.09,1
24,15351191568000,7.12,-17.2,8.39,1
24,15351231699000,1.38,-19.61,3.53,1
24,15351271646000,-1.18,-19.61,-5.94,1
24,15351311502000,-4.86,-14.44,-12.26,1
24,15351391641000,-15.47,-5.75,-1.08,1
24,15351431589000,-13.72,-3.68,12.83,1
24,15351471475000,-3.72,0.08,10.08,1
24,15351511667000,0.3,-9.49,0.38,1
24,15351591654000,6.09,-19.61,-7.97,1
24,15351631662000,4.1,-18.31,1.76,1
24,15351671671000,-1.69,-11.18,10.72,1
24,15351711710000,7.4,-5.9,8.96,1
24,15351792063000,8.69,5.13,5.71,1
24,15351831674000,0.23,-6.21,-7.63,1
24,15351871652000,-3.76,-14.02,-5.01,1
24,15351911539000,-4.71,-16.63,-3.06,1
24,15351991617000,-1.04,-18.73,0.19,1
24,15352031626000,-2.26,-19.61,3.02,1
24,15352071420000,0.65,-16.24,-0.11,1
24,15352111704000,-1.88,-10.08,-3.45,1
24,15352191629000,-15.43,-5.52,-10.84,1
24,15352231973000,-10.84,4.02,6.32,1
24,15352271677000,9.15,-0.65,9.47,1
24,15352311685000,-0.5,-12.26,-0.72,1
24,15352391580000,-1.08,-19.61,-6.59,1
24,15352432199000,4.18,-19.61,-6.05,1
24,15352471658000,-1.46,-12.45,11.6,1
24,15352511667000,6.66,-7.93,4.67,1
24,15352591684000,11.33,9.19,0.89,1
24,15352631479000,2.64,-1.27,-7.46,1
24,15352671671000,-4.52,-13.87,-4.18,1
24,15352712473000,-3.17,-19.61,-0.15,1
24,15352791605000,-1.08,-18.89,2.56,1
24,15352831674000,-0.69,-19.61,3.87,1
24,15352871500000,0.11,-19.61,-4.71,1
24,15352911508000,-2.03,-13.21,-6.78,1
24,15352991434000,-9.51,-1.46,-7.7,1
24,15353031626000,-18.77,0.0,-3.76,1
24,15353071512000,-1.61,5.28,7.82,1
24,15353111551000,4.14,-6.24,-0.65,1
24,15353191477000,-3.64,-19.61,-6.05,1
24,15353231699000,4.14,-19.61,-7.67,1
24,15353274606000,2.22,-17.24,3.45,1
24,15353321695000,1.18,-11.65,13.17,1
24,15353369821000,10.19,5.52,18.96,1
24,15353411539000,5.9,8.2,6.36,1
24,15353493784000,-1.8,-14.6,-7.63,1
24,15353532388000,-4.02,-19.61,-3.91,1
24,15353582193000,-1.12,-18.01,-0.11,1
24,15353621500000,-0.19,-18.35,7.25,1
24,15353661691000,-1.08,-19.61,-1.27,1
24,15353741495000,-6.74,-7.25,-8.2,1
24,15353781656000,-9.47,-1.14,-7.44,1
24,15353821512000,-16.55,1.95,-3.26,1
24,15353861734000,-9.72,3.34,4.71,1
24,15353941507000,-2.72,-16.7,-1.38,1
24,15353983347000,-7.12,-19.61,-7.21,1
24,15354021646000,2.03,-19.61,-7.93,1
24,15354061685000,3.3,-18.73,-2.56,1
24,15354141611000,8.08,-3.17,17.73,1
24,15354141611000,8.08,-3.17,17.73,1
24,15354223184000,2.07,2.53,2.98,1
24,15354261636000,3.11,-8.62,-8.81,1
24,15354341806000,-5.67,-19.61,-1.95,1
24,15354381632000,-0.57,-18.62,-0.5,1
24,15354421640000,3.98,-16.89,6.97,1
24,15354461649000,-0.34,-19.61,-0.5,1
24,15354541483000,-2.83,-9.38,-5.48,1
24,15354581522000,-6.89,-8.73,-6.82,1
24,15354621500000,-16.55,-4.25,-4.29,1
24,15354661630000,-6.74,5.6,10.84,1
24,15354741586000,-4.02,-18.31,0.23,1
24,15354781503000,-5.75,-19.61,-0.57,1
24,15354821634000,-4.14,-19.61,-5.05,1
24,15354861643000,3.49,-19.61,-7.78,1
24,15354941629000,10.57,-5.01,5.82,1
24,15354984751000,18.54,12.64,16.85,1
24,15355021921000,9.15,7.59,1.76,1
24,15355061472000,0.15,-4.33,-11.41,1
24,15355141641000,-4.33,-19.61,-0.27,1
24,15355181619000,-1.38,-19.5,0.38,1
24,15355221475000,5.18,-18.24,8.35,1
24,15355261636000,-0.69,-19.42,-1.31,1
24,15355341501000,-0.61,-11.45,-9.77,1
24,15355381540000,-4.21,-4.1,-5.6,1
24,15355421701000,-12.41,-5.71,-6.47,1
24,15355541452000,0.72,-8.54,1.14,1
24,15355541452000,0.72,-8.54,1.14,1
24,15355581980000,-3.6,-18.89,-0.15,1
24,15355629129000,1.53,-19.61,-7.25,1
24,15355666452000,3.34,-19.61,-4.14,1
24,15355741647000,-6.55,-8.08,14.63,1
24,15355781656000,5.67,2.68,18.31,1
24,15355821665000,5.71,12.11,10.46,1
24,15355861521000,4.67,-0.61,-4.33,1
24,15355941629000,-4.06,-19.15,-3.68,1
24,15355982309000,-0.93,-19.61,-0.72,1
24,15356021463000,0.99,-17.43,4.63,1
24,15356061502000,1.73,-19.38,4.02,1
24,15356141489000,-2.83,-15.75,-9.04,1
24,15356181650000,-4.48,-5.94,-6.74,1
24,15356221658000,-9.77,-5.18,-5.24,1
24,15356261728000,-18.28,-1.99,-0.72,1
24,15356341623000,4.94,-7.5,0.08,1
24,15356381662000,-5.22,-19.53,-0.27,1
24,15356422251000,-4.75,-19.61,-4.52,1
24,15356461435000,0.23,-19.61,-6.36,1
24,15356541422000,3.02,-12.11,9.23,1
24,15356581430000,15.94,4.4,12.07,1
24,15356621408000,15.43,15.75,19.11,1
24,15356661295000,0.84,-0.38,3.34,1
24,15356741464000,-5.86,-18.12,-6.97,1
24,15356781961000,-4.86,-19.61,-2.34,1
24,15356821634000,-1.69,-17.31,0.23,1
24,15356861551000,1.95,-10.11,8.05,1
24,15356941660000,-2.03,-18.92,-1.99,1
24,15356981516000,-5.67,-12.56,-5.71,1
24,15357021524000,-8.31,-7.78,-6.89,1
24,15357061655000,-15.43,-4.37,-3.6,1
24,15357141641000,5.56,4.4,7.63,1
24,15357181589000,0.42,-11.88,-1.61,1
24,15357223428000,-4.75,-19.5,0.04,1
24,15357271585000,-6.09,-19.61,-5.28,1
24,15357311655000,-1.18,-19.46,-6.47,1
24,15357391611000,7.89,-5.98,9.92,1
24,15357431619000,15.43,3.87,19.42,1
24,15357471658000,7.65,5.79,7.65,1
24,15357511667000,1.08,-2.37,-3.99,1
24,15357593057000,-6.05,-18.31,-3.6,1
24,15357632211000,-3.76,-19.61,-0.46,1
24,15357671640000,-0.95,-16.32,0.84,1
24,15357711496000,-0.23,-18.31,4.79,1
24,15357791483000,-3.11,-13.91,-5.83,1
24,15357831522000,-5.09,-9.66,-5.98,1
24,15357871500000,-12.34,-7.89,-4.44,1
24,15357911661000,-17.69,1.23,3.83,1
24,15357991586000,3.87,-4.86,-0.23,1
24,15358031595000,-4.99,-18.24,0.27,1
24,15358072305000,-10.31,-19.61,-2.37,1
24,15358112253000,-3.72,-19.61,-7.63,1
24,15358191599000,2.14,-12.87,10.76,1
24,15358231638000,16.04,-3.83,19.61,1
24,15358271555000,14.82,11.5,18.43,1
24,15358311685000,0.69,-2.87,3.02,1
24,15358391641000,-9.77,-15.62,-9.58,1
24,15358431680000,-7.93,-17.97,-2.56,1
24,15358471475000,-0.5,-18.47,0.34,1
24,15358511667000,3.26,-16.47,7.59,1
24,15358591623000,-1.08,-16.47,-2.6,1
24,15358631662000,-3.83,-11.5,-6.02,1
24,15358671518000,-6.7,-10.08,-5.6,1
24,15358711649000,-15.09,-5.28,-2.98,1
24,15358791605000,5.82,1.76,9.77,1
24,15358831644000,-1.42,-13.33,0.38,1
24,15358871866000,-4.37,-19.57,0.15,1
24,15358912241000,-7.78,-19.61,-3.17,1
24,15358991434000,4.79,-14.52,-4.4,1
24,15359031626000,7.16,-7.27,10.69,1
24,15359071634000,-2.56,3.3,19.61,1
24,15359111673000,-16.66,5.09,12.3,1
24,15359191599000,6.32,-7.97,2.53,1
24,15359231485000,6.89,-18.58,0.46,1
24,15359271677000,3.02,-19.61,-0.04,1
24,15359311655000,-1.04,-14.21,0.76,1
24,15359391489000,0.15,-19.15,1.33,1
24,15359431619000,2.3,-12.37,1.18,1
24,15359471506000,3.87,-7.25,-0.5,1
24,15359511636000,11.88,-7.44,0.0,1
24,15359591470000,-7.78,0.11,-9.43,1
24,15359631479000,0.99,-13.4,2.37,1
24,15359671671000,5.79,-19.61,-0.34,1
24,15359711466000,3.72,-19.61,5.75,1
24,15359791635000,-3.49,-14.67,4.21,1
24,15359831522000,-8.77,-5.63,-2.87,1
24,15359871500000,-18.7,6.55,-11.07,1
24,15359911936000,-14.71,11.88,-12.45,1
24,15359991586000,1.38,-8.66,7.25,1
24,15360031626000,1.84,-17.92,6.4,1
24,15360071634000,-0.38,-19.61,2.37,1
24,15360111643000,-2.6,-18.58,-0.72,1
24,15360191568000,-3.06,-18.89,1.53,1
24,15360231516000,0.84,-12.07,2.03,1
24,15360271707000,4.99,-7.78,0.99,1
24,15360311655000,13.14,-4.99,3.64,1
24,15360391641000,-2.64,4.75,-8.08,1
24,15360431619000,-0.65,-9.96,0.15,1
24,15360471628000,6.85,-19.23,1.08,1
24,15360511636000,2.03,-19.61,5.13,1
24,15360591501000,-6.47,-12.6,-4.14,1
24,15360632242000,-8.24,-9.92,-6.55,1
24,15360672067000,-12.68,5.48,-2.26,1
24,15360712076000,-14.82,13.29,-3.06,1
24,15360791605000,1.95,-4.56,3.26,1
24,15360831522000,0.27,-13.91,0.61,1
24,15360871622000,-5.28,-19.61,-1.08,1
24,15360911630000,-4.33,-17.86,-1.65,1
24,15360991586000,-3.95,-19.61,3.06,1
24,15361031473000,1.61,-16.21,7.55,1
24,15361071573000,9.23,-9.96,3.79,1
24,15361111643000,16.51,-5.41,-2.56,1
24,15361191599000,-10.19,3.87,-9.66,1
24,15361231485000,-1.12,-4.29,5.2,1
24,15361273142000,3.15,-18.28,-0.8,1
24,15361311594000,8.77,-19.61,-2.87,1
24,15361391641000,4.29,-16.85,1.76,1
24,15361431619000,-7.59,-9.19,4.82,1
24,15361471445000,-7.7,-3.53,9.38,1
24,15361511636000,-11.96,7.08,11.8,1
24,15361591470000,-0.69,-0.84,-0.31,1
24,15361631479000,0.91,-9.62,-1.84,1
24,15361671640000,-1.08,-19.11,0.91,1
24,15361711435000,-2.79,-19.5,-1.57,1
24,15361791635000,-2.83,-19.61,7.97,1
24,15361831644000,2.53,-17.77,7.27,1
24,15361871500000,6.43,-8.31,-0.46,1
24,15361911661000,13.99,-5.63,0.76,1
24,15361991586000,2.41,2.37,-10.76,1
24,15362031595000,-4.56,-8.54,3.41,1
24,15362071665000,4.94,-17.39,0.8,1
24,15362111643000,7.46,-19.61,5.24,1
24,15362191568000,-5.48,-13.44,-2.83,1
24,15362231577000,-7.4,-10.99,-8.77,1
24,15362271646000,-18.66,1.84,-9.08,1
24,15362311441000,-16.21,11.96,-10.5,1
24,15362391641000,-0.69,-7.59,6.05,1
24,15362431650000,1.33,-18.69,4.21,1
24,15362471658000,-1.92,-19.61,-0.31,1
24,15362511514000,-1.8,-19.61,-0.65,1
24,15362591623000,-1.46,-16.24,4.25,1
24,15362631479000,1.42,-5.82,3.17,1
24,15362671518000,5.63,-6.21,5.52,1
24,15362711618000,17.69,-19.61,3.95,1
24,15362871500000,2.79,-19.61,3.95,1
24,15362871500000,2.79,-19.61,3.95,1
24,15362871500000,2.79,-19.61,3.95,1
24,15362911630000,-7.08,-19.61,5.94,1
24,15362991586000,-5.94,-8.16,-2.98,1
24,15363031656000,-16.82,0.0,-6.74,1
24,15363071512000,-19.57,13.91,-13.21,1
24,15363111521000,-5.28,3.45,-8.05,1
24,15363191599000,6.05,-15.21,6.51,1
24,15363231638000,0.53,-19.61,1.18,1
24,15363271677000,-3.41,-19.61,-0.23,1
24,15363311594000,-3.38,-18.5,-0.46,1
24,15363391489000,-2.56,-12.64,0.08,1
24,15363435892000,2.53,-6.78,3.26,1
24,15363472025000,10.76,-7.59,4.18,1
24,15363511667000,19.11,-1.8,2.83,1
24,15363591470000,0.99,-1.65,0.19,1
24,15363631632000,-1.65,-16.66,3.76,1
24,15363671518000,-6.21,-19.61,2.18,1
24,15363711618000,-10.57,-19.61,1.12,1
24,15363791605000,-7.5,-11.03,-6.05,1
24,15363831613000,-10.92,-3.95,-7.01,1
24,15363871347000,-14.06,11.35,-7.06,1
24,15363911936000,-11.14,11.56,2.83,1
24,15363992410000,6.89,-12.15,3.45,1
24,15364031595000,-1.27,-19.53,-1.14,1
24,15364071420000,-4.75,-19.61,0.8,1
24,15364111551000,-8.47,-16.13,-6.32,1
24,15364191446000,-4.86,-19.61,2.91,1
24,15364231485000,-0.11,-16.17,11.54,1
24,15364271585000,3.95,-6.7,7.7,1
24,15364311563000,9.11,-1.95,2.14,1
24,15364392069000,7.12,-0.04,-7.78,1
24,15364431619000,-4.52,-10.88,1.14,1
24,15364471628000,0.84,-19.46,2.49,1
24,15364511514000,-5.56,-19.61,5.18,1
24,15364591623000,-8.5,-14.14,-0.46,1
24,15364631510000,-9.08,-4.06,-6.09,1
24,15364671701000,-18.7,4.9,-14.14,1
24,15364711679000,-15.09,11.69,-13.21,1
24,15364791635000,-0.8,-5.24,6.89,1
24,15364831644000,2.79,-17.5,6.55,1
24,15364871622000,-1.46,-19.61,1.65,1
24,15364911661000,-5.18,-19.42,0.27,1
24,15364991586000,-4.25,-17.16,1.31,1
24,15365031473000,-4.06,-15.36,2.72,1
24,15365071512000,0.95,-8.43,4.18,1
24,15365111490000,7.44,-8.31,4.86,1
24,15365191599000,4.1,3.87,-13.95,1
24,15365231668000,-4.4,-9.04,-0.69,1
24,15365272043000,2.56,-18.47,1.69,1
24,15365321939000,-3.3,-19.61,4.79,1
24,15365361704000,-11.3,-19.61,0.23,1
24,15365441629000,-9.23,-6.55,-5.67,1
24,15365481516000,-11.07,8.92,2.22,1
24,15365526315000,-15.09,17.08,-4.44,1
24,15365568704000,-0.57,0.99,2.72,1
24,15365611551000,1.69,-8.5,3.17,1
24,15365691599000,-3.87,-19.61,0.23,1
24,15365732248000,-4.6,-15.13,0.34,1
24,15365771524000,-5.24,-14.6,0.38,1
24,15365811624000,-8.01,-19.15,2.45,1
24,15365891611000,2.83,-12.95,1.04,1
24,15365931619000,6.66,-17.05,-0.34,1
24,15365971628000,16.02,-8.54,-0.08,1
24,15366011606000,10.76,6.36,-11.75,1
24,15366091593000,1.57,-11.88,1.53,1
24,15366131540000,3.64,-19.34,2.68,1
24,15366176706000,-10.69,-19.61,-5.63,1
24,15366214487000,-5.79,-15.21,-3.15,1
24,15366291635000,-12.98,-3.49,1.46,1
24,15366331491000,-19.38,14.86,-7.08,1
24,15366371652000,-8.92,6.51,-4.02,1
24,15366411569000,0.15,1.23,2.26,1
24,15366491617000,-4.44,-19.57,-2.68,1
24,15366531656000,-9.08,-19.61,-4.94,1
24,15366571665000,-4.94,-17.01,-1.5,1
24,15366611521000,-5.13,-16.82,-0.19,1
24,15366691477000,1.53,-11.65,4.56,1
24,15366731485000,9.15,-9.81,3.41,1
24,15366771677000,18.77,-1.04,-0.38,1
24,15366811685000,6.21,4.82,-14.29,1
24,15366891641000,4.99,-18.16,1.73,1
24,15366931467000,-3.06,-19.61,3.36,1
24,15366972055000,-13.1,-19.5,-1.04,1
24,15367011606000,-7.78,-9.89,-3.15,1
24,15367091532000,-16.93,5.75,-8.43,1
24,15367131510000,-17.2,8.24,-12.34,1
24,15367171732000,-2.96,0.15,2.14,1
24,15367212229000,-1.95,-4.21,7.04,1
24,15367291635000,-6.93,-19.61,0.57,1
24,15367331613000,-6.21,-16.93,-1.27,1
24,15367374185000,-5.24,-18.47,-0.69,1
24,15367411539000,-5.28,-19.0,1.14,1
24,15367491617000,2.98,-9.49,3.36,1
24,15367531656000,11.3,-8.35,2.75,1
24,15367571665000,17.67,2.64,-1.99,1
24,15367611521000,-0.93,8.39,-6.63,1
24,15367691629000,5.2,-19.08,1.04,1
24,15367731668000,-5.24,-19.61,3.34,1
24,15367771524000,-7.25,-19.3,1.73,1
24,15367811502000,-6.59,-12.15,-5.37,1
24,15367854837000,-7.97,-10.23,-5.94,1
24,15367932474000,-17.73,18.16,7.89,1
24,15367971689000,-3.99,5.09,5.09,1
24,15368011514000,2.14,-3.91,-1.42,1
24,15368091470000,-7.16,-19.61,-0.34,1
24,15368131632000,-5.86,-18.07,-1.42,1
24,15368171640000,-4.29,-13.06,0.8,1
24,15368211466000,-6.44,-19.53,1.8,1
24,15368291483000,6.21,-9.72,2.72,1
24,15368331552000,14.86,-7.04,0.61,1
24,15368371622000,17.08,-0.11,-9.34,1
24,15368411630000,-3.83,5.37,-12.98,1
24,15368491617000,2.56,-19.61,1.46,1
24,15368531687000,-6.85,-19.61,2.96,1
24,15368573404000,-14.21,-19.61,-0.76,1
24,15368611551000,-9.43,-13.67,-5.01,1
24,15368691904000,-17.62,12.64,-6.09,1
24,15368732309000,-14.82,11.92,-7.21,1
24,15368771524000,-1.04,-0.8,3.95,1
24,15368811685000,0.99,-13.1,5.48,1
24,15368891458000,-6.7,-19.61,-1.42,1
24,15368931650000,-4.9,-15.75,0.0,1
24,15368971658000,-5.48,-17.35,1.27,1
24,15369011484000,-4.67,-14.67,1.65,1
24,15369091806000,3.15,-9.66,0.69,1
24,15369131632000,11.37,-7.4,2.11,1
24,15369171671000,17.31,-1.14,-0.89,1
24,15369211466000,-0.89,0.84,-1.99,1
24,15369291635000,5.09,-19.23,0.0,1
24,15369331644000,1.5,-19.61,2.75,1
24,15369371408000,-0.99,-14.79,3.45,1
24,15369411691000,-4.71,-8.12,2.68,1
24,15369491647000,-11.35,11.22,2.07,1
24,15369531626000,-11.45,11.92,-4.29,1
24,15369571481000,-1.31,0.11,1.31,1
24,15369611704000,-1.14,-11.88,0.46,1
24,15369691629000,-3.15,-18.85,-1.04,1
24,15369731516000,-2.83,-14.82,0.57,1
24,15369771646000,-5.18,-19.5,3.79,1
24,15369811502000,-1.61,-15.47,4.63,1
24,15369891641000,13.72,-9.34,1.95,1
24,15369931467000,17.77,-2.11,-7.82,1
24,15370051431000,-1.31,-18.96,1.84,1
24,15370051431000,-1.31,-18.96,1.84,1
24,15370091562000,-7.16,-19.61,6.17,1
24,15370131601000,-10.08,-19.0,1.12,1
24,15370171518000,-3.76,-7.27,-5.48,1
24,15370211588000,-7.86,-5.33,-7.82,1
24,15370291483000,-16.17,11.22,11.18,1
24,15370291483000,-16.17,11.22,11.18,1
24,15370392221000,-0.27,-11.22,2.45,1
24,15370431619000,-1.14,-19.38,5.18,1
24,15370471475000,-3.83,-19.61,2.53,1
24,15370511636000,-3.64,-18.47,1.57,1
24,15370591593000,-2.22,-19.15,2.72,1
24,15370631510000,4.21,-15.83,3.95,1
24,15370671640000,14.71,-13.33,1.38,1
24,15370711496000,17.82,-1.38,-7.25,1
24,15370791605000,-5.01,-0.34,-4.1,1
24,15370831522000,2.64,-16.21,0.95,1
24,15370871622000,3.91,-19.61,1.61,1
24,15370911478000,-0.61,-19.61,7.12,1
24,15370991464000,-8.85,-15.66,5.52,1
24,15371031595000,-8.89,-4.99,-7.16,1
24,15371071634000,-16.66,4.37,-9.81,1
24,15371111551000,-12.91,14.29,-7.63,1
24,15371191446000,1.31,-5.56,3.34,1
24,15371231638000,-0.23,-19.46,1.18,1
24,15371271677000,-5.67,-19.61,0.57,1
24,15371311472000,-5.37,-16.24,0.72,1
24,15371391611000,-6.02,-18.66,3.26,1
24,15371431497000,-3.11,-14.86,4.48,1
24,15371471597000,2.37,-12.83,2.18,1
24,15371511636000,6.47,-10.04,1.42,1
24,15371591470000,8.5,5.71,-14.41,1
24,15371631632000,-0.46,-6.55,-1.5,1
24,15371671640000,0.46,-18.58,2.03,1
24,15371711496000,-1.27,-19.61,4.59,1
24,15371792185000,-15.02,-18.62,0.57,1
24,15371831644000,-6.36,-7.65,-5.83,1
24,15371871652000,-8.28,-4.94,-5.09,1
24,15371911539000,-17.24,12.41,-8.66,1
24,15371991983000,-1.18,-2.11,6.51,1
24,15372031473000,4.79,-6.74,7.04,1
24,15372071665000,2.64,-18.2,2.37,1
24,15372111765000,-5.9,-19.61,-0.46,1
24,15372191599000,-5.41,-17.24,-1.12,1
24,15372231577000,-5.71,-18.31,0.57,1
24,15372271494000,-2.79,-13.33,3.49,1
24,15372311502000,2.79,-10.61,6.4,1
24,15372391672000,13.25,3.21,-7.4,1
24,15372431619000,-9.28,1.08,-13.25,1
24,15372471628000,-0.27,-10.34,1.38,1
24,15372511545000,2.64,-19.11,2.14,1
24,15372591440000,-10.95,-19.61,4.33,1
24,15372631662000,-10.04,-16.02,0.27,1
24,15372671976000,-9.19,-3.79,-16.25,1
24,15372712229000,-7.44,-1.95,-2.41,1
24,15372762705000,-13.02,16.44,-5.33,1
24,15372841470000,6.36,-2.91,5.75,1
24,15372881632000,3.87,-15.47,0.34,1
24,15372921640000,-2.37,-19.61,0.34,1
24,15372962503000,-7.82,-19.61,-3.68,1
24,15373041635000,-6.13,-17.77,1.92,1
24,15373081674000,-6.59,-18.96,4.14,1
24,15373121530000,-1.65,-13.02,6.24,1
24,15373161661000,4.14,-8.81,3.36,1
24,15373241617000,9.85,-5.09,-15.36,1
24,15373281595000,-10.0,-2.64,-7.25,1
24,15373321481000,-4.29,-3.49,5.52,1
24,15373361643000,3.11,-18.28,0.69,1
24,15373441477000,6.97,-19.61,-1.57,1
24,15373481638000,2.11,-15.98,4.18,1
24,15373521646000,-2.45,-9.92,8.24,1
24,15373561472000,-5.75,-0.04,16.28,1
24,15373641611000,13.4,2.79,3.91,1
24,15373681619000,10.57,-8.81,1.38,1
24,15373721628000,0.57,-18.62,-0.42,1
24,15373761514000,-2.98,-19.61,-1.38,1
24,15373843271000,-4.25,-15.6,2.45,1
24,15373881662000,-5.43,-19.19,1.95,1
24,15373921488000,-8.08,-17.77,7.01,1
24,15373961649000,-3.45,-11.26,7.04,1
24,15374041605000,9.58,-1.69,9.0,1
24,15374081522000,15.89,3.15,0.53,1
24,15374121652000,-8.66,-2.26,-7.06,1
24,15374161630000,-1.23,-13.59,3.57,1
24,15374241617000,4.59,-19.61,2.22,1
24,15374281595000,4.44,-19.57,5.43,1
24,15374321481000,-2.22,-12.53,3.98,1
24,15374361643000,-7.31,-4.29,-0.53,1
24,15374444254000,-14.63,12.26,-5.98,1
24,15374481577000,-2.87,3.87,3.53,1
24,15374521646000,0.04,-4.29,3.98,1
24,15374561533000,-0.04,-16.7,2.34,1
24,15374641428000,-4.94,-16.7,-0.15,1
24,15374681497000,-4.86,-14.52,0.89,1
24,15374721628000,-6.47,-19.61,1.38,1
24,15374761636000,-4.37,-15.01,4.63,1
24,15374841470000,6.05,-4.33,6.24,1
24,15374881510000,17.88,-1.27,3.15,1
24,15374921640000,6.59,3.99,-10.23,1
24,15374961618000,-6.44,-7.74,-1.95,1
24,15375041483000,1.99,-19.61,3.3,1
24,15375082254000,-9.62,-19.61,3.6,1
24,15375122263000,-10.12,-17.88,0.3,1
24,15375161661000,-7.06,-8.58,-4.94,1
24,15375242441000,-15.17,10.84,-3.6,1
24,15375281992000,-12.72,13.82,-1.04,1
24,15375321634000,1.14,0.69,6.85,1
24,15375361551000,1.33,-10.27,1.12,1
24,15375441629000,-9.62,-19.42,-2.07,1
24,15375481516000,-4.71,-13.72,1.5,1
24,15375521677000,-5.09,-18.66,2.41,1
24,15375561533000,-3.45,-19.34,5.41,1
24,15375641489000,10.0,-4.4,5.05,1
24,15375681497000,12.76,-3.11,-2.6,1
24,15375721658000,2.83,-4.48,-10.99,1
24,15375761728000,-5.71,-4.52,-6.74,1
24,15375841593000,4.44,-19.19,1.38,1
24,15375881632000,4.75,-19.61,5.63,1
24,15375921488000,-0.27,-18.96,5.01,1
24,15375961618000,-2.45,-9.38,3.45,1
24,15376041605000,-7.12,3.95,-1.31,1
24,15376081491000,-18.09,17.82,-6.32,1
24,15376121500000,-1.31,7.01,11.54,1
24,15376161661000,8.66,-3.45,7.78,1
24,15376241586000,-7.35,-19.61,3.15,1
24,15376281626000,-9.43,-17.67,-8.05,1
24,15376321512000,-6.51,-14.4,1.42,1
24,15376362558000,-7.4,-19.11,3.6,1
24,15376441446000,2.56,-12.18,10.31,1
24,15376481607000,9.23,-5.18,7.01,1
24,15376521494000,16.97,2.83,1.18,1
24,15376561624000,2.98,6.59,-12.87,1
24,15376641611000,-1.69,-12.53,3.06,1
24,15376681589000,4.1,-18.85,2.56,1
24,15376721658000,-10.53,-19.61,3.91,1
24,15376761667000,-14.63,-19.15,-0.38,1
24,15376841593000,-8.08,-8.01,-5.94,1
24,15376881632000,-6.89,2.76,2.79,1
24,15376928049000,-9.89,18.24,10.46,1
24,15376965463000,0.27,4.82,3.76,1
24,15377041635000,-4.21,-11.6,-0.15,1
24,15377081644000,-11.26,-19.61,-4.21,1
24,15377121469000,-13.14,-19.5,-1.92,1
24,15377161661000,-7.4,-16.59,-0.72,1
24,15377241403000,-6.24,-17.46,5.56,1
24,15377361429000,14.25,-4.9,-8.62,1
24,15377361429000,14.25,-4.9,-8.62,1
24,15377361429000,14.25,-4.9,-8.62,1
24,15377441599000,-8.77,-2.34,0.69,1
24,15377481516000,1.18,-15.4,1.73,1
24,15377521677000,1.08,-19.61,-3.11,1
24,15377561624000,4.94,-19.61,-2.45,1
24,15377641611000,-8.39,-15.7,8.47,1
24,15377681467000,-4.6,-5.05,9.58,1
24,15377681467000,-4.6,-5.05,9.58,1
24,15377769480000,-14.9,12.83,7.44,1
24,15377811594000,7.01,-4.21,7.74,1
24,15377891611000,-3.41,-19.3,-3.34,1
24,15377931467000,-10.57,-19.61,-1.61,1
24,15377971628000,-3.38,-19.34,0.34,1
24,15378011575000,-5.09,-19.61,-0.27,1
24,15378091470000,-2.18,-8.5,7.44,1
24,15378131632000,1.76,-4.63,2.45,1
24,15378171640000,9.04,-5.13,2.18,1
24,15378211649000,19.46,1.08,1.14,1
24,15378291483000,-2.87,-13.14,0.34,1
24,15378331766000,3.45,-19.57,2.3,1
24,15378373056000,-4.4,-19.61,1.73,1
24,15378421701000,-9.47,-18.62,2.53,1
24,15378461496000,-7.08,-9.66,-1.84,1
24,15378541605000,-15.64,6.21,-9.04,1
24,15378581522000,-14.82,10.88,-11.56,1
24,15378621591000,-3.87,0.0,3.83,1
24,15378661478000,-0.93,-7.65,6.28,1
24,15378741586000,-5.18,-19.61,0.61,1
24,15378781473000,-4.52,-16.55,-1.57,1
24,15378821481000,-4.29,-11.92,0.15,1
24,15378861490000,-5.09,-18.81,1.04,1
24,15378941629000,1.31,-8.66,1.33,1
24,15378981485000,7.4,-6.78,2.72,1
24,15379021616000,17.27,0.89,-0.5,1
24,15379061502000,1.53,6.78,-9.47,1
24,15379141611000,-0.04,-19.19,2.91,1
24,15379181497000,-9.62,-19.61,-0.72,1
24,15379221506000,-10.57,-19.19,-1.54,1
24,15379261636000,-8.01,-11.88,-2.72,1
24,15379341593000,-18.31,10.08,-8.69,1
24,15379381632000,-12.57,10.53,-13.18,1
24,15379421610000,-1.84,0.61,7.46,1
24,15379461679000,2.98,-14.29,9.49,1
24,15379541483000,-4.9,-19.61,-1.18,1
24,15379581644000,-5.94,-18.73,-1.46,1
24,15379621652000,-6.24,-19.5,-0.93,1
24,15379661630000,-3.79,-17.39,1.23,1
24,15379741617000,7.31,-8.62,7.04,1
24,15379781626000,16.85,-2.91,2.87,1
24,15379821634000,14.18,4.14,-8.58,1
24,15379861490000,-1.27,-0.27,-6.89,1
24,15379942270000,1.69,-19.61,2.34,1
24,15379981882000,-11.35,-19.61,2.49,1
24,15380021707000,-13.53,-19.5,-0.72,1
24,15380061655000,-6.74,-10.19,-4.48,1
24,15380141641000,-19.19,10.34,-12.45,1
24,15380181772000,-12.3,12.15,-11.56,1
24,15380221628000,-2.26,0.23,5.6,1
24,15380261545000,0.61,-8.27,7.21,1
24,15380341593000,-6.78,-19.61,2.53,1
24,15380383005000,-5.37,-17.2,-1.18,1
24,15380421640000,-5.13,-16.28,-0.89,1
24,15380461649000,-4.56,-17.43,-0.65,1
24,15380541513000,0.84,-7.93,2.79,1
24,15380581522000,5.09,-10.19,4.18,1
24,15380621622000,16.85,-3.26,6.05,1
24,15380661661000,6.24,3.41,-5.86,1
24,15380741647000,1.5,-19.57,3.64,1
24,15380781503000,-8.2,-19.61,2.45,1
24,15380821512000,-6.51,-16.55,-2.6,1
24,15380861673000,-5.41,-9.58,-4.18,1
24,15380941629000,-18.73,14.41,14.52,1
24,15380941629000,-18.73,14.41,14.52,1
24,15381031381000,-0.61,-1.12,-0.15,1
24,15381071634000,-2.26,-6.74,2.75,1
24,15381111521000,-2.6,-15.98,6.47,1
24,15381191446000,-4.79,-19.11,1.31,1
24,15381231638000,-3.87,-17.35,2.34,1
24,15381271524000,-2.96,-18.43,2.75,1
24,15381311502000,1.12,-13.87,-0.38,1
24,15381391580000,19.23,-9.77,1.73,1
24,15381431467000,9.0,4.94,-9.7,1
24,15381471658000,-10.73,6.17,1.42,1
24,15381511453000,4.52,-11.69,5.71,1
24,15381591623000,7.97,-19.61,0.42,1
24,15381631510000,4.25,-19.42,3.98,1
24,15381671701000,-2.87,-12.53,6.66,1
24,15381711649000,-2.98,-3.98,7.21,1
24,15381791483000,-17.39,12.68,-4.56,1
24,15381831674000,-0.95,1.8,-5.9,1
24,15381871622000,-0.76,-1.33,2.18,1
24,15381911508000,0.46,-11.95,4.33,1
24,15381991586000,-2.79,-18.62,-0.08,1
24,15382031473000,-2.18,-15.62,0.89,1
24,15382071573000,-2.34,-19.57,3.11,1
24,15382111490000,0.3,-14.29,2.03,1
24,15382151987000,6.97,-1.08,2.07,1
24,15382221597000,19.5,-1.08,2.07,1
24,15382261667000,6.59,10.38,-8.66,1
24,15382341623000,5.43,-17.54,2.98,1
24,15382382700000,2.22,-19.61,2.6,1
24,15382421762000,-2.72,-19.61,6.21,1
24,15382461649000,-6.7,-19.38,-0.8,1
24,15382541605000,-14.9,-3.98,-4.67,1
24,15382581644000,-19.57,10.38,-12.26,1
24,15382624948000,-10.5,8.35,-12.79,1
24,15382672220000,-0.11,-2.64,9.23,1
24,15382711649000,5.94,-15.98,8.92,1
24,15382791483000,-1.8,-19.61,0.46,1
24,15382831522000,-3.83,-19.57,0.34,1
24,15382871622000,-4.79,-18.77,-1.38,1
24,15382911661000,-2.91,-13.82,1.31,1
24,15382991434000,3.76,-9.3,2.91,1
24,15383031626000,10.8,-6.74,1.27,1
24,15383071634000,16.17,-0.11,-4.71,1
24,15383111673000,0.11,0.08,-7.89,1
24,15383191568000,0.99,-18.01,-0.04,1
24,15383231760000,5.75,-19.61,-0.53,1
24,15383271524000,3.83,-19.61,4.29,1
24,15383311502000,1.12,-13.63,4.02,1
24,15383391641000,-4.52,2.26,9.85,1
24,15383441446000,-4.1,11.56,17.01,1
24,15383481638000,11.54,3.15,4.79,1
24,15383521646000,6.43,-9.53,1.04,1
24,15383561624000,-3.41,-19.61,-2.3,1
24,15383641611000,-5.24,-15.51,-1.31,1
24,15383681497000,-4.33,-17.58,0.61,1
24,15383721628000,-4.06,-19.61,4.33,1
24,15383761514000,-0.15,-14.44,10.88,1
24,15383841470000,7.7,-1.61,2.14,1
24,15383881632000,15.83,3.06,-3.21,1
24,15383921640000,5.71,1.46,-12.11,1
24,15383961466000,-3.11,-8.31,-0.84,1
24,15384041635000,3.6,-19.61,5.09,1
24,15384081644000,-3.45,-19.61,4.44,1
24,15384121652000,-6.13,-15.09,6.51,1
24,15384161630000,-9.11,-6.51,0.15,1
24,15384241678000,-6.21,10.95,-17.54,1
24,15384281656000,-7.55,-0.65,0.72,1
24,15384321665000,-3.26,-7.44,5.63,1
24,15384361643000,-0.69,-18.28,5.79,1
24,15384441477000,-3.45,-18.77,0.5,1
24,15384481516000,-2.96,-16.36,0.99,1
24,15384521524000,-3.15,-18.31,1.57,1
24,15384641428000,3.17,-7.55,9.62,1
24,15384641428000,3.17,-7.55,9.62,1
24,15384681803000,16.82,-0.5,9.96,1
24,15384721628000,7.7,7.44,-5.86,1
24,15384761636000,-4.52,-6.05,-3.6,1
24,15384841593000,-2.3,-19.61,6.36,1
24,15384881479000,-8.54,-19.61,3.53,1
24,15384921640000,-7.59,-16.44,1.8,1
24,15384961618000,-9.81,-7.65,-5.18,1
24,15385041483000,-13.57,14.86,-15.43,1
24,15385081491000,-5.94,4.06,0.34,1
24,15385121622000,-2.07,-7.7,7.31,1
24,15385161478000,2.91,-19.0,7.21,1
24,15385241495000,-6.55,-16.04,-0.89,1
24,15385281626000,-3.57,-15.01,1.46,1
24,15385321604000,-4.48,-17.86,0.42,1
24,15385361673000,-4.06,-12.76,1.76,1
24,15385441507000,4.44,-7.01,6.32,1
24,15385481638000,17.31,0.93,5.71,1
24,15385521646000,11.73,7.46,-6.66,1
24,15385561624000,-4.52,-2.64,-0.61,1
24,15385641641000,3.21,-19.61,2.98,1
24,15385681467000,-3.21,-19.61,1.12,1
24,15385721628000,-4.21,-15.79,4.94,1
24,15385761636000,-9.92,-8.92,0.76,1
24,15385841470000,-11.96,8.24,-18.09,1
24,15385881632000,-5.86,1.73,0.3,1
24,15385921488000,-2.34,-4.14,6.97,1
24,15385961618000,2.26,-13.82,8.96,1
24,15386041483000,-3.53,-18.39,0.61,1
24,15386081644000,-3.3,-11.3,0.34,1
24,15386121500000,-3.76,-16.24,0.61,1
24,15386161478000,-2.41,-12.3,-3.3,1
24,15386241495000,0.72,-8.96,2.11,1
24,15386281473000,7.78,-5.86,3.57,1
24,15386321512000,18.58,1.95,2.41,1
24,15386361643000,-1.14,0.46,-3.21,1
24,15386441660000,4.63,-19.5,0.89,1
24,15386481638000,-0.65,-19.61,1.31,1
24,15386521494000,-5.41,-19.23,3.02,1
24,15386561624000,-9.92,-10.15,1.61,1
24,15386641611000,-16.66,8.24,-18.58,1
24,15386681467000,-6.74,7.25,-7.16,1
24,15386721506000,-3.45,-1.33,7.27,1
24,15386761636000,1.46,-13.48,9.08,1
24,15386841593000,-6.13,-17.73,-1.23,1
24,15386881601000,-1.99,-16.89,1.84,1
24,15386921640000,-3.06,-15.62,1.18,1
24,15386961618000,-3.99,-15.6,-0.27,1
24,15387041483000,-0.8,-7.46,2.91,1
24,15387081491000,3.41,-6.32,3.15,1
24,15387121469000,14.4,-4.63,1.18,1
24,15387161630000,13.63,0.65,-6.13,1
24,15387241739000,1.69,-14.98,1.5,1
24,15387281412000,3.17,-19.61,-0.95,1
24,15387321970000,0.95,-19.61,2.56,1
24,15387361521000,5.9,-18.92,-3.68,1
24,15387441599000,10.76,1.84,2.18,1
24,15387481607000,-10.57,14.63,18.58,1
24,15387521646000,7.46,3.95,7.27,1
24,15387561655000,14.29,-5.75,-2.96,1
24,15387641641000,-7.82,-19.61,4.02,1
24,15387681497000,-6.4,-18.5,5.98,1
24,15387721628000,2.37,-16.21,1.04,1
24,15387761636000,6.28,-19.61,-2.07,1
24,15387841623000,4.44,-10.04,1.18,1
24,15387881632000,1.99,-5.63,0.27,1
24,15387921518000,4.21,-4.67,1.31,1
24,15387961618000,18.5,-3.11,3.36,1
24,15388041483000,-3.91,-8.35,2.72,1
24,15388081644000,5.24,-18.43,1.27,1
24,15388121622000,-2.68,-19.61,3.21,1
24,15388161630000,-8.58,-19.57,3.15,1
24,15388241647000,-9.85,-7.31,-10.53,1
24,15388281564000,-5.13,8.62,-18.58,1
24,15388321481000,2.64,10.76,-14.14,1
24,15388361490000,-19.42,-2.72,-0.72,1
24,15388441538000,-3.95,-19.61,1.31,1
24,15388481485000,-3.6,-19.61,-0.99,1
24,15388521646000,-5.41,-15.17,-7.67,1
24,15388561655000,-4.86,-18.58,0.46,1
24,15388641489000,-8.12,-12.6,8.12,1
24,15388681467000,-2.11,-6.32,5.6,1
24,15388721658000,1.65,-4.21,4.1,1
24,15388761484000,11.92,-0.15,5.2,1
24,15388841715000,-6.74,-5.94,-2.41,1
24,15388881632000,1.76,-14.86,2.11,1
24,15388921488000,2.11,-19.61,1.5,1
24,15388961466000,-0.8,-19.61,4.94,1
24,15389041666000,-7.4,-10.04,1.57,1
24,15389081522000,-10.92,-1.38,-1.46,1
24,15389121622000,-7.5,13.48,-14.71,1
24,15389161539000,-5.71,10.19,-6.89,1
24,15389241617000,1.69,-17.24,7.31,1
24,15389281626000,2.18,-18.28,-0.61,1
24,15389321634000,-9.96,-19.57,-5.41,1
24,15389361643000,-3.64,-18.05,0.0,1
24,15389441538000,-4.25,-18.66,4.21,1
24,15389481485000,-2.6,-10.92,8.54,1
24,15389521494000,-0.65,-4.06,3.57,1
24,15389561472000,0.3,-1.99,2.03,1
24,15389641611000,13.25,1.95,4.21,1
24,15389682260000,-0.34,-6.93,-5.18,1
24,15389722086000,-4.48,-13.21,1.8,1
24,15389761667000,-1.5,-18.85,6.17,1
24,15389841593000,-5.9,-17.16,-1.33,1
24,15389881632000,-6.59,-9.43,-6.51,1
24,15389921488000,-8.62,-1.46,-3.41,1
24,15389961496000,-13.67,9.51,-11.6,1
24,15390041605000,-3.34,1.92,4.63,1
24,15390081644000,-1.38,-14.71,8.39,1
24,15390121622000,-3.95,-19.34,2.07,1
24,15390161478000,-2.53,-10.34,-0.8,1
24,15390241495000,-3.02,-10.61,1.12,1
24,15390281626000,-2.45,-8.69,-0.57,1
24,15390321481000,-2.15,-5.18,-0.5,1
24,15390361643000,-2.07,-5.05,1.27,1
24,15390441568000,-0.15,-9.34,3.21,1
24,15390481485000,2.56,-12.91,4.33,1
24,15390521494000,12.64,-9.81,4.86,1
24,15390561624000,6.36,-10.04,-3.17,1
24,15390641611000,-1.54,-19.61,4.25,1
24,15390681467000,0.34,-17.05,1.57,1
24,15390721628000,-0.8,-13.38,3.06,1
24,15390761514000,-4.82,-10.72,-1.42,1
24,15390841470000,-10.0,-4.1,3.79,1
24,15390881632000,-10.0,-5.24,-2.49,1
24,15390924478000,0.61,-5.56,-14.98,1
24,15390962076000,3.6,-7.46,6.63,1
24,15391041635000,4.75,-19.0,0.3,1
24,15391081644000,0.3,-19.61,0.19,1
24,15391121713000,0.3,-11.37,-1.33,1
24,15391163065000,-2.68,-0.89,-7.25,1
24,15391241525000,-4.37,-9.3,2.49,1
24,15391281503000,-1.76,-14.1,5.6,1
24,15391321634000,-5.71,-7.93,5.37,1
24,15391361551000,-7.44,-4.33,3.3,1
24,15391443247000,-4.94,-8.96,1.57,1
24,15391481485000,-2.79,-10.65,-1.61,1
24,15391521585000,-0.65,-9.0,-0.61,1
24,15391561502000,-2.6,-9.04,1.23,1
24,15391641489000,-3.06,-17.2,5.71,1
24,15391681497000,0.0,-12.15,6.85,1
24,15391721506000,1.99,-5.43,2.6,1
24,15391761514000,2.07,-7.01,-0.34,1
24,15391841470000,-6.24,-19.61,1.46,1
24,15391881632000,-4.29,-15.6,-0.93,1
24,15392001322000,-5.52,-10.0,3.6,1
24,15392001322000,-5.52,-10.0,3.6,1
24,15392041788000,-6.51,-7.16,2.87,1
24,15392081644000,-6.4,-8.2,0.38,1
24,15392121622000,-3.26,-9.0,-5.52,1
24,15392161508000,-0.31,-9.53,-3.26,1
24,15392241647000,2.14,-13.53,7.65,1
24,15392281503000,11.07,-18.12,8.24,1
24,15392322489000,6.74,-8.31,0.38,1
24,15392361673000,1.12,-4.52,-0.53,1
24,15392441477000,-4.94,-17.73,1.38,1
24,15392481485000,-2.49,-6.59,0.23,1
24,15392521524000,-1.57,-3.64,-0.27,1
24,15392561624000,-3.11,-8.81,-0.5,1
24,15392641641000,-9.43,-10.61,-1.5,1
24,15392681467000,-4.4,-9.38,-1.61,1
24,15392721597000,-1.08,-9.34,-1.04,1
24,15392761514000,0.08,-10.19,1.53,1
24,15392841470000,-4.9,-9.23,1.95,1
24,15392881510000,-2.98,-9.7,2.03,1
24,15392921518000,-3.02,-10.23,-0.95,1
24,15392961466000,-2.49,-9.34,-1.04,1
24,15393041483000,-2.83,-11.22,-0.99,1
24,15393081491000,0.38,-9.0,0.61,1
24,15393121652000,-2.68,-9.58,-0.76,1
24,15393161478000,-2.18,-9.47,-1.33,1
24,15393241556000,-1.54,-9.62,-0.93,1
24,15393281503000,-2.98,-9.81,-0.31,1
24,15393321512000,-3.38,-9.58,-0.84,1
24,15393361521000,-2.41,-9.92,-0.38,1
24,15393446237000,-3.45,-10.15,0.38,1
24,15393481729000,-3.99,-10.38,0.8,1
24,15682931619000,1.42,5.13,-0.53,4
24,15683011484000,6.36,7.82,-4.02,4
24,15683051523000,7.63,6.13,-1.99,4
24,15683091501000,3.02,7.35,0.27,4
24,15683131510000,0.3,7.06,0.99,4
24,15683211466000,5.01,6.05,-1.76,4
24,15683251627000,3.45,6.85,-1.27,4
24,15683291513000,2.22,7.35,-1.54,4
24,15683331522000,4.25,17.43,-3.72,4
24,15683391214000,10.99,17.43,-3.72,4
24,15683432077000,4.37,3.26,0.23,4
24,15683511942000,3.15,9.04,-1.42,4
24,15683551523000,1.57,7.55,-1.65,4
24,15683591470000,1.5,5.98,-1.92,4
24,15683631510000,3.06,5.63,-1.99,4
24,15683711496000,4.37,6.89,-2.98,4
24,15683751535000,4.56,7.4,-2.41,4
24,15683791330000,4.18,9.23,-2.07,4
24,15683831339000,3.91,13.82,0.19,4
24,15683911508000,10.27,9.66,-0.15,4
24,15683951517000,6.28,10.8,0.0,4
24,15683991464000,2.11,11.99,2.56,4
24,15684031656000,4.79,10.57,-5.22,4
24,15684111521000,3.68,8.81,-2.26,4
24,15684151499000,3.91,7.12,2.14,4
24,15684191477000,2.03,6.44,0.5,4
24,15684231546000,0.65,4.6,-2.18,4
24,15684311502000,3.41,5.01,0.72,4
24,15684352060000,4.4,5.94,-0.23,4
24,15684391641000,1.88,5.98,-1.42,4
24,15684431467000,1.12,15.13,-3.6,4
24,15684511484000,13.44,16.17,-4.37,4
24,15684551523000,6.7,1.95,0.04,4
24,15684591470000,1.65,4.25,0.76,4
24,15684631540000,2.41,8.58,-0.99,4
24,15684711466000,2.3,6.05,-1.57,4
24,15684751505000,3.79,5.56,-2.07,4
24,15684791513000,4.9,5.43,-1.88,4
24,15684831522000,5.18,8.58,-2.41,4
24,15684911508000,3.02,11.41,1.99,4
24,15684951486000,5.28,12.07,-1.14,4
24,15684991464000,6.55,11.11,-2.41,4
24,15685031503000,6.47,8.81,0.04,4
24,15685111521000,4.86,9.92,-0.84,4
24,15685151499000,2.91,11.65,-1.23,4
24,15685191477000,4.44,10.19,-2.34,4
24,15685231638000,7.59,9.77,1.08,4
24,15685311502000,1.27,7.93,-0.69,4
24,15685431284000,5.82,4.4,-0.53,4
24,15685431284000,5.82,4.4,-0.53,4
24,15685431284000,5.82,5.71,-1.12,4
24,15685511453000,0.0,7.01,-4.06,4
24,15685551462000,-0.15,2.45,-3.79,4
24,15685591501000,4.56,9.34,-3.57,4
24,15685631937000,12.41,2.98,-0.5,4
24,15685711496000,5.56,6.51,-1.73,4
24,15685751627000,4.99,9.58,-2.22,4
24,15685791513000,2.34,6.24,-0.99,4
24,15685831522000,2.22,5.01,-1.88,4
24,15685911508000,4.9,6.89,-2.34,4
24,15685952066000,5.67,6.63,-3.57,4
24,15685991464000,5.67,7.78,-4.29,4
24,15686031503000,5.52,10.23,-2.34,4
24,15686111521000,7.4,8.77,2.75,4
24,15686151468000,8.43,10.8,0.3,4
24,15686191446000,6.32,10.65,-1.69,4
24,15686231516000,6.93,7.89,-3.87,4
24,15686311472000,3.95,8.58,4.33,4
24,15686351511000,0.57,8.69,-0.23,4
24,15686391489000,-0.76,6.05,-3.83,4
24,15686431497000,2.49,4.56,1.8,4
24,15686511514000,3.83,6.24,-2.11,4
24,15686551645000,-0.34,6.17,-2.87,4
24,15686591501000,0.19,3.45,-1.8,4
24,15686631662000,7.82,15.89,-1.18,4
24,15686711496000,9.49,5.71,-1.92,4
24,15686751505000,6.47,6.4,-1.18,4
24,15686791513000,2.03,9.04,-0.84,4
24,15686831522000,1.88,4.67,-0.46,4
24,15686911508000,3.02,4.56,-0.72,4
24,15686952097000,5.28,7.08,-1.42,4
24,15686991464000,5.43,6.74,-2.53,4
24,15687031656000,4.9,11.35,-0.04,4
24,15687111521000,7.55,13.25,2.03,4
24,15687151499000,8.77,8.62,-1.65,4
24,15687191477000,7.16,7.67,1.73,4
24,15687231516000,6.59,10.99,-0.65,4
24,15687311502000,5.28,6.97,-3.64,4
24,15687352182000,4.02,7.25,-4.71,4
24,15687391519000,1.27,9.53,-4.94,4
24,15687431467000,-0.8,8.43,-0.38,4
24,15687511606000,0.65,6.55,-0.15,4
24,15687551492000,5.56,6.21,-0.72,4
24,15687591470000,4.29,7.5,-0.84,4
24,15687631540000,1.99,7.01,-0.72,4
24,15687711618000,0.76,7.12,0.34,4
24,15687751505000,0.95,6.7,-0.08,4
24,15687791483000,5.48,12.45,9.34,4
24,15687831674000,12.26,11.73,-6.55,4
24,15687911478000,4.37,8.05,-0.76,4
24,15687952066000,1.73,3.02,0.46,4
24,15687991586000,4.29,8.43,-0.76,4
24,15688031534000,3.53,8.2,-4.4,4
24,15688111521000,1.73,8.28,-2.22,4
24,15688152048000,2.56,10.65,3.57,4
24,15688191599000,1.76,12.91,6.28,4
24,15688261698000,4.56,6.89,-3.3,4
24,15688301523000,4.59,5.98,-4.18,4
24,15688341501000,4.99,6.32,-2.72,4
24,15688381540000,5.05,7.78,-0.89,4
24,15688461435000,5.6,10.84,-0.53,4
24,15688501474000,7.5,9.89,-1.92,4
24,15688541513000,7.89,6.36,-0.95,4
24,15688581583000,7.21,8.31,-1.61,4
24,15688661508000,7.44,11.96,-5.33,4
24,15688701639000,4.86,12.76,-8.66,4
24,15688741525000,5.82,10.8,-6.44,4
24,15688781687000,6.4,8.89,-3.91,4
24,15688821543000,6.89,8.89,-3.91,4
24,15688911478000,5.94,7.63,-2.45,4
24,15688952036000,-1.08,4.6,-0.34,4
24,15688991464000,-0.89,1.46,1.42,4
24,15689031534000,1.04,4.06,1.38,4
24,15689111490000,8.39,3.34,-0.8,4
24,15689152048000,19.0,18.47,-5.05,4
24,15689191446000,6.85,3.02,0.89,4
24,15689231546000,-2.15,1.46,-2.34,4
24,15689311624000,4.86,11.37,-1.65,4
24,15689352060000,2.18,4.44,0.23,4
24,15689391641000,3.68,6.17,-0.31,4
24,15689431497000,5.86,6.59,-1.38,4
24,15689511575000,6.63,5.13,-3.53,4
24,15689551523000,7.74,6.89,-3.83,4
24,15689591501000,7.7,10.5,-2.22,4
24,15689631479000,6.02,10.42,3.79,4
24,15689711496000,9.15,4.33,2.14,4
24,15689752207000,5.28,6.13,-2.22,4
24,15689791513000,7.35,8.54,-4.06,4
24,15689831674000,10.27,11.54,-4.29,4
24,15689911508000,3.15,10.73,1.57,4
24,15689951517000,-0.76,7.7,0.46,4
24,15689991464000,1.18,4.79,-1.33,4
24,15690031473000,5.71,2.96,0.95,4
24,15690111521000,-0.11,5.75,-2.53,4
24,15690152048000,0.65,2.64,-2.15,4
24,15690191477000,4.94,13.33,-2.03,4
24,15690231638000,11.45,3.17,-1.95,4
24,15690311502000,5.82,6.93,-1.5,4
24,15690352060000,3.53,9.38,-1.5,4
24,15690391611000,2.22,7.31,-0.89,4
24,15690481790000,3.79,4.48,-1.54,4
24,15690481790000,3.79,4.48,-1.54,4
24,15690561472000,7.93,5.86,-3.64,4
24,15690601633000,11.03,10.19,-1.73,4
24,15690641519000,12.07,12.53,11.84,4
24,15690681528000,6.66,13.4,0.84,4
24,15690761514000,7.31,12.79,-3.3,4
24,15690801645000,10.0,8.58,-3.6,4
24,15690841501000,6.78,7.7,-0.08,4
24,15690881540000,1.57,8.05,-0.42,4
24,15690961496000,1.14,3.68,-0.93,4
24,15691001871000,3.36,4.44,-0.95,4
24,15691041483000,3.57,5.37,-0.15,4
24,15691081552000,3.45,5.63,-2.3,4
24,15691161630000,1.84,6.44,-2.56,4
24,15691201547000,12.41,18.5,-4.21,4
24,15691241678000,14.6,7.21,-0.72,4
24,15691281534000,4.59,7.27,-1.54,4
24,15691361643000,2.26,7.59,-1.61,4
24,15691401468000,2.72,5.67,-0.8,4
24,15691441477000,3.57,4.18,-1.12,4
24,15691481546000,5.41,4.48,-3.95,4
24,15691561502000,7.44,8.24,-2.64,4
24,15691601511000,11.45,13.44,3.64,4
24,15691641519000,7.93,8.73,-1.23,4
24,15691681528000,7.25,10.5,3.06,4
24,15691761514000,8.16,10.23,-1.57,4
24,15691801615000,8.16,12.3,-4.06,4
24,15691841501000,5.28,9.53,0.42,4
24,15691881510000,3.68,6.85,-1.57,4
24,15691961618000,0.61,4.21,-1.88,4
24,15692001657000,1.84,3.76,-0.61,4
24,15692041513000,3.49,4.86,0.04,4
24,15692081522000,3.95,8.08,-3.3,4
24,15692161508000,3.11,5.24,-1.14,4
24,15692201547000,7.55,15.85,-2.07,4
24,15692241525000,14.33,12.79,-3.53,4
24,15692281656000,8.54,2.34,-1.42,4
24,15692361521000,2.45,8.28,-1.61,4
24,15692401499000,2.3,7.59,-1.38,4
24,15692441477000,1.99,4.44,-0.93,4
24,15692481485000,3.3,3.99,-2.07,4
24,15692561502000,7.55,5.43,-2.98,4
24,15692601633000,9.72,11.18,-1.92,4
24,15692761331000,5.82,8.89,0.3,4
24,15692761331000,5.82,8.89,0.3,4
24,15692761331000,5.82,8.89,0.3,4
24,15692801401000,6.89,11.22,-1.27,4
24,15692841654000,7.93,8.96,-5.6,4
24,15692881662000,4.29,7.74,2.6,4
24,15692961496000,1.84,5.86,-2.22,4
24,15693001840000,0.69,4.02,-6.05,4
24,15693041483000,1.69,4.99,-0.61,4
24,15693081705000,5.52,7.21,-0.31,4
24,15693161478000,-0.27,7.44,-1.23,4
24,15693201547000,4.29,10.46,-2.49,4
24,15693241800000,14.33,18.66,-4.71,4
24,15693281503000,10.08,2.91,0.0,4
24,15693361490000,3.3,8.05,-0.69,4
24,15693401468000,3.17,7.74,-1.69,4
24,15693441477000,3.17,4.99,-1.38,4
24,15693482767000,3.15,4.29,-2.49,4
24,15693561502000,5.75,5.9,-3.21,4
24,15693601511000,7.46,9.23,-3.26,4
24,15693641519000,8.47,12.76,1.99,4
24,15693681497000,9.66,8.89,-1.88,4
24,15693761514000,8.47,9.66,0.15,4
24,15693801492000,6.89,11.11,-1.23,4
24,15693841562000,7.63,9.19,-2.49,4
24,15693881510000,4.75,8.43,0.57,4
24,15693961618000,1.99,6.74,-0.5,4
24,15694001535000,1.5,5.18,-0.89,4
24,15694041483000,3.36,3.38,-0.38,4
24,15694081644000,3.53,4.06,-0.93,4
24,15694161478000,3.36,5.41,-0.99,4
24,15694201547000,4.79,5.13,-1.42,4
24,15694241831000,9.96,16.89,-2.22,4
24,15694281656000,11.95,1.54,-1.76,4
24,15694361521000,4.4,5.05,-1.65,4
24,15694401499000,4.1,8.62,-2.18,4
24,15694441599000,3.45,7.35,-1.88,4
24,15694481516000,2.83,5.43,-1.14,4
24,15694561594000,5.48,6.09,-1.38,4
24,15694601480000,6.21,5.37,-2.07,4
24,15694641519000,6.47,5.52,-2.96,4
24,15694681497000,5.56,13.1,4.9,4
24,15694761484000,6.51,8.92,-2.91,4
24,15694801523000,9.92,8.5,-1.18,4
24,15694841470000,8.5,11.03,-3.15,4
24,15694881632000,6.32,7.44,-0.11,4
24,15694921549000,6.36,7.44,-0.11,4
24,15694990366000,8.43,7.46,-2.76,4
24,15695031595000,8.39,7.27,-5.01,4
24,15695111643000,0.99,11.35,-5.71,4
24,15695152017000,-1.33,8.73,1.46,4
24,15695191477000,-0.65,7.67,3.53,4
24,15695231546000,5.37,6.44,1.57,4
24,15695311472000,0.72,6.09,-1.08,4
24,15695351480000,-0.15,5.75,-0.76,4
24,15695391489000,1.53,6.17,0.11,4
24,15695431528000,7.31,7.4,6.59,4
24,15695511575000,17.31,11.56,-1.73,4
24,15695551523000,5.05,10.19,-0.8,4
24,15695591470000,-0.61,5.79,0.23,4
24,15695631540000,0.46,6.74,-0.95,4
24,15695711496000,5.98,7.21,-5.41,4
24,15695751505000,4.86,5.79,-1.27,4
24,15695791635000,4.79,8.08,0.38,4
24,15695831491000,0.8,12.49,5.63,4
24,15695911508000,4.18,7.7,-4.4,4
24,15695951486000,3.17,7.25,-2.18,4
24,15695991464000,3.76,8.05,0.11,4
24,15696031503000,5.18,7.86,-1.95,4
24,15696111521000,8.27,7.74,0.19,4
24,15696151499000,8.16,8.08,-2.3,4
24,15696191477000,7.27,6.32,-2.22,4
24,15696231516000,7.93,5.75,-0.65,4
24,15696311472000,8.08,11.73,-3.02,4
24,15696352213000,5.86,12.18,-6.13,4
24,15696391519000,4.02,10.42,-7.7,4
24,15696431467000,6.85,8.47,-0.19,4
24,15696511484000,5.05,9.38,-3.99,4
24,15696551431000,10.04,7.78,-0.93,4
24,15696591623000,6.93,7.44,-2.76,4
24,15696631510000,2.53,3.11,1.12,4
24,15696711496000,1.53,1.65,0.0,4
24,15696752084000,4.99,3.87,0.15,4
24,15696791635000,5.43,3.72,-0.08,4
24,15696831644000,12.6,13.82,-3.38,4
24,15696911508000,1.88,3.15,2.37,4
24,15696951517000,2.56,9.3,-0.27,4
24,15696991464000,5.63,10.08,-1.92,4
24,15697031473000,3.6,3.64,-0.57,4
24,15697111490000,5.37,5.22,-0.84,4
24,15697152048000,8.81,6.97,-2.11,4
24,15697191599000,8.05,6.09,-3.21,4
24,15697231516000,6.02,6.78,-2.11,4
24,15697311472000,4.14,10.46,0.19,4
24,15697351511000,6.89,9.89,-2.45,4
24,15697391519000,7.59,10.46,0.15,4
24,15697431497000,9.38,8.89,-0.5,4
24,15697511606000,7.89,9.0,-1.84,4
24,15697552103000,10.11,7.06,-3.41,4
24,15697591501000,6.28,9.89,-2.07,4
24,15697631510000,1.76,9.92,-0.61,4
24,15697711496000,0.72,4.18,-2.45,4
24,15697752237000,2.03,4.02,-0.89,4
24,15697791513000,4.79,5.33,-0.19,4
24,15697831430000,2.83,7.59,-2.3,4
24,15697911508000,5.94,7.78,-2.3,4
24,15697951669000,14.02,18.58,-4.52,4
24,15697991464000,7.63,4.02,-1.57,4
24,15698031473000,4.21,8.01,-1.84,4
24,15698111490000,4.33,7.55,-1.8,4
24,15698151499000,2.56,5.33,-1.42,4
24,15698191446000,3.06,5.01,-1.46,4
24,15698231485000,4.48,5.33,-3.6,4
24,15698311502000,5.52,6.24,-3.68,4
24,15698352121000,6.93,7.97,-2.98,4
24,15698391519000,10.31,11.07,3.64,4
24,15698431558000,9.0,12.11,-0.72,4
24,15698513071000,9.08,9.38,-1.54,4
24,15698551492000,11.5,7.06,-3.06,4
24,15698591470000,9.38,8.85,-2.83,4
24,15698631479000,3.17,7.31,-0.11,4
24,15698711618000,0.46,4.99,-0.46,4
24,15698752084000,0.76,2.96,-1.84,4
24,15698791635000,3.53,3.21,-1.76,4
24,15698831522000,4.06,6.63,-0.34,4
24,15698911478000,2.83,9.58,-1.5,4
24,15698951517000,5.52,8.35,-3.17,4
24,15698991586000,13.78,17.2,-4.79,4
24,15699031534000,13.57,0.8,-1.12,4
24,15699111643000,4.33,6.32,-1.42,4
24,15699151499000,5.05,8.62,-1.61,4
24,15699191477000,2.64,4.99,-0.61,4
24,15699231516000,1.95,4.14,-0.69,4
24,15699311472000,5.63,6.63,-3.21,4
24,15699352060000,6.63,6.82,-4.33,4
24,15699391519000,6.09,8.39,-2.22,4
24,15699461771000,8.85,10.46,-1.31,4
24,15699501535000,11.54,7.59,0.27,4
24,15699541513000,9.53,6.55,0.8,4
24,15699581552000,6.59,9.66,-0.93,4
24,15699661478000,6.7,9.43,-3.57,4
24,15699701486000,4.94,8.62,-0.42,4
24,15699741525000,4.1,7.97,1.14,4
24,15699781534000,2.68,4.4,-2.03,4
24,15699861490000,3.21,3.79,-0.42,4
24,15699901499000,3.68,4.99,-0.31,4
24,15699941629000,3.11,6.09,-0.65,4
24,15699981546000,3.6,5.43,-1.95,4
24,15700141275000,7.93,4.63,-1.95,4
24,15700141275000,7.93,4.63,-1.95,4
24,15700141275000,7.93,4.63,-1.95,4
24,15700181497000,6.4,7.44,-1.8,4
24,15700261667000,3.15,5.67,-0.99,4
24,15700301645000,3.26,4.86,-0.61,4
24,15700341501000,4.9,4.82,-1.42,4
24,15700381540000,5.01,3.99,-3.64,4
24,15700461496000,5.86,8.08,-3.15,4
24,15700501505000,9.58,13.48,4.4,4
24,15700541544000,8.27,8.73,-0.23,4
24,15700581522000,8.69,8.92,-0.65,4
24,15700661508000,7.01,9.34,-0.53,4
24,15700701517000,6.09,9.15,-3.17,4
24,15700741495000,5.56,10.08,-3.49,4
24,15700781687000,3.02,6.97,0.76,4
24,15700861521000,3.21,4.86,-3.53,4
24,15700901621000,2.49,3.26,0.11,4
24,15700941477000,3.87,4.67,1.61,4
24,15700981546000,2.87,5.09,-0.95,4
24,15701061502000,4.86,4.6,-1.84,4
24,15701101511000,9.92,8.89,-3.87,4
24,15701141519000,17.88,16.47,-5.13,4
24,15701181528000,8.62,1.04,-0.11,4
24,15701261636000,4.44,8.47,-1.8,4
24,15701301523000,7.7,11.8,-2.56,4
24,15701341470000,2.22,4.52,-1.33,4
24,15701381510000,2.14,5.98,-1.46,4
24,15701461618000,4.9,5.56,-1.73,4
24,15701501505000,5.2,4.94,-2.91,4
24,15701541483000,5.75,5.71,-4.02,4
24,15701581522000,5.63,13.1,3.34,4
24,15701661508000,10.69,10.73,-2.07,4
24,15701701517000,12.79,7.89,0.99,4
24,15701741464000,9.77,6.13,0.38,4
24,15701781534000,7.01,8.85,-3.15,4
24,15701861490000,5.52,9.3,-5.33,4
24,15701901621000,5.01,8.96,-3.3,4
24,15701942362000,4.52,8.35,3.36,4
24,15701981546000,2.45,4.86,-3.21,4
24,15702061624000,4.06,3.49,-0.34,4
24,15702101480000,3.95,3.95,0.23,4
24,15702141519000,2.14,4.18,-0.46,4
24,15702181497000,3.57,6.24,-2.76,4
24,15702261514000,10.53,8.47,-4.02,4
24,15702301523000,18.62,16.17,-3.95,4
24,15702341501000,7.65,1.42,-0.65,4
24,15702381662000,0.91,8.77,-1.84,4
24,15702461618000,7.97,11.14,-2.22,4
24,15702501505000,3.11,5.33,-1.23,4
24,15702541666000,2.98,5.01,-1.12,4
24,15702581735000,4.06,5.75,-1.99,4
24,15702661508000,4.71,4.75,-3.11,4
24,15702701517000,5.33,6.02,-2.22,4
24,15702741464000,5.41,9.08,4.63,4
24,15702781503000,6.66,9.23,-2.15,4
24,15702861490000,13.67,8.92,-0.15,4
24,15702901468000,8.54,8.16,-1.23,4
24,15702941507000,5.41,8.08,-0.65,4
24,15702981546000,6.21,5.83,-2.87,4
24,15703061502000,4.33,8.05,-3.68,4
24,15703101511000,2.75,8.96,-5.05,4
24,15703141641000,1.61,8.54,-4.79,4
24,15703181497000,0.95,7.86,-3.87,4
24,15703261514000,5.56,6.09,1.53,4
24,15703301523000,2.6,5.43,-1.04,4
24,15703341501000,0.57,5.67,-0.23,4
24,15703381510000,0.61,5.94,5.13,4
24,15703461618000,12.87,8.77,6.78,4
24,15703501505000,18.07,8.08,-8.2,4
24,15703541544000,9.15,8.05,-1.76,4
24,15703581522000,2.26,7.4,4.48,4
24,15703661478000,4.75,7.5,0.57,4
24,15703701486000,7.78,8.31,-1.76,4
24,15703741495000,5.24,6.59,-2.98,4
24,15703781503000,4.75,7.86,-2.3,4
24,15703861612000,3.68,8.58,-1.46,4
24,15703901499000,1.23,10.31,2.72,4
24,15703941477000,1.5,9.92,-0.8,4
24,15703981546000,5.13,5.94,1.27,4
24,15704061502000,5.28,7.82,-0.99,4
24,15704101480000,3.57,8.58,-3.15,4
24,15704141519000,4.79,7.67,-2.18,4
24,15704181497000,7.89,8.62,-0.89,4
24,15704261728000,9.72,4.29,-0.5,4
24,15704301523000,6.4,5.28,-0.34,4
24,15704342966000,8.66,11.65,-4.48,4
24,15704423319000,6.05,10.73,-13.87,4
24,15704461954000,3.41,11.07,-3.99,4
24,15704502268000,8.69,10.46,6.02,4
24,15704542337000,5.86,8.73,-6.55,4
24,15704581552000,6.24,7.12,-1.31,4
24,15704661508000,3.83,3.6,0.42,4
24,15704701639000,2.45,2.07,0.5,4
24,15704741495000,3.34,2.03,0.99,4
24,15704781534000,5.37,3.21,-0.31,4
24,15704861490000,7.89,1.95,0.38,4
24,15704901499000,17.69,8.43,0.3,4
24,15704941507000,13.63,14.06,-3.72,4
24,15704981546000,7.04,3.38,-1.23,4
24,15705061502000,5.33,10.69,-2.72,4
24,15705101511000,7.65,10.31,-2.76,4
24,15705141489000,3.79,4.82,-1.61,4
24,15705181803000,3.83,6.24,-1.04,4
24,15705261514000,4.75,5.18,-1.14,4
24,15705301523000,6.21,6.4,-2.22,4
24,15705341470000,4.02,5.56,-4.14,4
24,15705381571000,4.75,8.81,1.99,4
24,15705461496000,11.84,6.51,-1.12,4
24,15705501535000,12.91,6.82,0.89,4
24,15705541666000,10.27,7.55,-0.5,4
24,15705583231000,5.79,10.31,-6.93,4
24,15705661630000,7.01,5.56,-4.71,4
24,15705701547000,12.56,6.51,1.46,4
24,15705741495000,4.29,9.51,-1.18,4
24,15705781656000,0.53,6.17,-0.46,4
24,15705861521000,4.37,3.49,-0.23,4
24,15705901499000,4.14,4.6,-0.57,4
24,15705941507000,1.99,3.49,0.34,4
24,15705981546000,4.4,6.05,-2.98,4
24,15706061624000,16.93,17.08,-3.11,4
24,15706101511000,11.11,8.2,-2.64,4
24,15706141550000,2.45,0.23,-2.87,4
24,15706181680000,6.82,8.89,-3.06,4
24,15706261636000,4.02,5.28,-1.8,4
24,15706301523000,3.79,4.67,-1.04,4
24,15706341501000,4.4,5.79,-0.69,4
24,15706381662000,4.56,4.82,-1.95,4
24,15706461496000,5.43,5.63,-3.53,4
24,15706501474000,7.25,9.15,-3.76,4
24,15706541513000,9.0,9.92,-1.46,4
24,15706581522000,12.76,7.82,0.65,4
24,15706661539000,6.28,8.08,-1.61,4
24,15706701517000,6.63,9.34,-2.72,4
24,15706741464000,8.31,9.08,-3.91,4
24,15706781534000,7.59,8.85,-0.93,4
24,15706861612000,2.64,6.85,-1.8,4
24,15706901499000,1.33,4.52,-0.08,4
24,15706941538000,3.45,3.49,-1.08,4
24,15706981638000,4.56,3.95,-0.99,4
24,15707061502000,3.21,6.09,-1.54,4
24,15707101541000,4.14,4.06,-3.02,4
24,15707141672000,12.72,8.81,-4.25,4
24,15707181528000,14.48,2.87,-2.07,4
24,15707261545000,4.9,5.43,-1.99,4
24,15707301645000,5.94,10.34,-2.76,4
24,15707341470000,3.36,7.35,-1.76,4
24,15707381540000,2.34,3.83,-0.93,4
24,15707541300000,5.41,5.24,-2.91,4
24,15707541300000,5.41,5.24,-2.91,4
24,15707541300000,5.41,5.24,-2.91,4
24,15707581491000,7.35,10.76,4.21,4
24,15707661630000,10.72,6.82,-1.8,4
24,15707701517000,9.23,7.93,-2.41,4
24,15707741617000,5.9,8.35,-0.61,4
24,15707781534000,6.21,8.08,-2.45,4
24,15707861521000,8.62,6.51,-2.3,4
24,15707901468000,7.78,8.39,-2.15,4
24,15707941629000,3.34,7.55,-0.19,4
24,15707981577000,1.73,2.68,-1.38,4
24,15708061502000,4.82,4.1,0.15,4
24,15708101541000,3.49,4.94,-0.84,4
24,15708141489000,4.48,5.33,-1.65,4
24,15708181558000,4.25,6.7,-4.06,4
24,15708261545000,18.62,16.74,-6.05,4
24,15708301492000,8.08,1.76,-1.14,4
24,15708341470000,1.18,0.0,-1.08,4
24,15708381662000,4.99,7.97,-1.95,4
24,15708461496000,3.6,5.37,-1.38,4
24,15708501505000,4.02,4.52,-0.99,4
24,15708541483000,5.41,4.75,-1.8,4
24,15708581552000,5.71,3.95,-3.83,4
24,15708661508000,6.89,8.96,-2.56,4
24,15708701517000,8.01,11.5,3.57,4
24,15708741495000,9.49,9.15,-2.3,4
24,15708781595000,12.03,9.19,-1.14,4
24,15708861490000,6.7,9.43,-1.14,4
24,15708901621000,9.04,7.01,-2.53,4
24,15708941507000,4.14,7.86,-1.38,4
24,15708981546000,1.95,5.18,-2.26,4
24,15709061624000,3.53,4.67,-1.31,4
24,15709101602000,3.45,4.21,0.04,4
24,15709141519000,4.94,4.94,-0.53,4
24,15709181619000,4.71,6.51,-1.92,4
24,15709261514000,3.45,5.63,-2.18,4
24,15709301523000,9.89,13.25,-3.68,4
24,15709341501000,15.51,12.57,-2.72,4
24,15709381662000,4.86,4.99,-1.46,4
24,15709461496000,4.59,9.08,-2.26,4
24,15709501474000,2.98,6.85,-2.15,4
24,15709541513000,2.41,3.95,-2.34,4
24,15709581888000,4.06,3.3,-2.83,4
24,15709661508000,8.47,5.71,-3.26,4
24,15709701517000,6.21,5.75,-2.6,4
24,15709741495000,8.35,11.41,-3.26,4
24,15709781534000,11.95,6.89,1.27,4
24,15709861521000,9.72,6.21,-0.8,4
24,15709901468000,7.12,3.79,-1.99,4
24,15709941629000,8.12,7.12,-4.4,4
24,15709981546000,7.86,7.74,1.53,4
24,15710061624000,4.06,9.34,-0.57,4
24,15710101511000,1.27,6.32,-2.11,4
24,15710141489000,4.33,3.49,-1.46,4
24,15710181528000,6.09,5.13,-0.53,4
24,15710261667000,4.06,4.82,-1.27,4
24,15710301523000,3.87,5.67,-1.95,4
24,15710341470000,3.87,4.06,-3.26,4
24,15710381540000,10.23,12.53,-3.99,4
24,15710461466000,5.13,0.89,-1.5,4
24,15710501627000,4.18,3.91,-1.65,4
24,15710541513000,5.6,8.85,-1.95,4
24,15710581552000,3.79,5.05,-0.84,4
24,15710661630000,3.91,5.01,-0.69,4
24,15710701517000,5.63,5.9,-3.11,4
24,15710741495000,6.24,6.02,-4.21,4
24,15710781534000,5.67,7.86,-1.99,4
24,15710861643000,5.33,9.85,5.71,4
24,15710901499000,4.44,8.39,-3.38,4
24,15710941477000,7.63,10.57,-0.31,4
24,15710981668000,11.22,7.86,-3.99,4
24,15711061502000,7.16,8.28,1.31,4
24,15711101511000,7.59,6.85,0.19,4
24,15711141611000,6.17,6.28,-2.91,4
24,15711181558000,4.33,6.89,-3.6,4
24,15711261514000,1.99,7.63,-7.06,4
24,15711261514000,1.99,7.63,-7.06,4
24,15711261514000,1.99,7.63,-7.06,4
24,15711261514000,1.99,7.63,-7.06,4
24,15754871652000,5.86,5.63,1.12,0
24,15754911508000,4.82,5.01,-0.23,0
24,15754951486000,2.34,6.59,0.15,0
24,15754991495000,1.18,7.01,0.34,0
24,15755071665000,2.83,11.41,-0.89,0
24,15755111521000,4.37,12.3,-0.42,0
24,15755151499000,2.07,5.48,-0.76,0
24,15755191507000,6.59,12.3,-1.76,0
24,15755271433000,2.91,3.64,2.72,0
24,15755311502000,3.72,4.52,1.14,0
24,15755351511000,10.11,9.11,1.92,0
24,15755431680000,7.97,0.57,2.07,0
24,15755471475000,3.34,0.11,2.72,0
24,15755511667000,-1.57,4.99,-1.42,0
24,15755551523000,-1.31,10.15,-3.17,0
24,15755591532000,-2.53,16.93,-5.28,0
24,15755671640000,5.01,11.54,5.28,0
24,15755711496000,8.69,10.08,-2.76,0
24,15755751627000,13.82,10.34,1.57,0
24,15755791666000,4.18,3.57,1.95,0
24,15755871500000,11.18,13.18,-2.64,0
24,15755911508000,15.6,14.48,-1.65,0
24,15755951486000,0.8,0.84,-0.04,0
24,15755991495000,2.37,3.06,-4.9,0
24,15756071634000,7.12,1.69,-1.5,0
24,15756111673000,3.91,-1.18,5.82,0
24,15756151621000,4.14,6.47,6.51,0
24,15756231638000,1.23,16.82,-2.11,0
24,15756271494000,1.31,13.63,0.46,0
24,15756311502000,3.57,7.4,3.21,0
24,15756351633000,9.38,11.11,-1.88,0
24,15756431619000,8.54,5.24,2.49,0
24,15756471628000,1.65,-0.69,-0.04,0
24,15756511514000,3.26,5.43,-3.26,0
24,15756551645000,15.55,18.39,-4.82,0
24,15756631479000,9.62,6.24,-2.34,0
24,15756671549000,7.55,2.98,-2.22,0
24,15756711618000,2.56,1.23,2.79,0
24,15756751627000,-1.84,1.76,6.7,0
24,15756831613000,-1.31,14.18,1.65,0
24,15756871469000,4.9,17.69,-3.87,0
24,15756911630000,5.18,10.5,-0.65,0
24,15756951639000,9.34,9.11,-3.17,0
24,15757031534000,3.3,4.25,1.57,0
24,15757071512000,3.45,7.7,-0.15,0
24,15757111490000,10.46,13.67,-5.6,0
24,15757151499000,11.75,16.86,-2.49,0
24,15757231485000,6.21,7.67,-1.57,0
24,15757282205000,1.65,5.6,3.15,0
24,15757322092000,0.23,0.61,2.68,0
24,15757361490000,-0.65,-2.22,3.17,0
24,15757401590000,-2.07,0.42,0.34,0
24,15757481516000,0.95,11.26,-1.27,0
24,15757521646000,7.12,18.66,-3.3,0
24,15757561502000,10.19,17.27,-1.84,0
24,15757601511000,12.34,13.8,-1.69,0
24,15757681497000,-1.33,1.95,2.03,0
24,15757721597000,5.24,11.07,-0.8,0
24,15757761545000,13.06,18.01,-2.07,0
24,15757801523000,8.12,10.95,-0.38,0
24,15757841593000,7.59,7.44,-1.31,0
24,15757921518000,-1.76,-1.76,1.84,0
24,15757961618000,-3.15,-3.26,2.83,0
24,15758001627000,-2.72,0.0,1.23,0
24,15758081613000,2.45,15.66,-0.34,0
24,15758123941000,13.95,18.7,-2.68,0
24,15758161508000,16.44,15.89,0.65,0
24,15758201547000,5.41,6.63,0.61,0
24,15758281656000,15.98,9.08,-5.75,0
24,15758321512000,13.59,9.28,-1.65,0
24,15758361521000,3.98,3.72,-1.18,0
24,15758401651000,1.04,3.17,-1.95,0
24,15758481485000,2.75,6.78,0.15,0
24,15758521524000,4.37,4.21,-2.11,0
24,15758561563000,4.94,2.87,-0.69,0
24,15758601541000,6.36,1.95,-1.88,0
24,15758681528000,18.73,16.28,-0.99,0
24,15758721506000,16.59,19.27,1.23,0
24,15758761636000,7.82,10.5,6.43,0
24,15758801523000,5.18,6.47,5.24,0
24,15758881601000,-2.83,1.61,-3.76,0
24,15758931375000,-4.29,0.23,-3.64,0
24,15758971414000,1.5,4.94,-3.49,0
24,15759011514000,15.4,9.38,-5.28,0
24,15759057047000,17.77,7.82,2.68,0
24,15759098062000,5.75,1.73,0.89,0
24,15759262094000,3.36,7.08,-1.57,0
24,15759262094000,3.36,7.08,-1.57,0
24,15759262094000,3.36,7.08,-1.57,0
24,15759301981000,7.86,13.53,-9.53,0
24,15759381571000,-0.89,6.59,-5.33,0
24,15759421671000,6.24,4.56,-2.34,0
24,15759461649000,12.18,5.75,-0.65,0
24,15759501505000,18.62,6.44,2.96,0
24,15759541666000,17.43,2.49,5.79,0
24,15759621530000,-7.5,1.33,8.12,0
24,15759661630000,-1.95,1.08,1.57,0
24,15759701639000,-0.93,3.91,-0.84,0
24,15759741556000,-1.8,7.86,-0.69,0
24,15759821634000,15.13,17.77,1.99,0
24,15759861551000,5.67,6.28,3.45,0
24,15759901621000,1.23,7.67,6.97,0
24,15759981638000,15.75,18.7,-7.59,0
24,15760022226000,13.57,9.47,-2.22,0
24,15760061441000,10.99,0.65,3.26,0
24,15760101633000,8.12,2.49,2.22,0
24,15760181619000,-3.15,-1.84,2.91,0
24,15760221597000,-3.57,-1.65,0.65,0
24,15760261514000,-3.64,-0.19,1.76,0
24,15760301645000,-1.92,1.31,1.38,0
24,15760341623000,0.72,5.98,-1.38,0
24,15760421610000,14.71,14.98,5.01,0
24,15760461496000,4.06,10.69,3.87,0
24,15760501474000,16.17,15.02,-5.94,0
24,15760581766000,10.38,-5.28,-3.21,0
24,15760581766000,10.38,-5.28,-3.21,0
24,15760671488000,-4.86,1.95,4.02,0
24,15760711435000,-2.96,2.49,-0.99,0
24,15760751596000,0.69,8.54,2.22,0
24,15760811533000,15.21,18.77,-2.56,0
24,15760851541000,17.77,10.42,2.45,0
24,15760931467000,4.86,4.02,-4.71,0
24,15760971506000,19.0,15.32,-6.47,0
24,15761011575000,11.11,1.18,2.22,0
24,15761051645000,10.99,-0.19,0.19,0
24,15761131601000,-5.52,4.4,5.33,0
24,15761171518000,-3.15,-0.11,0.61,0
24,15761211435000,-2.22,0.65,2.87,0
24,15761251627000,1.27,7.27,-1.18,0
24,15761304422000,12.91,18.73,-2.6,0
24,15761381571000,8.73,5.24,0.27,0
24,15761421518000,1.31,2.72,2.37,0
24,15761461466000,7.25,6.09,0.0,0
24,15761501566000,16.44,11.8,-4.6,0
24,15761581613000,8.05,3.3,-0.99,0
24,15761621500000,10.34,4.29,-0.57,0
24,15761661630000,6.7,1.08,2.26,0
24,15761701486000,2.49,0.57,-0.38,0
24,15761781503000,-1.84,0.57,1.84,0
24,15761821512000,-1.61,4.75,3.87,0
24,15761861673000,-0.65,4.02,0.23,0
24,15761901499000,6.02,9.72,-4.71,0
24,15761981546000,18.28,12.45,0.5,0
24,15762021494000,9.34,5.9,1.5,0
24,15762061502000,3.53,7.89,5.63,0
24,15762101633000,7.93,7.93,0.23,0
24,15762141580000,7.93,7.82,-2.18,0
24,15762221597000,6.82,4.6,-2.91,0
24,15762261911000,5.79,3.21,-1.73,0
24,15762301615000,9.81,6.32,-1.04,0
24,15762341593000,6.47,1.27,-0.89,0
24,15762421640000,1.38,-0.38,0.23,0
24,15762461618000,0.76,-0.95,3.26,0
24,15762501505000,0.19,0.84,8.31,0
24,15762581674000,9.04,9.66,-4.9,0
24,15762621500000,16.02,18.73,-4.82,0
24,15762661508000,12.83,12.45,-3.45,0
24,15762701517000,12.79,7.93,-4.82,0
24,15762781595000,5.09,3.95,0.15,0
24,15762821512000,13.48,10.99,-2.03,0
24,15762861521000,11.84,13.87,4.21,0
24,15762901468000,4.94,9.04,1.88,0
24,15762944711000,4.75,11.37,-3.57,0
24,15763031595000,2.53,5.28,-1.42,0
24,15763071481000,8.27,2.91,-1.57,0
24,15763111521000,10.53,2.11,-3.95,0
24,15763151468000,11.65,-0.04,-3.34,0
24,15763231485000,14.21,-1.69,2.41,0
24,15763271646000,7.59,1.08,2.75,0
24,15763311594000,5.86,13.44,11.5,0
24,15763351511000,15.09,11.73,1.88,0
24,15763431467000,7.93,8.28,5.52,0
24,15763471506000,4.33,6.66,5.63,0
24,15763511636000,4.94,6.89,0.15,0
24,15763551523000,2.11,4.94,-3.02,0
24,15763631632000,1.23,5.48,-2.37,0
24,15763671457000,5.56,5.13,-0.69,0
24,15763711618000,14.18,4.56,-1.14,0
24,15763751718000,19.57,2.76,-0.72,0
24,15763831491000,5.94,3.21,0.42,0
24,15763871500000,4.63,4.94,0.19,0
24,15763911630000,7.16,7.4,-0.8,0
24,15763951517000,7.63,10.95,-3.3,0
24,15764031778000,1.5,7.55,-3.91,0
24,15764071512000,7.74,6.47,-2.79,0
24,15764111490000,9.28,4.86,-1.84,0
24,15764151621000,8.81,2.87,-2.26,0
24,15764231516000,12.26,-0.23,-0.27,0
24,15764271646000,11.8,4.02,4.37,0
24,15764271646000,11.8,4.02,4.37,0
24,15764371561000,2.87,-1.84,3.34,0
24,15764411478000,-1.99,-2.14,4.14,0
24,15764451639000,-0.61,-0.11,-0.19,0
24,15764531595000,6.28,8.24,-0.31,0
24,15764571634000,18.89,18.35,-0.89,0
24,15764611490000,12.87,12.98,-2.18,0
24,15764651621000,3.45,4.06,-0.34,0
24,15764731516000,16.66,11.56,-4.71,0
24,15764771646000,17.24,9.53,-4.86,0
24,15764811502000,11.65,-3.15,-3.3,0
24,15764851633000,10.11,-2.98,0.61,0
24,15764931619000,-5.22,-0.08,4.48,0
24,15764971506000,-3.95,2.37,2.68,0
24,15765011484000,0.5,9.19,7.97,0
24,15765051492000,4.94,12.3,-1.46,0
24,15765112711000,18.85,15.66,-0.84,0
24,15765152200000,9.53,6.17,5.56,0
24,15765191507000,6.02,4.86,-2.87,0
24,15765281442000,9.3,0.57,0.76,0
24,15765321604000,5.13,-1.88,-0.19,0
24,15765361521000,-3.79,1.31,3.45,0
24,15765401468000,-5.6,1.14,2.11,0
24,15765481546000,8.43,17.05,-3.41,0
24,15765521494000,17.24,17.12,-0.72,0
24,15765561472000,13.21,7.89,-3.21,0
24,15765601480000,5.82,1.31,-0.61,0
24,15765641672000,0.57,-1.57,0.76,0
24,15765721506000,18.89,12.18,-1.65,0
24,15765761514000,9.62,-1.14,0.11,0
24,15765801492000,2.68,1.99,2.37,0
24,15765881601000,-5.83,6.13,11.33,0
24,15765921518000,3.79,6.59,-1.23,0
24,15765961618000,16.24,17.62,-2.87,0
24,15766001505000,16.21,11.56,-2.76,0
24,15766081491000,3.11,1.92,2.53,0
24,15766201425000,19.23,13.8,-2.56,0
24,15766201425000,19.23,13.8,-2.56,0
24,15766201425000,19.23,13.8,-2.56,0
24,15766281595000,4.25,-5.75,-3.11,0
24,15766321512000,-4.86,1.5,2.68,0
24,15766361521000,-4.18,3.17,11.6,0
24,15766401499000,0.61,7.55,0.34,0
24,15766441690000,14.56,16.7,-0.57,0
24,15766521524000,10.57,5.43,-3.06,0
24,15766561502000,2.91,-1.04,-1.73,0
24,15766601511000,4.37,0.08,-3.6,0
24,15766681741000,12.26,2.26,-2.3,0
24,15766721475000,5.79,-6.85,-2.64,0
24,15766761850000,0.46,2.6,0.3,0
24,15766801523000,0.08,5.01,0.99,0
24,15766841654000,4.33,1.14,9.85,0
24,15766921488000,16.32,16.32,-7.12,0
24,15766961588000,13.25,13.21,-1.65,0
24,15767001535000,8.73,7.78,-3.06,0
24,15767081522000,10.88,3.95,-6.7,0
24,15767121500000,11.14,6.21,-3.41,0
24,15767161508000,17.88,13.59,-1.69,0
24,15767201547000,5.52,4.18,0.46,0
24,15767281626000,6.13,7.06,-0.8,0
24,15767321573000,12.03,10.76,-3.6,0
24,15767361551000,1.18,10.15,-4.99,0
24,15767401499000,3.6,6.13,-5.13,0
24,15767481516000,9.7,1.42,-2.15,0
24,15767521524000,12.64,0.95,-1.73,0
24,15767561502000,14.44,0.53,1.23,0
24,15767601602000,10.84,-0.84,1.14,0
24,15767681497000,8.62,9.04,4.44,0
24,15767721597000,18.01,14.02,0.72,0
24,15767761514000,9.92,9.62,3.95,0
24,15767801645000,6.97,4.52,5.05,0
24,15767881510000,3.26,7.21,-3.6,0
24,15767921640000,0.42,5.24,-4.1,0
24,15767961496000,2.14,4.52,-2.53,0
24,15768001535000,4.33,3.87,-1.84,0
24,15768081461000,14.86,0.93,-5.13,0
24,15768121500000,19.23,4.67,-0.93,0
24,15768161630000,8.2,5.67,2.34,0
24,15768201517000,4.48,2.3,0.38,0
24,15768281503000,11.41,8.92,-1.92,0
24,15768321512000,4.52,6.85,-4.44,0
24,15768361673000,1.65,4.18,-2.96,0
24,15768401468000,7.44,4.99,-1.5,0
24,15768481485000,10.34,-0.27,-1.33,0
24,15768521524000,6.7,-7.35,2.41,0
24,15768561472000,1.12,-10.34,2.64,0
24,15768601633000,-2.26,-1.57,1.12,0
24,15768681467000,16.09,14.9,-3.57,0
24,15768721506000,16.82,17.27,1.23,0
24,15768761514000,9.85,8.28,-0.93,0
24,15768801553000,5.37,4.63,0.08,0
24,15768881479000,9.81,6.32,-2.03,0
24,15768921518000,12.03,6.85,-6.47,0
24,15768961496000,15.17,7.82,-5.41,0
24,15769001505000,4.48,0.53,-0.65,0
24,15769081522000,10.61,3.6,-1.12,0
24,15769121591000,6.02,-1.42,2.49,0
24,15769161630000,2.56,0.08,0.11,0
24,15769201547000,-0.46,-0.95,0.99,0
24,15769281473000,-1.33,2.49,1.08,0
24,15769321542000,5.82,10.04,-1.5,0
24,15769361643000,18.5,16.97,-0.61,0
24,15769401499000,12.26,9.66,-0.61,0
24,15769441538000,10.34,6.51,-0.65,0
24,15769521494000,8.31,3.41,-0.61,0
24,15769521494000,8.31,3.41,-0.61,0
24,15769621256000,17.77,7.16,-1.84,0
24,15769661508000,7.01,-1.14,-0.69,0
24,15769701639000,9.92,-0.61,-0.19,0
24,15769741525000,4.63,0.57,-0.19,0
24,15769821481000,1.38,3.68,0.69,0
24,15769861673000,6.24,10.73,0.72,0
24,15769901499000,13.63,16.4,-0.89,0
24,15769981699000,13.25,8.28,-2.72,0
24,15770021524000,17.62,8.5,-2.15,0
24,15770061472000,5.24,1.27,0.46,0
24,15770101480000,1.88,-2.26,-1.69,0
24,15770181619000,19.38,10.04,0.91,0
24,15770221597000,13.02,2.45,1.18,0
24,15770261636000,5.52,-2.87,-1.23,0
24,15770301523000,-2.26,2.26,0.84,0
24,15770381540000,1.57,5.18,0.76,0
24,15770421488000,13.57,14.37,1.33,0
24,15770461618000,10.31,12.98,-2.64,0
24,15770501474000,12.41,9.77,-1.8,0
24,15770541696000,14.75,7.12,-2.41,0
24,15770621500000,3.79,-0.89,-1.14,0
24,15770661508000,11.65,6.7,-6.74,0
24,15770701639000,16.63,10.99,-1.31,0
24,15770781595000,7.16,-1.99,-2.72,0
24,15770821634000,3.21,1.73,-0.93,0
24,15770861673000,-0.61,2.18,1.12,0
24,15770901468000,0.34,1.61,-0.15,0
24,15770981546000,16.78,16.36,-0.42,0
24,15771021616000,4.71,7.55,-1.88,0
24,15771061472000,10.46,9.43,-3.26,0
24,15771101511000,13.38,7.46,-3.21,0
24,15771181619000,5.13,0.19,-2.18,0
24,15771222543000,8.01,2.41,-3.45,0
24,15771262216000,10.95,6.47,-4.21,0
24,15771301523000,12.41,8.92,-0.46,0
24,15771381662000,4.37,4.02,0.11,0
24,15771421518000,3.3,2.37,-0.89,0
24,15771461649000,4.1,-0.38,1.42,0
24,15771501505000,0.69,-1.53,0.34,0
24,15771581522000,-1.61,-0.69,-0.04,0
24,15771621622000,-0.04,2.22,-0.53,0
24,15771661508000,10.34,12.57,-4.14,0
24,15771701669000,17.67,14.18,-2.03,0
24,15771781473000,12.98,3.79,-4.1,0
24,15771821512000,8.62,4.6,-2.18,0
24,15771861673000,19.19,14.1,-4.29,0
24,15771901499000,8.62,6.4,0.27,0
24,15771981668000,7.08,12.22,-2.68,0
24,15772021616000,3.26,12.26,-3.76,0
24,15772061502000,1.33,6.32,-1.27,0
24,15772101511000,8.62,5.33,-0.72,0
24,15772181589000,8.27,1.27,-2.26,0
24,15772221475000,12.41,-3.98,-8.08,0
24,15772261728000,17.82,-0.38,-5.98,0
24,15772301523000,9.92,2.22,0.69,0
24,15772381510000,10.38,4.71,1.23,0
24,15772421518000,9.85,8.12,10.76,0
24,15772461496000,9.23,8.96,2.45,0
24,15772501505000,9.53,8.43,1.73,0
24,15772581491000,4.71,3.87,1.99,0
24,15772621500000,3.79,4.9,0.89,0
24,15772661661000,2.87,5.63,-2.3,0
24,15772701517000,3.45,4.52,-2.3,0
24,15772781870000,7.16,4.06,-0.38,0
24,15772821512000,14.67,4.71,-2.22,0
24,15772861582000,19.61,-1.92,-4.4,0
24,15772901590000,11.84,-1.57,0.23,0
24,15772981485000,7.04,7.08,-0.15,0
24,15773021494000,4.56,5.09,0.46,0
24,15773061502000,8.05,8.85,-0.8,0
24,15773181284000,0.99,8.85,-0.8,0
24,15773181284000,0.99,8.85,-0.8,0
24,15773221811000,6.4,7.27,-1.57,0
24,15773261514000,9.34,5.83,-0.69,0
24,15773301492000,11.18,5.01,-0.89,0
24,15773341532000,10.95,2.53,-2.07,0
24,15773421518000,7.5,-0.15,1.42,0
24,15773461618000,8.85,1.57,0.8,0
24,15773501505000,12.11,1.5,1.46,0
24,15773581613000,-3.76,0.5,7.44,0
24,15773621622000,-0.57,4.48,1.84,0
24,15773661630000,4.02,6.32,0.0,0
24,15773701486000,15.17,15.36,-1.12,0
24,15773741556000,10.31,10.61,-1.99,0
24,15773821634000,17.97,8.58,0.65,0
24,15773861673000,4.14,1.08,2.22,0
24,15773901499000,3.02,1.61,-3.99,0
24,15773941660000,12.34,9.11,-5.9,0
24,15774021494000,9.43,6.82,0.5,0
24,15774021494000,9.43,6.82,0.5,0
24,15774123453000,2.45,-3.06,1.46,0
24,15774161630000,-0.69,-2.07,-0.57,0
24,15774201517000,-1.92,-1.27,-0.69,0
24,15774281626000,13.1,15.47,3.53,0
24,15774321512000,15.7,14.71,-2.56,0
24,15774361673000,16.55,9.11,-2.98,0
24,15774401560000,10.46,3.06,-1.33,0
24,15774441721000,1.18,-0.53,1.38,0
24,15774521494000,18.73,10.23,-4.48,0
24,15774561472000,13.53,6.24,-0.57,0
24,15774601511000,9.04,-3.17,-3.95,0
24,15774681467000,-2.72,0.57,4.37,0
24,15774721506000,-0.08,10.8,12.98,0
24,15774761636000,11.95,11.88,-2.07,0
24,15774801523000,14.29,12.87,-5.94,0
24,15774881479000,6.85,3.11,-1.92,0
24,15774921640000,4.71,-1.38,-2.49,0
24,15774961618000,16.02,9.23,-5.86,0
24,15775001505000,19.53,4.37,-3.17,0
24,15775081522000,5.71,0.53,-0.15,0
24,15775121622000,-2.3,0.84,1.42,0
24,15775161600000,-5.67,2.18,5.09,0
24,15775201547000,-1.65,9.7,6.24,0
24,15775281595000,14.86,10.53,-1.8,0
24,15775321512000,7.44,-3.57,3.6,0
24,15775361490000,4.18,1.04,-0.31,0
24,15775401651000,16.47,13.59,-8.39,0
24,15775481607000,5.71,-2.87,-0.57,0
24,15775521494000,-6.24,3.64,5.86,0
24,15775561624000,2.87,2.91,11.8,0
24,15775601511000,13.44,14.18,-5.71,0
24,15775681619000,1.88,4.18,-3.26,0
24,15775721506000,5.71,4.48,-3.64,0
24,15775761636000,3.15,2.53,-0.23,0
24,15775801584000,12.56,10.38,-5.63,0
24,15775881479000,12.95,0.0,-4.44,0
24,15775921488000,9.0,-4.79,-0.11,0
24,15775961466000,2.18,-0.3,-0.42,0
24,15776001535000,-0.23,-1.84,1.04,0
24,15776081552000,6.32,5.67,2.64,0
24,15776122782000,16.74,13.48,-5.41,0
24,15776162210000,12.83,9.11,-5.56,0
24,15776201547000,12.6,7.78,-4.4,0
24,15776281473000,7.12,0.46,-3.06,0
24,15776321634000,2.22,0.53,0.61,0
24,15776361582000,9.58,7.78,-0.42,0
24,15776401468000,19.27,15.09,-1.65,0
24,15776441690000,6.4,11.07,-1.04,0
24,15776521433000,2.68,10.53,-0.04,0
24,15776561502000,3.72,3.17,-0.95,0
24,15776601541000,7.4,2.03,-3.45,0
24,15776641672000,10.72,1.12,-4.71,0
24,15776721475000,13.87,-0.04,-2.26,0
24,15776761575000,16.55,-1.18,0.57,0
24,15776801523000,8.24,0.93,2.53,0
24,15776881601000,15.09,14.98,8.35,0
24,15776921579000,6.66,6.32,3.87,0
24,15776961496000,7.44,7.82,2.26,0
24,15777001657000,7.74,10.15,0.19,0
24,15777081552000,0.42,2.45,-1.12,0
24,15777121469000,0.0,2.37,0.89,0
24,15777161508000,2.83,4.18,1.33,0
24,15777201547000,17.43,9.92,-8.62,0
24,15777281626000,-0.61,2.11,1.95,0
24,15777321512000,1.8,1.46,-2.41,0
24,15777361582000,8.12,6.55,-5.43,0
24,15777401621000,6.93,9.19,-3.17,0
24,15777481516000,6.7,6.02,-1.76,0
24,15777521524000,8.69,5.33,-1.12,0
24,15777561685000,8.08,3.72,-0.76,0
24,15777601511000,7.65,2.87,-0.93,0
24,15777681589000,10.11,1.46,2.3,0
24,15777721506000,9.53,2.41,-1.23,0
24,15777761636000,10.61,-0.42,1.23,0
24,15777801492000,6.43,2.49,1.42,0
24,15777881601000,17.46,18.28,1.5,0
24,15777921610000,4.4,9.51,4.86,0
24,15777961466000,6.13,0.65,1.92,0
24,15778001535000,3.06,4.29,-1.23,0
24,15778081552000,-2.37,4.18,-1.18,0
24,15778121622000,0.84,3.3,-1.12,0
24,15778161508000,7.5,1.73,2.96,0
24,15778201517000,13.95,1.76,-3.45,0
24,15778281595000,7.04,4.9,0.76,0
24,15778321512000,11.5,8.16,0.57,0
24,15778364206000,10.31,8.16,-2.07,0
24,15778401407000,11.92,9.28,-5.22,0
24,15778481485000,7.82,3.95,-1.99,0
24,15778521524000,9.11,4.48,-0.53,0
24,15778561502000,9.0,2.56,1.76,0
24,15778601480000,8.81,-0.19,3.41,0
24,15778681497000,5.37,-5.63,0.0,0
24,15778721475000,2.26,0.31,0.27,0
24,15778761514000,2.26,5.09,0.19,0
24,15778801706000,3.72,9.3,-2.56,0
24,15778881479000,4.99,11.11,-3.26,0
24,15778921518000,13.53,7.21,6.59,0
24,15778961496000,18.73,8.28,-3.34,0
24,15779001688000,13.91,5.79,2.03,0
24,15779041635000,11.73,5.18,-2.11,0
24,15779131296000,13.33,4.75,-2.03,0
24,15779171457000,8.58,3.45,-1.12,0
24,15779211435000,5.2,0.8,2.37,0
24,15779251505000,-0.11,-0.11,1.69,0
24,15779331522000,-2.6,0.04,-0.08,0
24,15779371530000,-2.98,2.72,-1.18,0
24,15779411478000,-1.54,5.24,-1.65,0
24,15779451700000,11.84,11.73,0.04,0
24,15779531473000,8.77,5.28,5.48,0
24,15779581583000,3.83,3.06,-0.11,0
24,15779621622000,15.94,5.9,-2.98,0
24,15779661539000,16.17,3.45,-3.11,0
24,15779701517000,13.76,2.72,-1.27,0
24,15779781595000,5.6,-0.61,0.61,0
24,15779821512000,-0.95,-2.72,7.25,0
24,15779862131000,-1.08,0.72,4.25,0
24,15779901621000,0.99,1.95,-1.99,0
24,15779981485000,0.76,4.52,-3.99,0
24,15780021494000,12.68,10.34,-3.64,0
24,15780141306000,2.72,4.99,10.15,0
24,15780141306000,2.72,4.99,10.15,0
24,15780181833000,8.92,7.21,-1.18,0
24,15780221475000,13.72,10.53,-7.25,0
24,15780261484000,14.98,9.58,-5.48,0
24,15780301645000,13.17,4.82,-1.61,0
24,15780341532000,10.53,2.34,0.53,0
24,15780421610000,6.32,-2.79,-0.93,0
24,15780461496000,-0.46,-1.53,1.12,0
24,15780501474000,-4.14,-1.99,2.79,0
24,15780581522000,-2.03,1.95,2.07,0
24,15780621622000,0.08,2.79,-0.42,0
24,15780661630000,13.44,5.79,-1.33,0
24,15780701517000,19.61,8.92,-0.53,0
24,15780781626000,-0.11,2.72,2.07,0
24,15780821512000,7.46,2.37,-2.64,0
24,15780861521000,19.38,5.41,-7.59,0
24,15780901468000,14.9,1.65,-0.93,0
24,15780981607000,9.34,-4.25,0.11,0
24,15781021494000,2.37,-5.05,-0.19,0
24,15781061502000,-1.95,-1.5,0.99,0
24,15781101633000,-5.86,1.12,5.13,0
24,15781181467000,0.04,3.79,-1.27,0
24,15781221597000,15.13,5.98,-3.17,0
24,15781261484000,19.53,5.24,-0.04,0
24,15781301492000,16.78,2.34,-1.14,0
24,15781381571000,12.03,2.41,-2.64,0
24,15781421518000,15.51,2.96,-5.83,0
24,15781461527000,6.74,3.26,-5.13,0
24,15781501657000,11.69,6.55,-2.87,0
24,15781581552000,5.48,0.65,-0.5,0
24,15781621500000,7.4,-0.69,-0.69,0
24,15781661508000,8.66,-1.31,-0.46,0
24,15781701517000,3.57,-2.03,0.15,0
24,15781781595000,10.88,-9.11,-0.27,0
24,15781821604000,5.24,-4.79,0.95,0
24,15781861490000,14.6,4.37,1.04,0
24,15781901621000,19.61,7.01,0.61,0
24,15781981607000,8.35,6.85,4.82,0
24,15782021494000,4.82,3.53,2.45,0
24,15782061502000,2.3,3.41,-0.99,0
24,15782101480000,-1.88,2.68,-1.14,0
24,15782181497000,8.88,-0.08,-2.91,0
24,15782221536000,19.27,-3.79,-5.13,0
24,15782262003000,18.39,0.46,-0.42,0
24,15782301737000,14.79,6.7,1.53,0
24,15782342111000,4.48,5.13,-0.93,0
24,15782421610000,10.15,10.34,-2.3,0
24,15782461557000,9.66,10.73,-2.72,0
24,15782501474000,6.28,5.79,-0.95,0
24,15782581491000,10.23,1.23,-4.29,0
24,15782621622000,11.22,-1.04,-5.9,0
24,15782661508000,7.65,-3.3,-2.68,0
24,15782701517000,7.55,-3.17,-0.95,0
24,15782781534000,13.06,-0.46,1.84,0
24,15782821481000,9.11,1.04,1.31,0
24,15782861582000,8.35,1.69,1.08,0
24,15782901499000,7.35,1.99,1.69,0
24,15782981607000,15.17,5.56,1.57,0
24,15783021494000,12.72,6.44,4.06,0
24,15783061624000,7.97,2.22,6.85,0
24,15783101480000,9.77,2.68,1.14,0
24,15783181619000,5.05,2.3,-4.06,0
24,15783221475000,4.79,1.54,-4.1,0
24,15783261484000,5.86,2.41,-1.46,0
24,15783301492000,7.21,1.88,2.41,0
24,15783381479000,17.01,-2.49,0.72,0
24,15783421671000,11.75,-0.95,0.69,0
24,15783461496000,7.25,3.41,0.42,0
24,15783501505000,7.5,1.99,-0.11,0
24,15783581522000,8.96,5.24,-3.11,0
24,15783621500000,5.24,7.31,-6.44,0
24,15783661508000,8.08,5.05,-2.68,0
24,15783701517000,10.76,2.56,-0.34,0
24,15783781473000,8.27,0.8,0.19,0
24,15783821634000,8.43,-0.04,-0.42,0
24,15783861521000,8.62,-0.27,-0.57,0
24,15783901590000,12.15,-0.04,0.84,0
24,15783981485000,10.34,-2.79,-0.11,0
24,15784021494000,7.04,-5.48,-0.11,0
24,15784061502000,2.11,-1.08,0.53,0
24,15784101480000,1.65,-0.04,-0.23,0
24,15784181619000,9.58,5.24,0.89,0
24,15784221628000,19.34,11.22,-2.3,0
24,15784261484000,12.26,10.0,-2.6,0
24,15784301645000,13.82,3.15,0.04,0
24,15784381662000,14.75,-3.76,2.75,0
24,15784421518000,3.53,-3.11,-0.19,0
24,15784461679000,0.53,0.61,-4.14,0
24,15784501657000,9.66,12.22,-5.41,0
24,15784581522000,15.36,4.25,-2.18,0
24,15784621469000,9.81,2.11,-0.84,0
24,15784661630000,6.55,-3.45,4.71,0
24,15784701486000,-4.48,0.89,5.48,0
24,15784781473000,-1.54,2.26,-1.33,0
24,15784821726000,-0.65,4.44,-1.76,0
24,15784861521000,4.1,5.22,-1.95,0
24,15784901621000,15.62,7.08,-1.33,0
24,15784981485000,6.4,1.92,10.11,0
24,15785021616000,13.53,8.62,-14.41,0
24,15785061502000,19.23,7.55,-5.71,0
24,15785101602000,12.22,-1.69,-2.83,0
24,15785141550000,11.95,-7.12,0.46,0
24,15785191538000,2.3,-2.26,-0.38,0
24,15785234110000,-2.45,0.15,1.8,0
24,15785301431000,-3.49,0.72,3.98,0
24,15785381510000,4.56,1.08,-0.23,0
24,15785421579000,17.5,6.78,-3.49,0
24,15785461527000,18.92,9.15,0.08,0
24,15785501505000,6.85,2.87,-0.72,0
24,15785581491000,8.73,2.96,-0.27,0
24,15785621500000,19.23,5.22,-3.99,0
24,15785661478000,15.01,0.89,-4.71,0
24,15785701517000,7.31,-3.53,-4.1,0
24,15785781503000,8.12,-2.49,2.64,0
24,15785821634000,3.91,-1.95,0.0,0
24,15785861490000,-1.88,-3.06,5.41,0
24,15785901468000,-1.12,-0.61,-0.23,0
24,15785981485000,-0.8,2.79,-0.99,0
24,15786021494000,6.93,6.24,-3.15,0
24,15786061533000,19.57,7.12,0.46,0
24,15786101480000,16.74,2.18,1.99,0
24,15786181467000,9.15,3.79,1.84,0
24,15786221475000,10.76,3.79,-2.37,0
24,15786261514000,12.64,5.22,-9.0,0
24,15786301523000,17.58,6.78,-4.56,0
24,15786381540000,7.44,-0.84,-3.26,0
24,15786421488000,14.21,-0.95,-1.46,0
24,15786461496000,12.07,-6.82,1.08,0
24,15786501505000,2.98,-5.43,1.38,0
24,15786541544000,-3.41,-0.95,3.91,0
24,15786621591000,-0.46,3.49,2.68,0
24,15786661508000,1.08,4.9,0.11,0
24,15786701517000,12.18,7.16,-2.15,0
24,15786781595000,17.69,1.5,1.38,0
24,15786821481000,6.89,0.8,1.8,0
24,15786861643000,2.75,0.53,0.38,0
24,15786901468000,6.93,1.31,-0.65,0
24,15786981485000,12.76,1.99,-2.56,0
24,15787141367000,-2.91,-0.19,4.33,0
24,15787141367000,-2.91,-0.19,4.33,0
24,15787141367000,-2.91,-0.19,4.33,0
24,15787141367000,-3.72,2.6,7.04,0
24,15787221475000,0.76,1.38,-0.15,0
24,15787261606000,0.11,1.33,-0.76,0
24,15787301492000,9.28,3.68,-3.41,0
24,15787341654000,19.61,7.21,-1.12,0
24,15787381540000,17.73,4.82,-2.37,0
24,15787471628000,6.28,1.14,-0.04,0
24,15787511636000,15.94,3.3,-2.45,0
24,15787551523000,13.06,2.45,-0.89,0
24,15787631479000,7.86,7.82,-3.53,0
24,15787671427000,7.46,10.34,-2.91,0
24,15787711466000,6.47,4.79,2.45,0
24,15787751474000,9.08,2.18,-3.26,0
24,15787831674000,8.66,-2.72,-4.18,0
24,15787871897000,8.66,-2.34,-2.34,0
24,15787911508000,9.85,-1.92,-1.27,0
24,15787951486000,12.79,-2.07,-1.73,0
24,15788031534000,9.15,0.5,4.86,0
24,15788071512000,6.32,3.83,7.01,0
24,15788111521000,14.75,5.86,2.68,0
24,15788151621000,17.97,9.53,2.41,0
24,15788191507000,8.47,2.45,2.37,0
24,15788271494000,8.69,3.38,1.12,0
24,15788311472000,6.02,1.88,-2.07,0
24,15788351633000,3.98,-0.99,-3.6,0
24,15788431467000,6.89,1.92,-0.23,0
24,15788471506000,8.08,2.56,2.22,0
24,15788511636000,12.22,-2.45,0.76,0
24,15788551523000,17.88,-4.21,-0.93,0
24,15788591654000,10.92,-4.82,-0.11,0
24,15788671518000,14.67,1.95,0.46,0
24,15788711496000,11.54,2.76,-0.27,0
24,15788751474000,4.02,2.34,0.08,0
24,15788791666000,5.01,6.66,-1.18,0
24,15788871439000,7.86,9.81,-3.11,0
24,15788911630000,7.31,3.21,-1.04,0
24,15788951486000,9.53,0.93,-1.76,0
24,15789031595000,9.23,-1.88,-7.35,0
24,15789071512000,9.7,-2.83,-4.29,0
24,15789111521000,7.55,-3.15,-1.65,0
24,15789151468000,7.93,-4.63,-1.5,0
24,15789231638000,15.6,-2.49,1.31,0
24,15789271646000,6.93,-5.71,0.89,0
24,15789311533000,1.04,-5.18,6.13,0
24,15789351633000,0.57,-0.53,0.72,0
24,15789391580000,2.14,1.38,-1.42,0
24,15789471658000,17.46,10.53,-4.21,0
24,15789511514000,14.86,9.85,-1.99,0
24,15789551492000,5.75,1.95,-0.76,0
24,15789631632000,14.02,-0.38,0.23,0
24,15789671518000,7.44,2.64,2.98,0
24,15789711527000,7.4,0.99,-8.92,0
24,15789751535000,14.79,4.82,-12.53,0
24,15789831522000,4.67,2.53,-2.11,0
24,15789871469000,12.18,5.37,1.53,0
24,15789911600000,11.69,1.08,-0.04,0
24,15789951486000,7.31,-0.89,-0.95,0
24,15789991434000,2.6,-6.89,0.04,0
24,15790071481000,-0.19,-0.19,-0.04,0
24,15790111521000,1.12,2.6,-1.61,0
24,15790151621000,6.36,6.51,-1.5,0
24,15790231607000,14.21,8.96,3.49,0
24,15790271524000,19.04,3.87,0.57,0
24,15790311472000,15.75,0.27,-0.72,0
24,15790351297000,3.79,-0.11,0.76,0
24,15790391428000,4.14,-0.53,-2.11,0
24,15790472025000,17.58,2.11,-0.31,0
24,15790511636000,9.92,0.57,0.61,0
24,15790551523000,8.01,-0.53,-0.19,0
24,15790631601000,-0.93,-0.11,0.72,0
24,15790671579000,-2.11,0.42,0.0,0
24,15790711466000,-1.8,2.15,-0.89,0
24,15790751474000,0.5,5.71,-0.69,0
24,15790831613000,17.92,6.74,-2.15,0
24,15790871469000,19.34,4.44,0.34,0
24,15790911508000,7.21,-3.17,8.62,0
24,15790951517000,6.78,2.87,-2.3,0
24,15791031503000,15.7,-0.8,-4.82,0
24,15791071512000,8.54,-6.47,-0.23,0
24,15791111521000,6.43,-4.82,-2.79,0
24,15791151621000,2.49,0.93,2.68,0
24,15791231516000,-4.4,-0.23,2.3,0
24,15791271646000,2.03,1.46,0.91,0
24,15791311502000,14.98,6.66,-4.52,0
24,15791351602000,19.61,9.28,1.08,0
24,15791391519000,16.93,-1.33,3.91,0
24,15791471475000,6.4,3.49,0.76,0
24,15791511636000,13.44,4.63,-4.86,0
24,15791551645000,15.94,5.48,-6.51,0
24,15791631510000,0.89,0.69,-0.57,0
24,15791671518000,6.24,4.99,-3.06,0
24,15791711496000,13.76,3.64,1.08,0
24,15791751627000,8.43,1.18,-0.53,0
24,15791791544000,8.12,-1.04,-2.45,0
24,15791871622000,3.83,-9.34,1.46,0
24,15791911478000,0.84,-2.72,1.27,0
24,15791951517000,6.66,1.23,0.42,0
24,15792031595000,14.98,10.08,-0.99,0
24,15792071634000,9.49,10.57,-2.72,0
24,15792111490000,15.47,4.94,-0.19,0
24,15792151468000,16.32,1.27,-1.23,0
24,15792191477000,13.53,0.46,0.42,0
24,15792271494000,10.0,-1.8,-6.47,0
24,15792311563000,11.73,0.46,-4.1,0
24,15792351511000,17.92,3.06,0.65,0
24,15792436838000,3.45,3.64,-3.6,0
24,15792481485000,11.03,12.98,3.53,0
24,15792521646000,6.66,4.75,-0.84,0
24,15792561472000,6.09,2.15,-0.69,0
24,15792601663000,9.38,1.27,-1.04,0
24,15792681467000,11.22,-2.18,-1.65,0
24,15792721506000,8.05,-9.38,-0.57,0
24,15792761606000,3.06,-4.37,1.76,0
24,15792801492000,-0.34,0.27,0.0,0
24,15792841532000,0.89,1.08,0.11,0
24,15792921640000,17.86,7.01,-0.76,0
24,15792961618000,11.75,2.64,-3.26,0
24,15793001627000,9.96,1.27,-2.91,0
24,15793081522000,13.91,-0.27,-3.6,0
24,15793121500000,17.54,1.88,-3.76,0
24,15793161478000,15.36,2.79,-1.57,0
24,15793201669000,10.99,2.41,-0.89,0
24,15793281473000,8.81,2.56,-1.27,0
24,15793321481000,11.07,3.99,-2.03,0
24,15793361521000,5.86,2.98,-0.95,0
24,15793401499000,4.52,2.56,-0.23,0
24,15793443857000,2.6,1.54,0.34,0
24,15793521494000,5.6,0.57,-0.89,0
24,15793561594000,13.72,0.69,-4.1,0
24,15793601480000,10.53,-1.69,-5.67,0
24,15793681619000,17.77,-2.98,-0.53,0
24,15793721597000,19.57,2.6,0.57,0
24,15793761484000,19.61,6.21,1.42,0
24,15793801523000,14.79,9.66,8.24,0
24,15793881540000,3.76,2.83,-2.45,0
24,15793921518000,-0.89,1.54,-4.21,0
24,15793961466000,-3.57,0.99,-4.67,0
24,15794081308000,19.46,-4.44,-4.21,0
24,15794081308000,19.46,-4.44,-4.21,0
24,15794121988000,15.83,-6.51,-0.95,0
24,15794161508000,10.15,-1.92,1.31,0
24,15794202158000,11.45,1.31,-0.8,0
24,15794241525000,7.82,2.6,0.23,0
24,15794321512000,7.27,5.05,-2.18,0
24,15794361643000,10.99,7.93,-4.48,0
24,15794401499000,6.89,9.66,-4.9,0
24,15794446634000,5.94,7.46,-2.22,0
24,15794521646000,9.11,2.41,-3.41,0
24,15794561502000,8.92,1.38,-5.43,0
24,15794601511000,8.81,-0.23,-8.05,0
24,15822011606000,-5.9,19.04,-11.11,4
24,15822051523000,-6.82,9.89,-2.6,4
24,15822091532000,-9.11,8.81,-1.76,4
24,15822131540000,-5.37,1.92,-1.38,4
24,15822211435000,-7.59,3.99,-3.41,4
24,15822251474000,-10.31,4.44,-5.37,4
24,15822291513000,-11.65,1.92,-4.1,4
24,15822331522000,-10.5,5.63,2.18,4
24,15822411508000,-7.93,5.41,-0.08,4
24,15822451669000,-6.63,5.56,-0.53,4
24,15822491495000,-6.82,7.25,-1.46,4
24,15822531534000,-7.4,11.73,0.99,4
24,15822611490000,-6.05,12.03,0.34,4
24,15822651529000,-1.88,9.7,-1.31,4
24,15822691507000,-5.09,10.5,-4.63,4
24,15822771524000,-19.5,12.91,-16.44,4
24,15822811502000,-11.96,1.95,-8.39,4
24,15822851511000,-9.58,6.44,5.94,4
24,15822891641000,-12.37,10.31,2.49,4
24,15822931650000,-5.9,2.15,-4.67,4
24,15823011453000,-4.29,1.61,1.33,4
24,15823051492000,0.19,7.44,-1.61,4
24,15823091501000,-0.93,4.4,-3.68,4
24,15823131540000,-3.41,4.56,-2.96,4
24,15823211435000,-13.67,16.93,-4.9,4
24,15823251505000,-11.14,14.63,-2.64,4
24,15823291635000,-1.12,2.53,-0.34,4
24,15823331522000,-5.48,8.96,-3.38,4
24,15823411478000,-8.89,5.94,-2.72,4
24,15823451517000,-5.86,3.87,-1.95,4
24,15823491495000,-7.01,6.13,-4.29,4
24,15823531473000,-6.78,5.52,-8.73,4
24,15823591867000,0.95,7.21,2.83,4
24,15823631693000,1.95,11.3,0.42,4
24,15823711466000,-15.6,5.01,0.72,4
24,15823751505000,-19.57,8.5,-0.38,4
24,15823791635000,-19.57,13.87,0.27,4
24,15823831583000,-12.91,12.83,-6.7,4
24,15823911508000,0.38,6.4,-8.39,4
24,15823951700000,-0.93,9.28,-3.64,4
24,15823991495000,-8.28,7.82,-4.1,4
24,15824031595000,-14.86,5.67,-3.3,4
24,15824111490000,-10.88,5.43,-5.01,4
24,15824151468000,-7.06,6.97,-0.31,4
24,15824191477000,-2.26,9.66,-1.69,4
24,15824231546000,-4.9,3.17,-2.11,4
24,15824311472000,-4.52,0.46,-1.18,4
24,15824431314000,2.41,2.26,-2.76,4
24,15824431314000,2.41,2.26,-2.76,4
24,15824431314000,2.41,4.44,-3.34,4
24,15824511606000,-3.17,15.55,-9.11,4
24,15824551462000,-15.24,18.92,-5.67,4
24,15824591501000,-1.95,3.15,0.38,4
24,15824631540000,-3.26,1.95,-1.65,4
24,15824711466000,-11.11,8.31,-3.15,4
24,15824751535000,-10.15,8.28,-2.34,4
24,15824791513000,-6.17,5.75,-2.11,4
24,15824831674000,-3.91,5.37,-5.09,4
24,15824911478000,-1.27,5.56,-7.27,4
24,15824951639000,-2.91,5.43,3.02,4
24,15824991464000,-13.48,7.01,1.99,4
24,15825031503000,-19.57,12.41,-5.98,4
24,15825111643000,-8.58,16.25,-4.71,4
24,15825151407000,-6.05,7.44,-4.52,4
24,15825191446000,-2.26,8.28,-6.32,4
24,15825231516000,0.34,6.74,-3.79,4
24,15825311502000,-14.21,9.77,-4.9,4
24,15825351633000,-17.67,9.72,-5.37,4
24,15825391519000,-15.83,5.75,-6.13,4
24,15825431497000,-11.11,1.08,-2.83,4
24,15825511636000,-0.89,6.28,0.76,4
24,15825551492000,-3.53,6.44,0.89,4
24,15825591470000,-6.59,0.93,0.11,4
24,15825631510000,-2.22,-2.41,-3.26,4
24,15825712259000,-0.27,4.21,-4.29,4
24,15825751505000,-0.8,12.57,-5.71,4
24,15825791635000,-2.03,19.46,-9.23,4
24,15825831522000,-7.06,-0.61,0.08,4
24,15825911600000,-0.42,-0.95,-2.07,4
24,15825951517000,-7.63,5.22,-3.41,4
24,15825991647000,-12.53,9.04,-2.6,4
24,15826031503000,-7.46,6.28,-2.76,4
24,15826111643000,-6.36,5.67,-4.21,4
24,15826151468000,-3.72,3.64,-3.99,4
24,15826191599000,-2.07,2.53,-5.18,4
24,15826231516000,-0.95,3.3,2.96,4
24,15826311502000,-10.34,9.04,-4.25,4
24,15826351480000,-19.57,4.52,-1.5,4
24,15826391519000,-19.57,12.45,-0.11,4
24,15826431650000,-13.72,12.95,-4.06,4
24,15826511484000,-3.02,8.5,-5.37,4
24,15826551615000,-1.18,8.16,-5.83,4
24,15826591470000,0.19,8.43,-5.05,4
24,15826631662000,-2.76,4.86,-2.22,4
24,15826711588000,-15.28,7.67,-3.99,4
24,15826751627000,-11.8,4.06,-4.4,4
24,15826791483000,-10.19,1.31,-3.79,4
24,15826831644000,-7.89,1.8,-3.15,4
24,15826911508000,-3.91,3.72,0.08,4
24,15826951608000,-4.79,4.99,2.03,4
24,15826991464000,-5.71,6.13,2.22,4
24,15827031503000,-5.83,4.33,-2.22,4
24,15827111643000,-6.78,13.02,-10.92,4
24,15827151499000,-14.44,17.47,-6.05,4
24,15827191599000,-4.99,5.28,-0.42,4
24,15827271890000,-9.66,7.31,-1.73,4
24,15827311624000,-8.05,4.99,-2.18,4
24,15827351511000,-6.66,3.79,-2.56,4
24,15827391519000,-6.51,3.83,-2.37,4
24,15827431650000,-6.97,4.44,-2.87,4
24,15827511514000,-8.12,4.14,-2.76,4
24,15827551645000,-9.23,2.87,0.42,4
24,15827591501000,-7.82,6.36,3.57,4
24,15827672586000,-8.85,4.94,-3.76,4
24,15827711435000,-9.85,4.29,-2.45,4
24,15827751505000,-9.34,6.24,-4.33,4
24,15827791483000,-6.97,6.97,-2.45,4
24,15827831552000,-6.05,8.05,-3.26,4
24,15827911600000,-8.77,9.11,-6.51,4
24,15827951486000,-17.67,13.57,-12.34,4
24,15827991495000,-18.58,7.55,-17.01,4
24,15828031503000,-9.38,-0.38,-6.59,4
24,15828111490000,-15.09,2.45,-2.79,4
24,15828151468000,-14.21,2.76,-2.91,4
24,15828191477000,-11.92,2.72,-2.45,4
24,15828231546000,-9.53,12.49,-1.88,4
24,15828311502000,-5.13,11.99,0.27,4
24,15828351511000,-5.94,5.05,-1.18,4
24,15828391519000,-3.87,4.79,-4.44,4
24,15828431650000,-2.41,5.24,-3.64,4
24,15828511514000,-0.5,5.41,-2.83,4
24,15828551523000,-0.04,4.9,-1.73,4
24,15828591501000,0.11,4.71,-1.12,4
24,15828631510000,-2.49,6.89,1.57,4
24,15828711557000,-7.78,10.12,-12.03,4
24,15828751627000,-18.85,19.15,-3.38,4
24,15828791513000,-6.44,4.25,-1.14,4
24,15828831552000,-0.89,1.27,-4.82,4
24,15828911508000,-11.37,4.06,-1.69,4
24,15828951517000,-5.83,1.88,-0.23,4
24,15828991464000,-6.89,5.01,-1.69,4
24,15829031503000,-6.74,6.24,-10.99,4
24,15829111643000,2.91,15.17,4.52,4
24,15829151651000,-6.13,-0.11,-1.38,4
24,15829191477000,-18.43,-7.74,-4.33,4
24,15829231516000,-19.57,9.28,-3.83,4
24,15829311624000,-14.44,14.75,-5.75,4
24,15829351602000,-2.87,11.75,-5.94,4
24,15829391489000,-3.49,6.36,-10.76,4
24,15829471536000,-5.83,5.71,-3.68,4
24,15829512064000,-15.36,6.59,-4.06,4
24,15829551584000,-17.24,6.97,-5.6,4
24,15829591623000,-13.48,3.15,-6.47,4
24,15829631662000,-6.44,1.92,-4.9,4
24,15829711435000,-4.67,5.24,0.99,4
24,15829751627000,-7.06,0.93,0.95,4
24,15829791635000,-5.79,-1.84,-2.87,4
24,15829831583000,-3.72,1.61,-2.41,4
24,15829911630000,-0.08,5.83,-7.7,4
24,15829957895000,-16.63,19.57,-13.57,4
24,15829993295000,-6.85,7.01,1.46,4
24,15830031503000,-0.93,3.64,-1.8,4
24,15830111490000,-14.33,8.2,-1.95,4
24,15830151499000,-9.15,4.25,-1.23,4
24,15830191446000,-5.83,2.91,-1.61,4
24,15830231668000,-4.6,1.8,-10.76,4
24,15830311624000,-3.11,2.11,-12.49,4
24,15830351511000,-2.18,4.06,2.22,4
24,15830391519000,-16.4,5.56,-2.68,4
24,15830431650000,-19.57,8.5,1.57,4
24,15830511636000,-12.6,7.5,-2.26,4
24,15830551645000,-4.18,8.24,-9.23,4
24,15830591501000,-4.06,13.8,-9.23,4
24,15830631540000,-1.46,3.57,-2.72,4
24,15830711435000,-19.04,8.08,-4.48,4
24,15830751627000,-17.82,5.83,-5.56,4
24,15830791635000,-11.84,2.11,-6.36,4
24,15830831674000,-4.99,-0.08,2.53,4
24,15830911478000,-8.47,1.5,1.5,4
24,15830951639000,-6.24,1.76,2.91,4
24,15830991495000,-0.76,2.53,-1.31,4
24,15831071634000,-3.34,4.18,-7.46,4
24,15831111704000,-16.86,19.0,-14.82,4
24,15831151499000,-8.24,6.13,3.45,4
24,15831191599000,-1.23,-0.46,-1.88,4
24,15831231546000,-6.51,6.74,-2.68,4
24,15831311624000,-8.35,3.02,-0.99,4
24,15831351541000,-5.94,3.02,-1.38,4
24,15831391641000,-6.32,3.17,-5.24,4
24,15831431497000,-4.79,0.61,-8.31,4
24,15831591379000,-19.46,0.8,-1.31,4
24,15831591379000,-19.46,0.8,-1.31,4
24,15831591379000,-19.46,0.8,-1.31,4
24,15831631601000,-19.57,2.41,-0.89,4
24,15831711557000,-11.03,9.11,-6.09,4
24,15831751474000,-2.72,8.43,-14.94,4
24,15831791483000,-4.44,9.58,-6.09,4
24,15831831522000,-5.13,1.5,-3.64,4
24,15831911630000,-17.05,1.8,-3.91,4
24,15831951517000,-19.31,-0.42,-4.33,4
24,15831991434000,-14.6,-3.34,-4.18,4
24,15832071512000,-6.36,-0.61,0.46,4
24,15832111490000,-5.01,3.87,1.53,4
24,15832151621000,-3.21,4.94,-1.65,4
24,15832191446000,-3.79,3.64,1.42,4
24,15832231699000,-6.85,2.07,-0.53,4
24,15832311624000,-8.08,4.29,-4.99,4
24,15832351633000,-16.82,15.83,-8.08,4
24,15832391641000,-14.29,6.44,-0.23,4
24,15832431528000,-3.79,0.69,-1.14,4
24,15832511636000,-12.72,4.99,-2.26,4
24,15832551492000,-8.47,3.38,-2.6,4
24,15832591470000,-8.12,3.76,-2.87,4
24,15832631510000,-6.59,3.41,-2.98,4
24,15832711435000,-6.7,1.42,-1.27,4
24,15832751505000,-9.85,-3.49,9.96,4
24,15832791635000,-11.35,2.07,-1.08,4
24,15832831522000,-9.92,1.38,-0.5,4
24,15832911508000,-10.95,1.54,-2.79,4
24,15832951486000,-10.92,4.02,-3.79,4
24,15832991434000,-9.47,6.97,-1.08,4
24,15833031503000,-8.28,8.47,-4.21,4
24,15833111521000,-12.34,7.59,-5.94,4
24,15833151499000,-19.19,6.32,-8.58,4
24,15833191599000,-18.39,1.8,-13.95,4
24,15833231516000,-14.63,-4.63,-14.29,4
24,15833311624000,-17.05,-3.06,-6.93,4
24,15833351633000,-18.47,0.95,-2.3,4
24,15833391550000,-16.47,2.3,2.75,4
24,15833431619000,-11.3,3.21,-0.23,4
24,15833511636000,-2.87,0.99,-3.38,4
24,15833551492000,0.27,2.26,-4.4,4
24,15833591501000,-2.49,10.34,-6.36,4
24,15833631510000,-4.6,-0.8,0.61,4
24,15833711466000,-5.28,2.68,2.79,4
24,15833756204000,-8.12,10.08,-10.15,4
24,15833794534000,-18.73,16.89,0.23,4
24,15833831888000,-6.02,-0.99,-0.42,4
24,15833911478000,-16.47,3.34,-1.8,4
24,15833951517000,-10.69,1.04,-1.76,4
24,15833991586000,-5.9,0.34,-1.88,4
24,15834031503000,-6.66,2.6,-5.6,4
24,15834111521000,-7.12,3.76,-12.6,4
24,15834151499000,2.49,9.66,-0.27,4
24,15834191477000,-7.06,5.71,-1.84,4
24,15834231516000,-19.11,-1.76,2.83,4
24,15834311594000,-19.57,9.72,-1.31,4
24,15834351633000,-14.44,12.98,-7.21,4
24,15834391489000,-4.75,8.24,-14.02,4
24,15834431528000,-5.05,6.32,-5.9,4
24,15834511636000,-7.93,4.18,-2.98,4
24,15834551615000,-17.58,3.15,-4.44,4
24,15834591562000,-19.19,2.11,-5.41,4
24,15834631662000,-15.79,-2.3,-4.48,4
24,15834711679000,-5.37,2.22,-2.41,4
24,15834751535000,-5.41,8.35,1.38,4
24,15834791605000,-4.63,3.21,2.64,4
24,15834871500000,-3.68,-0.72,-1.12,4
24,15834911508000,-2.11,0.69,-3.68,4
24,15834951639000,-2.83,9.7,-7.82,4
24,15834991495000,-14.41,19.53,-11.37,4
24,15835071512000,-0.27,-2.26,0.08,4
24,15835111643000,-1.88,-1.99,-1.18,4
24,15835151621000,-13.53,4.25,-1.5,4
24,15835191599000,-12.95,4.71,-1.57,4
24,15835231546000,-7.46,3.34,-4.18,4
24,15835311502000,-5.86,2.98,-8.39,4
24,15835351541000,-3.6,1.38,-7.7,4
24,15835391519000,-3.41,2.76,-7.97,4
24,15835431650000,-3.68,0.8,2.68,4
24,15835511514000,-19.53,-1.65,-1.5,4
24,15835551523000,-19.53,6.09,-3.6,4
24,15835591501000,-18.73,2.96,-9.96,4
24,15835631540000,-14.21,4.44,-4.67,4
24,15835713114000,-5.56,11.75,-8.01,4
24,15835751444000,-2.15,7.74,-3.68,4
24,15835791635000,-8.28,2.18,-3.57,4
24,15835831613000,-18.47,1.99,-4.94,4
24,15835911630000,-16.25,-2.11,-3.91,4
24,15835951517000,-7.97,-1.73,-0.84,4
24,15835991831000,-3.41,2.79,3.15,4
24,15836071604000,-5.43,1.08,3.45,4
24,15836111490000,-5.75,-0.5,-1.73,4
24,15836151621000,-1.84,0.11,-3.64,4
24,15836191477000,-1.61,2.49,-3.41,4
24,15836232340000,-6.13,13.4,-7.97,4
24,15836311624000,-7.25,6.05,-1.31,4
24,15836351633000,0.5,-1.76,0.23,4
24,15836391611000,-1.99,-0.15,-0.84,4
24,15836431650000,-11.99,3.99,-0.61,4
24,15836511514000,-7.93,3.06,-1.33,4
24,15836551523000,-6.17,2.87,-4.67,4
24,15836591593000,-4.9,0.8,-6.17,4
24,15836631357000,-4.29,0.08,-6.93,4
24,15836711588000,-4.94,10.92,3.79,4
24,15836753916000,-10.95,1.23,-0.61,4
24,15836791513000,-15.55,-9.62,-0.08,4
24,15836831552000,-19.57,4.82,-4.71,4
24,15836871622000,-19.57,4.82,-5.13,4
24,15836962259000,-9.58,7.25,-5.13,4
24,15837002481000,-3.6,6.82,-8.2,4
24,15837041513000,-4.33,5.05,-6.28,4
24,15837081552000,-3.95,1.99,-3.64,4
24,15837161600000,-16.93,2.49,-2.79,4
24,15837201547000,-16.4,0.53,-2.79,4
24,15837241617000,-13.21,-2.41,-4.71,4
24,15837281564000,-9.23,-1.88,-1.31,4
24,15837361521000,-4.75,1.18,1.27,4
24,15837401499000,-5.43,2.72,3.34,4
24,15837441629000,-6.02,1.61,0.42,4
24,15837481668000,-6.93,2.26,-1.31,4
24,15837563211000,-13.02,14.1,-11.5,4
24,15837611521000,-15.09,8.31,0.3,4
24,15837651499000,-2.79,1.54,-0.11,4
24,15837691629000,-6.05,2.91,-0.46,4
24,15837731516000,-12.3,3.49,-1.84,4
24,15837811624000,-8.92,2.98,-1.69,4
24,15837851511000,-6.7,2.03,-0.8,4
24,15837891519000,-7.82,2.18,-1.31,4
24,15837931497000,-9.15,-0.3,3.36,4
24,15838011575000,-10.65,0.0,3.53,4
24,15838051492000,-9.66,0.76,-1.76,4
24,15838091501000,-8.73,1.42,-2.07,4
24,15838131510000,-11.18,1.08,-3.21,4
24,15838211435000,-10.38,3.87,-2.64,4
24,15838251474000,-11.45,5.67,-2.53,4
24,15838291513000,-11.3,5.94,-3.87,4
24,15838331552000,-6.63,9.38,-3.99,4
24,15838411630000,-18.58,7.46,-6.51,4
24,15838451639000,-19.42,2.76,-11.5,4
24,15838491525000,-15.75,-2.45,-17.24,4
24,15838651376000,-12.76,6.09,2.07,4
24,15838651376000,-12.76,6.09,2.07,4
24,15838651376000,-12.76,6.09,2.07,4
24,15838691538000,-8.92,5.71,0.8,4
24,15838731577000,-8.43,-0.46,-3.15,4
24,15838811472000,-0.15,1.84,-4.6,4
24,15838851633000,-2.07,7.06,-4.02,4
24,15838891519000,-6.05,5.9,-1.5,4
24,15838931650000,-8.92,6.02,-2.56,4
24,15839011606000,-18.92,12.18,-2.53,4
24,15839051523000,-6.44,3.87,-0.04,4
24,15839091623000,-2.18,1.65,-0.19,4
24,15839131540000,-12.18,3.99,-1.65,4
24,15839211588000,-7.06,1.57,-1.38,4
24,15839251505000,-8.5,1.61,-6.55,4
24,15839291483000,-8.12,0.0,-9.85,4
24,15839331705000,-3.26,11.41,6.43,4
24,15839411630000,-14.98,-6.93,-0.65,4
24,15839451517000,-19.57,-2.07,-0.72,4
24,15839491647000,-19.57,5.05,-4.67,4
24,15839531656000,-18.28,6.89,-7.86,4
24,15839611521000,-7.01,2.3,-9.81,4
24,15839651499000,-6.59,7.5,-4.33,4
24,15839691507000,-6.63,7.4,-0.15,4
24,15839732584000,-12.91,0.08,-6.05,4
24,15839811655000,-17.08,-2.45,-7.89,4
24,15839851663000,-10.8,-1.33,-5.63,4
24,15839891641000,-7.06,4.33,-2.26,4
24,15839931406000,-6.7,2.11,1.33,4
24,15840011423000,-5.9,-3.64,-0.69,4
24,15840051523000,-2.45,-1.42,-1.84,4
24,15840091470000,-1.61,0.84,-1.5,4
24,15840171518000,-1.99,4.79,-2.68,4
24,15840214670000,-4.94,15.02,-7.55,4
24,15840251627000,-17.5,19.53,-7.21,4
24,15840291513000,-9.15,6.97,-1.95,4
24,15840331522000,1.27,-0.42,-2.45,4
24,15840411478000,-17.5,5.56,-1.31,4
24,15840451547000,-9.38,3.57,-0.5,4
24,15840491525000,-4.86,2.22,-0.72,4
24,15840531503000,-5.6,4.75,-7.97,4
24,15840611490000,-1.5,1.76,-8.85,4
24,15840651590000,-3.68,0.42,0.38,4
24,15840691477000,-12.57,0.5,-1.04,4
24,15840732584000,-19.57,4.52,-2.96,4
24,15840811594000,-19.19,4.48,-6.47,4
24,15840851511000,-13.63,4.9,-5.37,4
24,15840891489000,-6.28,4.06,-6.78,4
24,15840931528000,-3.99,9.0,-5.05,4
24,15841011453000,-12.18,2.03,-2.45,4
24,15841051615000,-19.15,3.64,-1.88,4
24,15841091470000,-18.92,2.45,-3.76,4
24,15841131632000,-12.72,-1.46,-5.18,4
24,15841211557000,-4.48,1.84,0.19,4
24,15841251505000,-6.32,3.41,2.45,4
24,15841291635000,-7.12,0.15,2.53,4
24,15841331522000,-5.67,2.11,-3.26,4
24,15841411478000,-0.04,2.76,-3.6,4
24,15841451639000,-4.79,10.88,-8.05,4
24,15841491678000,-19.0,18.5,-6.32,4
24,15841531503000,-0.53,-0.15,-0.84,4
24,15841611612000,-10.19,3.57,-1.38,4
24,15841651499000,-15.36,4.4,0.23,4
24,15841691446000,-8.47,2.22,0.57,4
24,15841731668000,-6.85,2.15,-3.53,4
24,15841811502000,-6.55,1.5,-7.97,4
24,15841851480000,-5.13,0.57,-12.18,4
24,15841891519000,0.08,5.05,-1.95,4
24,15841931528000,-6.63,8.73,4.29,4
24,15841981851000,-19.57,1.18,-2.34,4
24,15842061899000,-19.53,4.25,-6.28,4
24,15842101480000,-19.53,0.95,-0.69,4
24,15842141519000,-11.65,6.55,-1.38,4
24,15842181650000,-2.83,9.92,-14.1,4
24,15842262033000,-6.05,-1.12,-3.38,4
24,15842301523000,-8.16,0.04,-2.18,4
24,15842341501000,-15.98,1.31,-2.15,4
24,15842381662000,-19.04,-0.84,-5.28,4
24,15842461496000,-9.7,-3.76,-2.15,4
24,15842501505000,-7.35,-0.91,-0.69,4
24,15842541666000,-6.4,6.13,0.89,4
24,15842581522000,-5.37,0.53,0.91,4
24,15842661508000,-4.63,1.08,1.27,4
24,15842701517000,-3.95,0.08,-0.76,4
24,15842741922000,-5.28,0.34,-2.15,4
24,15842791605000,-11.88,15.79,-13.59,4
24,15842831674000,-16.32,2.49,0.76,4
24,15842911478000,-5.52,1.88,-1.73,4
24,15842951486000,-11.45,2.76,-2.22,4
24,15842991983000,-11.84,2.11,-1.84,4
24,15843031503000,-8.28,2.37,-1.92,4
24,15843111490000,-9.11,2.87,-3.87,4
24,15843151499000,-9.11,1.92,-4.67,4
24,15843191446000,-7.97,1.99,-2.53,4
24,15843271494000,-11.54,-3.3,9.11,4
24,15843311502000,-9.72,-0.46,0.04,4
24,15843351633000,-8.89,2.83,-3.87,4
24,15843391519000,-8.73,1.61,-1.54,4
24,15843431497000,-11.56,1.69,-3.76,4
24,15843511484000,-11.92,5.37,-3.45,4
24,15843551523000,-10.76,5.33,-4.48,4
24,15843591470000,-5.6,5.48,-3.6,4
24,15843671549000,-19.23,8.69,-8.43,4
24,15843712106000,-19.42,2.87,-16.63,4
24,15843751627000,-16.44,-4.52,-11.99,4
24,15843796060000,-13.67,-5.24,-4.48,4
24,15843834635000,-12.87,-2.56,-0.99,4
24,15843911539000,-11.73,2.45,-1.23,4
24,15843951517000,-8.73,6.51,0.38,4
24,15843992044000,-5.22,6.4,-0.5,4
24,15844031656000,-2.68,1.99,-2.91,4
24,15844111643000,-2.91,4.06,-3.21,4
24,15844151499000,-5.71,3.6,-2.45,4
24,15844191477000,-8.5,1.42,-0.19,4
24,15844233408000,-12.3,17.01,-3.99,4
24,15844311624000,-7.06,3.02,2.22,4
24,15844351663000,-3.91,2.79,-1.65,4
24,15844391641000,-17.16,5.83,-2.87,4
24,15844431528000,-10.53,0.53,-1.08,4
24,15844511484000,-7.44,-0.69,-3.87,4
24,15844551492000,-8.2,-3.3,-8.92,4
24,15844591440000,-6.44,1.33,-4.29,4
24,15844631662000,-0.72,0.61,-0.08,4
24,15844711466000,-18.16,-3.34,4.21,4
24,15844751474000,-19.57,1.04,-2.49,4
24,15844791422000,-19.57,6.55,-4.86,4
24,15844831674000,-15.4,9.04,-6.28,4
24,15844911478000,-4.1,9.85,-13.59,4
24,15844951639000,-4.02,4.67,-5.28,4
24,15844991464000,-11.35,1.27,-2.76,4
24,15845071481000,-18.2,-0.5,-4.82,4
24,15845111643000,-11.56,-1.14,-4.48,4
24,15845151499000,-4.6,3.53,-3.21,4
24,15845191477000,-4.63,6.63,1.23,4
24,15845231546000,-4.75,-2.07,-0.95,4
24,15845311502000,-4.02,-1.57,-1.42,4
24,15845351511000,-1.92,1.14,-2.64,4
24,15845391519000,-2.18,3.95,-3.11,4
24,15845431497000,-9.0,19.46,-8.08,4
24,15845511514000,-4.06,3.38,2.03,4
24,15845551645000,1.14,-2.91,-0.84,4
24,15845711649000,-7.35,2.15,-1.12,4
24,15845711649000,-7.35,2.15,-1.12,4
24,15845711649000,-7.35,2.15,-1.12,4
24,15845751474000,-6.13,2.03,-4.75,4
24,15845791605000,-4.48,0.57,-7.78,4
24,15845831522000,-3.99,0.31,-7.27,4
24,15845911508000,-9.7,11.22,5.13,4
24,15845951517000,-16.97,-6.17,0.15,4
24,15845991434000,-19.57,1.61,-3.02,4
24,15846031534000,-19.57,4.37,-6.47,4
24,15846111521000,-5.63,7.12,-7.25,4
24,15846151468000,-3.68,7.08,-7.31,4
24,15846191446000,-4.75,3.87,-3.99,4
24,15846271677000,-15.66,2.03,-2.6,4
24,15846311502000,-16.13,1.04,-3.87,4
24,15846351602000,-14.06,-0.84,-4.75,4
24,15846391489000,-8.24,-0.46,-5.24,4
24,15846431650000,-5.13,4.99,2.37,4
