user-id,timestamp,accX,accY,accZ,ActivityEncoded
23,657142314000,4.86,12.26,4.06,1
23,657192332000,-15.28,4.21,14.67,1
23,657242290000,-4.63,4.79,8.43,1
23,657292308000,-9.19,14.21,-5.82,1
23,657342296000,0.46,19.57,-2.03,1
23,657392314000,1.38,19.38,-9.11,1
23,657442302000,-0.27,3.02,-10.31,1
23,657492290000,10.84,-17.01,-11.92,1
23,657542338000,0.34,3.91,-1.99,1
23,657592296000,-7.25,19.57,16.59,1
23,657642314000,6.21,5.56,-19.57,1
23,657692302000,6.7,-1.46,-6.82,1
23,657742290000,-8.5,19.53,-0.04,1
23,657792308000,0.93,14.75,4.02,1
23,657842296000,-9.43,3.6,6.02,1
23,657892314000,-6.89,3.15,13.82,1
23,657942302000,-6.4,7.59,3.72,1
23,657992259000,-10.34,18.89,-2.45,1
23,658042308000,13.57,19.57,-3.83,1
23,658092296000,-1.33,5.63,-14.52,1
23,658142314000,11.75,-16.66,-11.03,1
23,658142314000,11.75,-16.66,-11.03,1
23,658202312000,-5.24,5.79,-1.27,1
23,658252818000,-3.53,15.6,10.04,1
23,658302440000,6.89,10.84,-15.17,1
23,658353068000,11.54,5.75,-7.5,1
23,658402659000,-7.59,19.57,-9.85,1
23,658452373000,-4.33,17.5,5.24,1
23,658502757000,-3.21,7.82,12.03,1
23,658552379000,-13.99,0.69,10.04,1
23,658602885000,-6.85,6.82,-1.04,1
23,658652476000,4.25,19.57,1.31,1
23,658703075000,1.31,19.57,-1.61,1
23,658752696000,-3.02,15.05,-9.19,1
23,658802348000,5.28,-6.66,-7.63,1
23,658852885000,2.15,-12.15,-12.26,1
23,658902507000,3.99,9.66,6.28,1
23,658953105000,-4.94,18.54,11.8,1
23,659002696000,2.07,5.09,-17.39,1
23,659052348000,12.22,6.36,-1.23,1
23,659102794000,-8.12,19.57,-10.76,1
23,659152354000,-2.6,16.59,2.76,1
23,659202891000,-2.34,7.25,12.26,1
23,659252482000,-14.98,3.3,12.11,1
23,659303081000,-6.93,5.52,-0.46,1
23,659352702000,-2.72,18.16,-2.68,1
23,659402324000,4.63,19.57,-1.27,1
23,659452891000,-0.91,15.47,-12.6,1
23,659502452000,4.94,-8.01,-8.62,1
23,659552989000,1.8,-13.53,-13.4,1
23,659602641000,4.48,9.53,6.47,1
23,659652324000,-4.75,17.16,9.62,1
23,659702678000,2.96,0.38,-15.09,1
23,659752330000,8.92,9.11,0.42,1
23,659802836000,-11.33,19.57,-6.85,1
23,659852428000,4.44,15.05,2.53,1
23,659903026000,-10.72,4.94,13.67,1
23,659952678000,-9.77,1.61,10.15,1
23,660012279000,-2.79,7.35,0.31,1
23,660072307000,-9.92,18.92,-5.33,1
23,660122264000,7.08,19.31,-7.16,1
23,660172282000,-2.3,2.72,-9.85,1
23,660222301000,7.35,-10.53,-7.12,1
23,660272227000,-0.91,-4.59,-11.69,1
23,660322307000,0.84,17.47,16.97,1
23,660372294000,3.26,7.5,-10.42,1
23,660422282000,1.54,0.34,-8.85,1
23,660472301000,1.69,18.43,-9.58,1
23,660522288000,-4.37,19.04,7.25,1
23,660572276000,-0.34,8.35,7.55,1
23,660622264000,-16.4,3.15,16.28,1
23,660672343000,-4.99,5.63,1.27,1
23,660722331000,-1.27,18.43,-1.92,1
23,660772319000,1.57,19.57,-1.42,1
23,660822337000,0.76,17.54,-11.07,1
23,660872325000,1.61,-6.89,-9.85,1
23,660922343000,2.6,-12.95,-11.75,1
23,660972331000,4.6,5.33,-0.08,1
23,661022319000,-6.4,19.15,12.95,1
23,661072307000,3.57,-0.89,-14.56,1
23,661132365000,9.3,10.95,-1.61,1
23,661182231000,-10.76,19.57,-0.89,1
23,661232371000,4.37,10.34,2.15,1
23,661282298000,-12.26,6.7,16.13,1
23,661332347000,-9.43,1.65,5.71,1
23,661382335000,-2.98,9.19,-2.18,1
23,661432292000,-2.45,19.57,-2.56,1
23,661482310000,7.7,19.57,-5.6,1
23,661532329000,-4.02,7.59,-11.33,1
23,661582378000,6.74,-13.14,-9.04,1
23,661632335000,-1.57,-7.82,-15.55,1
23,661682323000,3.72,16.04,16.89,1
23,661732371000,-1.23,-0.46,-7.89,1
23,661782359000,-4.14,11.65,-7.25,1
23,661832347000,9.96,14.06,2.45,1
23,661882335000,-9.3,19.57,1.88,1
23,661932323000,4.06,8.73,4.18,1
23,661982341000,-16.28,4.52,15.83,1
23,662032329000,-8.88,2.6,3.76,1
23,662082378000,1.12,9.34,-0.08,1
23,662132396000,-7.01,19.57,-2.49,1
23,662182323000,8.35,19.5,-8.88,1
23,662232341000,-1.99,0.65,-11.11,1
23,662282298000,6.82,-12.95,-10.0,1
23,662332347000,-0.46,-3.87,-13.06,1
23,662382335000,-0.04,17.01,16.28,1
23,662432323000,3.06,-4.79,-10.61,1
23,662482341000,-6.28,11.26,-6.32,1
23,662532329000,6.17,15.79,-0.19,1
23,662592357000,-5.98,18.62,8.69,1
23,662642253000,-5.09,5.83,9.23,1
23,662692393000,-12.91,0.15,12.26,1
23,662742259000,-8.12,6.47,0.76,1
23,662792308000,3.3,13.21,-0.8,1
23,662842296000,0.53,19.57,-0.11,1
23,662892345000,-3.21,16.82,-13.95,1
23,662942302000,5.43,-11.22,-10.04,1
23,662942302000,5.43,-11.22,-10.04,1
23,663002666000,3.15,-11.75,-16.02,1
23,663052348000,4.52,6.7,8.24,1
23,663102885000,-4.86,19.57,14.21,1
23,663152507000,-0.91,-6.47,-19.23,1
23,663203136000,9.96,9.11,-1.23,1
23,663252727000,-9.53,19.57,-1.5,1
23,663302348000,3.76,9.92,2.03,1
23,663352855000,-16.02,5.48,16.44,1
23,663402476000,-4.48,1.04,5.71,1
23,663453105000,-6.66,10.15,-1.84,1
23,663512279000,-1.04,19.57,-0.53,1
23,663572307000,3.95,19.34,-8.43,1
23,663622325000,0.93,-2.72,-8.81,1
23,663672404000,4.33,-14.1,-9.72,1
23,663722331000,0.04,5.6,-2.6,1
23,663772288000,-3.53,19.57,14.63,1
23,663822337000,1.57,-0.84,-19.61,1
23,663872356000,10.19,7.82,-1.76,1
23,663922343000,-6.21,19.57,-10.08,1
23,663972331000,5.01,14.6,5.13,1
23,664022319000,-13.44,5.28,15.32,1
23,664072337000,-11.03,1.65,7.89,1
23,664122294000,-1.73,7.5,0.11,1
23,664172343000,-7.7,19.34,-2.68,1
23,664222331000,4.25,19.57,-3.68,1
23,664272288000,-8.96,12.6,-15.09,1
23,664322398000,10.23,-13.99,-10.72,1
23,664372325000,-0.27,-10.72,-13.29,1
23,664422343000,6.63,11.26,13.91,1
23,664472331000,-4.79,7.21,-1.84,1
23,664522319000,0.19,4.44,-5.13,1
23,664572337000,9.3,15.85,2.64,1
23,664622325000,-9.7,19.57,-4.37,1
23,664672343000,3.41,9.04,3.15,1
23,664722331000,-16.04,6.13,16.21,1
23,664772288000,-5.48,1.46,6.21,1
23,664822337000,-3.3,8.92,1.12,1
23,664872325000,-12.18,18.92,-1.92,1
23,664922343000,6.97,19.57,-6.55,1
23,664972331000,-5.67,4.29,-13.82,1
23,665022319000,10.46,-13.57,-10.53,1
23,665072337000,-1.23,-6.74,-13.33,1
23,665122325000,3.64,16.04,18.66,1
23,665182323000,4.21,-3.6,-13.21,1
23,665232280000,1.33,17.77,-12.34,1
23,665282298000,-5.33,18.66,-6.47,1
23,665332347000,6.93,16.28,9.51,1
23,665382335000,-17.82,1.61,10.08,1
23,665432323000,-3.45,2.3,12.64,1
23,665482371000,-1.23,4.71,0.04,1
23,665532329000,-9.66,18.96,-3.64,1
23,665582347000,1.54,19.57,-1.95,1
23,665632335000,-2.72,8.77,-11.69,1
23,665682323000,5.52,-6.78,-7.08,1
23,665732341000,3.64,-12.45,-11.75,1
23,665783580000,2.53,4.82,-0.42,1
23,665842265000,-4.33,19.04,15.6,1
23,665892314000,-5.94,-0.72,-18.5,1
23,665942302000,12.41,9.19,-1.99,1
23,665992320000,-11.22,19.57,-4.94,1
23,666042308000,5.52,13.1,2.45,1
23,666092326000,-11.75,6.51,13.02,1
23,666142314000,-10.42,1.57,9.53,1
23,666192302000,-3.76,7.5,-1.8,1
23,666242229000,-1.73,19.57,-2.11,1
23,666292277000,3.57,19.57,-1.57,1
23,666342296000,-3.79,13.8,-12.11,1
23,666392345000,6.55,-10.72,-8.77,1
23,666442302000,-0.11,-12.45,-14.44,1
23,666492320000,5.41,11.45,11.18,1
23,666542308000,-5.75,17.24,5.24,1
23,666592296000,0.93,-3.87,-16.66,1
23,666642345000,10.73,13.72,-2.6,1
23,666692302000,-15.17,19.57,1.46,1
23,666742290000,6.89,11.96,3.3,1
23,666792308000,-13.29,5.83,13.91,1
23,666842296000,-9.89,1.88,7.55,1
23,666892314000,-3.36,8.28,-1.14,1
23,666942302000,-2.96,19.57,-1.76,1
23,666992259000,5.24,19.57,-3.91,1
23,667042308000,-4.4,10.92,-11.73,1
23,667092296000,8.69,-12.72,-8.2,1
23,667142314000,-0.84,-9.23,-14.29,1
23,667192363000,4.21,12.83,10.92,1
23,667192363000,4.21,12.83,10.92,1
23,667251170000,-4.71,16.51,2.34,1
23,667342296000,9.19,11.96,-6.66,1
23,667392284000,-13.25,19.57,2.76,1
23,667442973000,5.37,12.98,5.22,1
23,667492381000,-13.82,5.6,16.47,1
23,667542308000,-9.19,1.42,5.33,1
23,667592296000,-2.22,7.08,0.04,1
23,667592296000,-2.22,7.08,0.04,1
23,667662303000,-8.58,19.57,-0.8,1
23,667712260000,4.25,18.31,-11.45,1
23,667762279000,-0.15,-3.45,-10.61,1
23,667812297000,5.75,-12.07,-12.6,1
23,667872325000,-0.91,-0.5,-6.74,1
23,667922313000,-4.18,19.34,13.67,1
23,667972301000,0.08,0.15,-19.15,1
23,668022288000,11.73,5.6,-0.69,1
23,668072337000,-10.92,19.57,-7.44,1
23,668122325000,3.99,15.51,1.12,1
23,668172343000,-9.34,8.08,16.09,1
23,668222331000,-9.72,1.14,8.28,1
23,668272319000,-8.66,7.35,-2.53,1
23,668322368000,0.08,19.53,-0.8,1
23,668372325000,2.49,19.57,-2.03,1
23,668422343000,-1.95,14.21,-11.3,1
23,668482341000,6.59,-11.22,-9.3,1
23,668532359000,-1.42,-8.43,-13.67,1
23,668582378000,1.08,11.5,13.02,1
23,668632335000,0.42,18.01,2.91,1
23,668682323000,4.56,-7.7,-15.6,1
23,668732341000,7.06,15.13,-7.59,1
23,668782329000,-14.63,19.57,3.83,1
23,668832347000,6.32,9.81,5.18,1
23,668882335000,-16.36,5.13,15.64,1
23,668932323000,-7.4,3.3,6.51,1
23,668982341000,-2.56,12.07,-4.59,1
23,669032329000,0.38,19.57,1.31,1
23,669082316000,3.91,19.57,-8.69,1
23,669132335000,-4.56,5.52,-10.11,1
23,669182323000,6.13,-13.76,-10.15,1
23,669232341000,-2.45,-4.63,-12.3,1
23,669282298000,2.11,14.6,16.86,1
23,669332347000,-0.91,11.26,-3.36,1
23,669382335000,1.69,-0.3,-11.45,1
23,669432353000,4.79,17.01,-9.85,1
23,669482341000,-8.62,19.57,4.71,1
23,669532329000,3.21,9.58,8.05,1
23,669582347000,-16.74,4.67,16.04,1
23,669632335000,-7.01,1.73,3.34,1
23,669682323000,-2.64,12.76,-3.98,1
23,669732341000,-1.33,19.57,0.95,1
23,669782329000,3.95,19.46,-9.58,1
23,669832347000,-2.64,1.31,-11.22,1
23,669882335000,6.82,-14.29,-9.58,1
23,669932323000,-2.03,-0.95,-10.99,1
23,669983165000,1.5,16.82,17.08,1
23,670032359000,0.42,9.85,-9.34,1
23,670092296000,6.21,-3.11,-7.82,1
23,670142314000,-4.18,19.57,-11.14,1
23,670192302000,0.72,17.97,3.83,1
23,670244273000,-7.25,5.13,10.46,1
23,670302318000,-12.53,3.15,13.59,1
23,670302318000,-12.53,3.15,13.59,1
23,670352244000,-3.68,8.47,-1.57,1
23,670402263000,-0.53,19.57,-0.95,1
23,670452281000,1.84,19.57,-2.56,1
23,670502299000,-2.26,12.41,-12.87,1
23,670553844000,7.25,-12.6,-8.39,1
23,670612285000,-1.65,-8.54,-14.25,1
23,670662273000,2.56,14.14,16.25,1
23,670722301000,-0.76,12.76,-4.37,1
23,670772410000,7.67,-5.05,-1.14,1
23,670822307000,-0.76,19.57,-13.78,1
23,670872264000,-5.94,18.35,5.13,1
23,670922313000,-1.76,7.31,8.12,1
23,670922313000,-1.76,7.31,8.12,1
23,671032146000,-7.08,2.11,5.24,1
23,671082957000,-3.95,17.05,-3.6,1
23,671132243000,3.41,19.57,-2.3,1
23,671182323000,-2.22,16.21,-13.99,1
23,671232341000,4.18,-9.11,-9.08,1
23,671282298000,5.41,-15.32,-14.98,1
23,671342296000,4.71,11.26,6.47,1
23,671392314000,-2.34,11.22,-3.98,1
23,671442302000,2.68,6.85,-7.25,1
23,671492290000,6.51,12.53,-5.98,1
23,671542308000,-10.72,19.57,3.79,1
23,671592326000,3.91,10.23,3.6,1
23,671642314000,-13.63,6.28,16.7,1
23,671692302000,-7.74,1.42,4.79,1
23,671742290000,-5.94,11.18,-3.83,1
23,671792308000,0.61,19.57,0.23,1
23,671842296000,6.93,19.57,-6.05,1
23,671842296000,6.93,19.57,-6.05,1
23,671902873000,-3.36,7.86,-9.77,1
23,671952525000,7.25,-14.71,-11.56,1
23,672002513000,-3.17,-0.84,-9.89,1
23,672052653000,-0.89,16.36,17.58,1
23,672102336000,0.31,13.82,-10.08,1
23,672154491000,9.19,-4.33,-7.46,1
23,672212260000,-0.57,19.38,-14.37,1
23,672272288000,-1.73,17.05,3.26,1
23,672322307000,-9.08,7.21,12.11,1
23,672372325000,-13.57,2.15,9.7,1
23,672422313000,-3.06,6.97,-0.08,1
23,672472331000,-5.01,18.01,-4.75,1
23,672522319000,8.2,19.57,-2.41,1
23,672572368000,-4.1,12.53,-11.54,1
23,672622325000,5.71,-9.53,-8.77,1
23,672672343000,0.61,-11.22,-14.1,1
23,672722331000,4.29,6.36,6.44,1
23,672772288000,-4.14,19.57,14.82,1
23,672822337000,4.14,-4.06,-19.23,1
23,672872325000,10.69,3.45,-3.02,1
23,672922343000,-13.91,19.57,-0.95,1
23,672972331000,4.33,11.84,0.95,1
23,673022319000,-10.8,7.63,14.48,1
23,673072337000,-10.57,2.3,8.12,1
23,673122325000,-5.94,10.53,-5.01,1
23,673172343000,2.18,19.57,0.23,1
23,673222301000,2.15,19.57,-3.45,1
23,673272319000,-3.6,10.53,-11.14,1
23,673322368000,8.01,-12.98,-9.49,1
23,673372325000,-0.95,-7.86,-14.25,1
23,673422343000,4.9,8.2,10.65,1
23,673472331000,-2.03,14.06,5.33,1
23,673522319000,-3.41,6.24,-8.88,1
23,673572337000,10.15,7.7,0.65,1
23,673622356000,-8.81,19.57,-4.4,1
23,673672343000,6.74,13.87,3.17,1
23,673722331000,-12.64,6.4,13.63,1
23,673772288000,-10.23,2.45,8.2,1
23,673822337000,0.93,7.55,0.69,1
23,673872325000,-9.66,19.04,-3.57,1
23,673922343000,9.04,19.57,-4.99,1
23,673972331000,-4.06,8.31,-11.33,1
23,674022349000,6.82,-10.11,-8.2,1
23,674072307000,-0.34,-9.23,-14.86,1
23,674122264000,4.79,12.41,13.38,1
23,674172343000,-0.46,15.55,-1.8,1
23,674222331000,-0.91,0.61,-12.34,1
23,674272319000,8.43,13.91,-7.08,1
23,674322337000,-7.97,19.57,4.9,1
23,674372325000,2.53,9.0,4.25,1
23,674422374000,-16.82,6.28,16.63,1
23,674472331000,-4.99,2.68,5.52,1
23,674522319000,-6.32,13.87,-5.75,1
23,674572368000,2.98,19.57,0.84,1
23,674622325000,4.14,19.5,-9.28,1
23,674672343000,-3.11,2.37,-10.0,1
23,674732310000,6.89,-14.75,-11.07,1
23,674782237000,-1.99,3.34,-3.06,1
23,674832347000,-1.8,17.88,15.7,1
23,674882335000,0.69,9.19,-14.71,1
23,674932323000,10.46,-2.49,-4.86,1
23,674982341000,-7.78,19.57,-7.5,1
23,675032298000,-0.38,17.73,2.18,1
23,675082347000,-4.37,7.08,9.89,1
23,675132365000,-13.02,2.45,12.76,1
23,675182323000,-4.67,5.86,0.0,1
23,675232310000,-4.1,18.16,-3.49,1
23,675282329000,3.49,19.57,-2.3,1
23,675332316000,0.34,16.25,-10.34,1
23,675332316000,0.34,16.25,-10.34,1
23,675402568000,6.09,-9.28,-7.55,1
23,675452373000,0.42,-9.11,-14.1,1
23,675502757000,1.65,12.72,15.32,1
23,675552409000,-2.49,16.66,-3.45,1
23,675603007000,3.17,5.37,-9.47,1
23,675652568000,8.66,11.54,-8.39,1
23,675702403000,-16.02,19.57,1.95,1
23,675752818000,5.63,14.18,4.33,1
23,675802470000,-10.65,5.41,13.25,1
23,675853190000,-11.18,1.95,7.55,1
23,675912273000,-0.57,10.15,-0.04,1
23,675972301000,-1.53,19.57,-0.5,1
23,676022288000,0.04,16.13,-12.15,1
23,676072856000,4.63,-7.74,-7.82,1
23,676122264000,3.79,-13.67,-12.72,1
23,676172343000,0.72,7.63,6.28,1
23,676222362000,-3.57,16.17,7.12,1
23,676272319000,0.34,15.13,-7.01,1
23,676322337000,7.86,2.45,-3.02,1
23,676372325000,-4.75,19.53,-7.59,1
23,676422343000,-1.99,15.17,4.79,1
23,676472331000,-11.6,7.01,13.44,1
23,676522319000,-12.41,1.76,4.94,1
23,676572337000,-8.92,16.04,-5.24,1
23,676622325000,11.75,19.57,1.38,1
23,676672343000,-5.63,19.53,-8.24,1
23,676722331000,5.94,-3.02,-10.0,1
23,676782237000,1.69,-9.3,-8.2,1
23,676832286000,-0.23,-1.92,-5.67,1
23,676882335000,2.45,7.27,2.49,1
23,676932323000,-2.96,17.54,4.6,1
23,676982310000,-0.95,16.09,-14.4,1
23,677032329000,4.71,12.53,4.18,1
23,677082347000,-13.48,17.35,-7.16,1
23,677132365000,5.13,15.89,4.37,1
23,677182323000,-8.12,8.58,13.59,1
23,677232341000,-13.33,1.99,5.52,1
23,677282329000,-3.68,15.13,-2.98,1
23,677332347000,4.56,19.57,1.38,1
23,677382304000,-2.83,19.53,-10.53,1
23,677432323000,3.17,-2.03,-8.88,1
23,677482402000,1.8,-12.41,-10.19,1
23,677532329000,-0.15,-0.76,0.65,1
23,677582347000,-0.95,13.44,16.47,1
23,677632365000,-0.27,14.18,-19.0,1
23,677682323000,12.26,6.93,-4.52,1
23,677732341000,-2.34,19.57,-12.79,1
23,677782298000,-14.94,18.24,8.35,1
23,677832347000,2.68,8.81,9.43,1
23,677882304000,-18.54,0.99,11.35,1
23,677942302000,-2.3,9.89,-0.38,1
23,677992229000,5.83,19.57,3.99,1
23,678042308000,3.99,19.57,-3.76,1
23,678092265000,-9.72,13.44,-11.37,1
23,678142345000,6.63,-14.9,-12.68,1
23,678192363000,4.18,-7.65,-8.05,1
23,678242290000,0.19,4.06,7.93,1
23,678292308000,0.46,16.78,-0.69,1
23,678342296000,-0.95,15.7,-7.25,1
23,678392345000,9.53,7.35,-2.11,1
23,678442302000,-12.68,19.57,-3.34,1
23,678492290000,6.66,14.29,3.38,1
23,678542308000,-14.6,4.56,12.45,1
23,678592296000,-11.69,3.91,7.63,1
23,678642314000,1.57,8.05,0.93,1
23,678692302000,-7.4,19.57,0.5,1
23,678742259000,-1.08,19.57,-10.76,1
23,678792338000,2.34,3.38,-12.72,1
23,678842296000,5.28,-11.56,-10.76,1
23,678892375000,5.33,-7.65,-6.74,1
23,678942302000,-0.15,9.47,9.08,1
23,678992259000,-0.76,17.5,-4.06,1
23,679042308000,5.9,4.37,-11.73,1
23,679092296000,4.56,14.56,-5.05,1
23,679142314000,-12.41,19.46,4.52,1
23,679192332000,1.46,10.84,6.82,1
23,679242320000,-18.12,3.34,13.33,1
23,679292308000,-2.18,4.02,6.05,1
23,679342296000,-5.01,17.01,-0.69,1
23,679392314000,-6.05,19.57,-0.3,1
23,679442302000,-3.11,19.53,-8.88,1
23,679492351000,1.18,1.57,-12.22,1
23,679492351000,1.18,1.57,-12.22,1
23,679552531000,5.67,-13.06,-10.99,1
23,679603374000,3.91,-0.76,-1.57,1
23,679662273000,-1.38,17.73,15.24,1
23,679722301000,-1.12,0.11,-18.35,1
23,679772410000,8.73,13.14,-5.48,1
23,679832316000,-15.01,19.57,0.72,1
23,679892314000,3.06,11.26,6.05,1
23,679942302000,-17.67,4.94,16.51,1
23,679992290000,-2.68,5.09,4.9,1
23,680042338000,-3.6,11.5,-2.83,1
23,680092296000,-7.4,19.57,0.42,1
23,680142284000,1.73,19.57,-10.8,1
23,680192363000,2.15,-1.18,-11.37,1
23,680192363000,2.15,-1.18,-11.37,1
23,680248454000,6.02,-13.57,-9.49,1
23,680302379000,1.23,-1.61,-6.17,1
23,680352916000,0.53,18.2,16.44,1
23,680412273000,-4.94,4.29,-12.87,1
23,680472301000,10.38,-2.75,1.92,1
23,680522319000,-13.95,19.57,-1.38,1
23,680572337000,6.17,15.09,2.07,1
23,680622356000,-11.26,6.93,14.48,1
23,680672343000,-10.76,2.64,11.54,1
23,680722331000,-2.14,6.55,-2.75,1
23,680772319000,-3.26,19.34,-0.15,1
23,680822337000,-0.23,19.57,-2.68,1
23,680872325000,-6.13,14.06,-11.56,1
23,680922343000,8.01,-9.89,-9.62,1
23,680972301000,2.18,-9.89,-12.18,1
23,681022319000,3.6,2.53,3.53,1
23,681072337000,-6.66,19.31,11.41,1
23,681122325000,2.91,10.76,-10.0,1
23,681182323000,8.92,2.68,-6.43,1
23,681232280000,-15.28,19.57,0.69,1
23,681282329000,5.33,14.18,5.01,1
23,681332378000,-14.67,5.28,15.75,1
23,681382335000,-8.62,3.21,7.86,1
23,681432323000,-2.41,12.18,-3.91,1
23,681482341000,-2.37,19.57,0.61,1
23,681532298000,0.84,19.57,-7.63,1
23,681582347000,-5.48,7.74,-10.88,1
23,681632335000,8.85,-14.6,-10.42,1
23,681682475000,3.6,-5.43,-7.46,1
23,681732341000,0.65,8.77,7.97,1
23,681782451000,-1.84,18.43,-2.87,1
23,681832378000,6.85,-1.14,-8.47,1
23,681882335000,2.15,15.64,-12.26,1
23,681932353000,-12.18,19.19,5.05,1
23,681982341000,1.33,11.96,8.47,1
23,682032329000,-18.69,3.76,16.93,1
23,682082347000,-1.33,5.94,4.52,1
23,682132335000,-1.61,15.36,-2.18,1
23,682182323000,-6.47,19.57,-0.65,1
23,682232341000,-1.88,19.42,-8.27,1
23,682282298000,-2.34,0.72,-10.92,1
23,682332347000,6.78,-12.87,-10.04,1
23,682392314000,1.92,-2.96,-5.09,1
23,682442302000,-2.6,14.79,11.84,1
23,682492290000,6.7,10.53,-7.78,1
23,682542308000,2.56,8.01,-8.77,1
23,682592296000,-4.67,17.77,-13.99,1
23,682642314000,2.76,17.86,5.86,1
23,682692302000,-8.08,9.08,12.98,1
23,682742290000,-15.85,4.37,14.67,1
23,682792308000,-1.27,7.89,-2.22,1
23,682842296000,-2.6,19.38,0.15,1
23,682892314000,-1.31,19.57,-3.41,1
23,682942302000,-7.25,16.21,-12.91,1
23,682942302000,-7.25,16.21,-12.91,1
23,683012279000,10.15,-14.67,-9.92,1
23,683062266000,1.88,-3.91,-7.93,1
23,683112285000,1.31,12.11,11.14,1
23,683172313000,1.33,15.24,-10.61,1
23,683222331000,4.44,0.31,-5.82,1
23,683272319000,-7.63,19.53,-9.28,1
23,683322337000,2.96,16.4,3.15,1
23,683372325000,-5.71,8.31,12.57,1
23,683422343000,-13.59,5.24,14.44,1
23,683472331000,-4.25,4.37,-1.69,1
23,683522319000,-4.4,18.16,-1.14,1
23,683572337000,-3.41,19.57,-2.3,1
23,683622325000,-1.76,16.66,-9.96,1
23,683672343000,2.22,-2.53,-9.53,1
23,683722331000,6.47,-14.02,-11.22,1
23,683772319000,4.1,1.76,0.38,1
23,683822337000,-5.6,18.5,14.71,1
23,683872325000,6.82,6.66,-8.85,1
23,683922374000,5.37,8.24,-6.32,1
23,683972362000,-7.31,19.34,-13.17,1
23,684022319000,4.94,17.54,4.67,1
23,684072337000,-6.28,9.28,12.34,1
23,684122325000,-17.77,3.79,12.68,1
23,684172343000,0.31,5.48,0.11,1
23,684222331000,-3.34,17.43,-0.8,1
23,684272319000,-3.26,19.57,-0.57,1
23,684322337000,-3.36,19.08,-10.08,1
23,684372325000,3.72,-4.71,-10.84,1
23,684422343000,5.33,-11.75,-10.19,1
23,684472331000,2.3,-0.23,-2.96,1
23,684522319000,-5.63,17.16,15.47,1
23,684572337000,5.52,6.89,-19.53,1
23,684622325000,6.47,-0.27,-4.99,1
23,684672343000,-7.89,19.57,-9.77,1
23,684722331000,2.34,17.2,2.22,1
23,684772319000,-5.43,8.85,11.92,1
23,684822337000,-19.0,4.82,13.18,1
23,684872325000,-0.72,5.33,1.5,1
23,684922343000,-2.83,16.02,-1.95,1
23,684972331000,-2.45,19.57,-1.57,1
23,685022319000,-3.15,19.04,-9.49,1
23,685072337000,0.89,-4.1,-10.65,1
23,685122325000,5.75,-9.96,-10.53,1
23,685172374000,2.64,-1.46,-4.82,1
23,685222453000,-2.72,15.85,14.56,1
23,685272319000,2.53,12.37,-15.83,1
23,685322337000,6.02,-3.68,-6.63,1
23,685372325000,-3.95,19.5,-12.72,1
23,685422343000,-0.89,18.66,2.49,1
23,685472331000,-4.52,12.11,11.41,1
23,685522319000,-18.31,1.27,13.4,1
23,685572337000,-0.72,6.32,3.53,1
23,685642345000,-4.86,18.43,-0.5,1
23,685692271000,1.18,19.57,-3.6,1
23,685742320000,-8.31,14.6,-11.99,1
23,685792247000,9.3,-13.02,-10.23,1
23,685842296000,1.57,-8.92,-11.33,1
23,685892314000,3.68,6.28,7.01,1
23,685942302000,-1.46,19.38,3.26,1
23,685992290000,5.75,-6.7,-12.72,1
23,685992290000,5.75,-6.7,-12.72,1
23,686052348000,3.79,15.6,-13.06,1
23,686103099000,-8.92,19.08,3.87,1
23,686152690000,0.76,13.63,10.15,1
23,686202342000,-18.35,4.21,16.51,1
23,686252849000,-4.82,3.76,4.44,1
23,686302501000,-3.15,14.29,-3.57,1
23,686353160000,-4.99,19.57,-0.53,1
23,686412273000,0.95,19.5,-7.82,1
23,686472331000,-0.08,-1.18,-10.15,1
23,686522288000,4.21,-12.07,-11.88,1
23,686572276000,3.41,1.61,1.04,1
23,686622295000,-6.55,18.77,13.99,1
23,686672313000,2.96,2.87,-18.81,1
23,686722270000,7.67,6.24,-4.82,1
23,686772319000,-8.73,19.57,-8.5,1
23,686822337000,4.52,16.63,2.15,1
23,686872325000,-8.24,9.51,14.37,1
23,686872325000,-8.24,9.51,14.37,1
23,686962321000,-5.28,3.21,4.56,1
23,687012187000,-2.3,16.59,-0.95,1
23,687062266000,-3.95,19.57,-1.14,1
23,687112285000,-1.27,19.38,-9.89,1
23,687162273000,0.23,-2.07,-10.38,1
23,687212291000,7.5,-14.1,-11.11,1
23,687272288000,2.07,-0.46,-2.75,1
23,687322337000,-5.13,18.96,13.72,1
23,687372325000,2.96,6.21,-12.98,1
23,687422343000,7.63,4.63,-4.9,1
23,687472331000,-4.79,19.53,-12.79,1
23,687522349000,-0.8,17.54,1.69,1
23,687572337000,-3.34,13.4,11.35,1
23,687622325000,-19.08,3.15,14.82,1
23,687672343000,-1.53,6.09,1.54,1
23,687722331000,-1.88,15.83,-0.8,1
23,687772319000,-4.75,19.57,-1.38,1
23,687822337000,-2.07,19.53,-10.38,1
23,687872325000,1.69,-3.06,-10.84,1
23,687922343000,6.36,-12.79,-10.38,1
23,687972331000,2.6,-0.89,-3.87,1
23,688022319000,-3.95,17.12,15.32,1
23,688072337000,9.11,4.94,-19.0,1
23,688122325000,6.05,-1.38,-6.82,1
23,688172343000,-8.62,19.57,-7.93,1
23,688222301000,-3.21,16.44,1.33,1
23,688272319000,-3.3,11.41,11.75,1
23,688322337000,-15.79,3.95,15.28,1
23,688372325000,0.04,4.79,0.34,1
23,688422343000,-7.86,16.17,-1.88,1
23,688472331000,-3.41,19.57,-2.03,1
23,688522319000,-2.6,17.69,-11.54,1
23,688572368000,2.76,-4.29,-9.77,1
23,688622325000,7.16,-13.87,-12.07,1
23,688672343000,2.07,2.3,1.08,1
23,688722301000,-6.24,18.16,13.72,1
23,688772319000,4.44,12.18,-6.82,1
23,688822337000,7.31,0.95,-10.19,1
23,688872325000,-4.75,19.11,-13.59,1
23,688922343000,2.49,18.5,5.71,1
23,688972331000,-6.63,10.57,12.49,1
23,689022349000,-18.07,1.42,12.45,1
23,689072368000,-0.91,6.13,0.53,1
23,689122356000,-2.45,17.08,-1.33,1
23,689172343000,-1.76,19.57,-0.61,1
23,689222301000,-4.52,18.81,-10.57,1
23,689282298000,3.79,-5.24,-9.49,1
23,689332316000,2.83,-10.34,-11.18,1
23,689382274000,3.06,3.06,2.87,1
23,689432262000,-6.43,18.12,8.85,1
23,689482280000,4.48,8.01,-6.43,1
23,689532298000,5.28,8.24,-5.86,1
23,689582316000,-10.88,19.57,-8.27,1
23,689632365000,8.05,15.64,3.79,1
23,689682323000,-11.26,7.55,13.95,1
23,689732341000,-14.52,1.18,9.11,1
23,689782329000,0.0,8.16,-1.88,1
23,689832347000,-2.79,19.5,-0.3,1
23,689882335000,0.5,19.57,-2.49,1
23,689932323000,-7.04,15.94,-12.3,1
23,689982341000,7.93,-12.37,-10.19,1
23,690032329000,2.3,-9.77,-12.98,1
23,690082347000,3.83,5.33,5.41,1
23,690132335000,-4.82,17.77,5.52,1
23,690182323000,-2.87,7.44,-8.43,1
23,690232310000,9.89,5.75,-4.21,1
23,690282359000,-12.76,19.57,-2.83,1
23,690332347000,8.05,14.02,2.45,1
23,690382335000,-11.33,8.81,14.25,1
23,690432323000,-12.07,1.38,9.43,1
23,690482310000,-0.61,6.44,-1.84,1
23,690532329000,-8.12,19.19,-3.06,1
23,690582347000,6.02,19.57,-4.21,1
23,690632365000,-5.28,12.22,-11.37,1
23,690632365000,-5.28,12.22,-11.37,1
23,690704112000,7.44,-10.0,-9.23,1
23,690762279000,-0.53,-2.49,-7.86,1
23,690822337000,-5.05,18.7,16.47,1
23,690872295000,3.21,2.96,-13.76,1
23,690922282000,8.08,3.76,-6.09,1
23,690972270000,-8.16,19.57,-9.19,1
23,691022319000,3.38,16.97,1.69,1
23,691072337000,-7.16,9.08,11.03,1
23,691122325000,-15.28,2.07,13.76,1
23,691172343000,-1.73,7.93,-0.27,1
23,691222301000,-3.83,18.73,-1.65,1
23,691272319000,1.65,19.57,-1.8,1
23,691322307000,-4.37,16.97,-11.65,1
23,691372356000,5.37,-9.7,-9.43,1
23,691422343000,2.07,-10.8,-12.37,1
23,691472331000,2.98,4.56,3.49,1
23,691522319000,-9.19,19.5,5.6,1
23,691582378000,15.02,-16.4,-3.53,1
23,691632335000,3.3,17.58,-15.32,1
23,691682323000,-16.93,18.85,2.15,1
23,691732341000,8.01,11.75,7.97,1
23,691782329000,-17.01,5.98,17.05,1
23,691832347000,-6.28,4.37,6.59,1
23,691882365000,-3.53,12.68,-4.67,1
23,691932353000,-3.83,19.57,0.23,1
23,691982310000,0.46,19.57,-9.49,1
23,692032329000,-3.11,2.3,-11.8,1
23,692082378000,9.53,-15.13,-10.65,1
23,692142314000,0.42,-3.64,-9.81,1
23,692192302000,-2.64,18.43,16.04,1
23,692242351000,7.7,-4.33,-13.99,1
23,692292308000,-2.87,16.21,-7.55,1
23,692342296000,-1.14,13.91,-11.6,1
23,692392314000,-4.79,19.23,5.63,1
23,692442302000,3.02,12.45,9.66,1
23,692492290000,-18.92,1.42,16.4,1
23,692542308000,-5.24,5.6,1.8,1
23,692592296000,-4.86,15.21,-3.17,1
23,692642314000,-1.27,19.57,-0.69,1
23,692692302000,-3.15,19.04,-11.07,1
23,692743053000,2.68,-5.94,-9.85,1
23,692792308000,6.82,-12.15,-9.34,1
23,692842296000,2.41,0.84,-3.41,1
23,692842296000,2.41,0.84,-3.41,1
23,692912334000,-9.3,19.27,4.99,1
23,692962291000,12.26,-15.32,-6.43,1
23,693012401000,5.37,15.51,-13.33,1
23,693062266000,-18.16,19.27,2.49,1
23,693122295000,7.08,12.18,5.48,1
23,693172343000,-16.32,7.01,17.77,1
23,693222301000,-5.01,3.72,4.9,1
23,693292369000,-5.56,14.06,-4.18,1
23,693342265000,0.08,19.57,-0.65,1
23,693392345000,-5.98,16.28,-12.49,1
23,693442302000,5.86,-8.85,-10.42,1
23,693492290000,4.14,-10.95,-12.34,1
23,693542338000,5.05,6.32,5.01,1
23,693592326000,-6.85,16.55,7.08,1
23,693642314000,3.53,5.83,-6.85,1
23,693692302000,5.22,11.11,-3.57,1
23,693742290000,-12.15,19.57,-4.33,1
23,693792308000,7.5,13.21,3.02,1
23,693842296000,-14.33,9.43,16.44,1
23,693892314000,-9.19,0.42,8.73,1
23,693942302000,-3.68,7.89,-2.64,1
23,693992259000,-6.43,19.57,-2.64,1
23,694042277000,3.41,19.57,-5.13,1
23,694092296000,-4.4,8.96,-10.61,1
23,694142314000,9.28,-12.34,-9.43,1
23,694192332000,0.15,-7.7,-13.48,1
23,694242290000,2.6,11.18,12.34,1
23,694292308000,-1.53,18.39,1.57,1
23,694342296000,5.48,-8.58,-13.95,1
23,694392314000,4.94,16.32,-9.08,1
23,694442302000,-14.52,19.57,3.49,1
23,694492290000,6.55,12.37,7.08,1
23,694542308000,-16.63,4.9,16.82,1
23,694592296000,-8.47,3.68,5.9,1
23,694642314000,-3.41,11.56,-4.02,1
23,694692302000,-2.96,19.57,0.42,1
23,694742290000,2.53,19.57,-8.16,1
23,694792308000,-3.15,5.13,-11.45,1
23,694842296000,8.81,-15.21,-9.81,1
23,694892314000,-0.11,-3.98,-11.22,1
23,694942332000,0.23,15.17,16.32,1
23,694992290000,-0.19,14.56,-4.86,1
23,695042308000,6.28,-8.2,-10.11,1
23,695092296000,2.41,17.92,-12.53,1
23,695142314000,-10.8,19.38,4.86,1
23,695192302000,3.53,11.35,8.39,1
23,695243144000,-18.69,5.22,17.05,1
23,695292308000,-4.4,4.44,3.6,1
23,695342296000,-4.06,14.21,-4.29,1
23,695392314000,-3.06,19.57,0.23,1
23,695442332000,-0.34,19.53,-11.18,1
23,695492259000,-0.69,-0.5,-11.18,1
23,695542338000,7.63,-15.01,-10.38,1
23,695592296000,-0.57,0.04,-8.73,1
23,695642345000,-1.65,16.97,18.2,1
23,695692332000,2.79,12.07,-11.41,1
23,695742290000,6.78,-2.11,-7.5,1
23,695792308000,-1.46,19.31,-15.43,1
23,695842296000,-7.31,18.73,6.05,1
23,695892314000,-0.76,10.8,10.27,1
23,695942302000,-18.85,5.33,15.28,1
23,695992259000,-4.71,3.87,1.65,1
23,696042338000,-1.73,16.4,-2.37,1
23,696092296000,-3.17,19.57,-0.15,1
23,696142345000,-1.92,19.38,-10.38,1
23,696192302000,-0.3,-0.42,-11.14,1
23,696242351000,7.59,-16.44,-11.54,1
23,696292308000,0.53,1.69,-3.72,1
23,696292308000,0.53,1.69,-3.72,1
23,696352305000,-3.06,18.81,17.5,1
23,696402782000,2.3,1.8,-14.4,1
23,696452434000,9.04,9.28,-2.83,1
23,696503062000,-9.85,19.57,-8.01,1
23,696552653000,4.63,15.21,2.3,1
23,696602336000,-9.49,8.62,13.63,1
23,696652751000,-14.1,2.15,11.37,1
23,696702373000,-3.21,6.55,-1.46,1
23,696752910000,-4.52,18.92,-2.45,1
23,696802684000,0.95,19.57,-2.26,1
23,696852336000,-2.98,15.24,-10.61,1
23,696902721000,5.63,-9.04,-9.19,1
23,696952342000,2.87,-12.3,-13.38,1
23,697002879000,2.72,5.56,2.34,1
23,697052470000,-6.82,19.57,16.7,1
23,697103099000,4.71,-0.15,-19.61,1
23,697162273000,9.23,3.64,-1.99,1
23,697222270000,-15.21,19.57,0.19,1
23,697272319000,6.24,11.8,6.89,1
23,697322307000,-17.62,5.79,16.63,1
23,697372325000,-8.62,3.26,5.71,1
23,697422343000,-1.31,10.19,-2.98,1
23,697472331000,-5.24,19.57,-0.23,1
23,697522288000,3.49,19.57,-7.27,1
23,697572337000,-3.26,5.37,-10.38,1
23,697622325000,8.01,-11.99,-9.15,1
23,697672374000,0.04,-4.14,-10.99,1
23,697722331000,0.27,12.83,14.44,1
23,697772319000,-1.18,15.55,-3.79,1
23,697822337000,6.7,-11.84,-5.67,1
23,697872325000,3.3,19.11,-13.91,1
23,697922343000,-12.98,19.31,3.45,1
23,697972362000,5.28,12.15,7.5,1
23,698022319000,-17.5,6.63,17.47,1
23,698072337000,-6.7,3.3,6.89,1
23,698122325000,-4.94,14.6,-5.63,1
23,698172343000,-1.76,19.57,0.61,1
23,698222301000,-0.57,19.57,-9.04,1
23,698272319000,-1.95,3.15,-10.84,1
23,698339671000,7.59,-14.67,-9.81,1
23,698392314000,2.3,2.79,-0.15,1
23,698442302000,-6.51,19.15,15.02,1
23,698492290000,5.13,1.42,-19.61,1
23,698542308000,6.63,5.09,-3.76,1
23,698592296000,-10.46,19.57,-8.47,1
23,698642314000,5.75,17.2,2.87,1
23,698692332000,-8.43,7.86,13.14,1
23,698742290000,-16.04,2.03,11.5,1
23,698792308000,-2.37,7.46,-0.99,1
23,698842296000,-3.06,19.46,-2.14,1
23,698892314000,2.18,19.57,-2.53,1
23,698942302000,-4.86,14.86,-13.17,1
23,698992320000,6.44,-12.03,-9.72,1
23,699042338000,2.34,-10.8,-14.9,1
23,699092326000,3.3,5.67,9.04,1
23,699142314000,-4.48,19.53,10.31,1
23,699192302000,0.23,1.99,-18.05,1
23,699242320000,8.69,8.24,-2.75,1
23,699292308000,-11.88,19.57,-3.76,1
23,699342296000,4.52,15.36,2.56,1
23,699392314000,-10.34,7.59,14.67,1
23,699442332000,-14.44,2.49,9.53,1
23,699492290000,-1.08,6.13,-1.57,1
23,699542308000,-4.67,19.27,-2.18,1
23,699592296000,2.56,19.57,-2.56,1
23,699642314000,-5.41,13.95,-10.99,1
23,699692302000,8.08,-9.04,-9.43,1
23,699742290000,1.99,-9.85,-12.79,1
23,699792308000,2.72,7.7,7.31,1
23,699842296000,-1.38,15.94,2.76,1
23,699892314000,-1.27,4.75,-8.62,1
23,699942302000,5.94,13.14,-4.67,1
23,699992259000,-12.49,19.57,-1.14,1
23,700042338000,8.08,13.95,5.43,1
23,700092296000,-15.21,5.56,13.53,1
23,700142314000,-11.45,5.01,10.15,1
23,700192302000,0.31,9.34,-3.57,1
23,700246532000,-4.94,19.57,-1.69,1
23,700246532000,-4.94,19.57,-1.69,1
23,700302348000,3.41,19.57,-8.05,1
23,700352794000,-1.18,1.76,-10.57,1
23,700402476000,7.93,-16.63,-11.03,1
23,700453136000,0.53,0.53,-5.98,1
23,700502788000,-1.57,17.35,16.86,1
23,700552440000,-3.49,9.0,-13.1,1
23,700603099000,10.69,-7.25,-0.46,1
23,700652782000,-3.21,19.57,-14.29,1
23,700702342000,-3.34,17.92,3.76,1
23,700752971000,-2.64,11.03,9.51,1
23,700802592000,-19.11,3.57,15.64,1
23,700852367000,-1.84,6.82,1.69,1
23,700902873000,-4.44,15.47,-4.06,1
23,700970347000,2.68,19.57,-1.61,1
23,701022105000,-6.47,10.76,-11.03,1
23,701072246000,7.86,-11.22,-9.89,1
23,701122295000,0.69,-7.78,-12.95,1
23,701172313000,2.37,9.89,10.12,1
23,701222301000,-3.87,18.85,2.6,1
23,701272288000,5.48,0.38,-13.99,1
23,701322429000,4.94,15.13,-5.09,1
23,701372325000,-15.83,19.57,1.54,1
23,701422343000,7.21,13.48,4.37,1
23,701472331000,-13.14,6.7,14.75,1
23,701522319000,-11.92,3.02,7.01,1
23,701572337000,0.0,8.47,-2.98,1
23,701622325000,-4.14,19.57,-1.33,1
23,701672313000,2.45,19.57,-5.01,1
23,701722331000,-5.24,12.68,-10.42,1
23,701772838000,7.82,-10.15,-8.47,1
23,701832347000,2.34,-9.89,-11.5,1
23,701882243000,0.95,13.95,14.1,1
23,701882243000,0.95,13.95,14.1,1
23,701972423000,6.02,-0.84,-16.7,1
23,702022716000,6.7,11.75,-7.78,1
23,702072185000,-14.48,19.57,-0.76,1
23,702122295000,7.63,15.64,1.92,1
23,702172343000,-8.27,7.4,10.92,1
23,702222331000,-15.89,2.96,11.65,1
23,702272319000,-2.03,7.21,-1.38,1
23,702322307000,-2.34,18.77,-0.99,1
23,702372325000,-0.99,19.57,-0.61,1
23,702422343000,-2.68,16.74,-9.3,1
23,702472331000,3.76,-6.85,-9.19,1
23,702532329000,2.11,-10.04,-9.58,1
23,702582286000,3.06,2.26,2.07,1
23,702632304000,-3.68,19.31,16.13,1
23,702682262000,4.25,6.13,-8.47,1
23,702732280000,5.48,5.01,-5.28,1
23,702792247000,0.23,19.27,-13.06,1
23,702842235000,-8.24,18.47,4.86,1
23,702892314000,1.76,10.08,9.53,1
23,702942302000,-18.85,3.99,16.21,1
23,702992259000,-2.56,5.67,2.68,1
23,703042308000,-5.05,15.09,-3.06,1
23,703092357000,-0.69,19.57,-1.5,1
23,703142314000,-1.08,19.15,-11.03,1
23,703192332000,0.5,-2.18,-10.11,1
23,703242320000,7.16,-16.51,-11.92,1
23,703292369000,0.8,2.03,-1.42,1
23,703342326000,-3.72,19.27,16.32,1
23,703392375000,0.8,5.43,-13.91,1
23,703442302000,9.7,2.68,-8.85,1
23,703492320000,-0.5,19.53,-12.03,1
23,703542338000,-7.21,18.47,5.52,1
23,703592296000,-0.04,9.89,8.81,1
23,703642314000,-17.43,4.37,15.36,1
23,703692332000,-2.22,5.71,2.22,1
23,703742320000,-3.02,18.24,-2.03,1
23,703792308000,0.19,19.57,-1.12,1
23,703842265000,-0.23,17.58,-11.07,1
23,703892345000,1.23,-5.86,-9.77,1
23,703942302000,5.48,-16.21,-12.64,1
23,703992290000,1.92,6.4,1.65,1
23,703992290000,1.92,6.4,1.65,1
23,704052318000,-4.71,19.23,15.64,1
23,704102824000,4.48,-0.69,-10.34,1
23,704152476000,6.89,10.95,-4.82,1
23,704203105000,-8.85,19.57,-6.82,1
23,704252757000,2.56,15.17,1.99,1
23,704302348000,-9.77,7.25,12.95,1
23,704352916000,-10.99,2.41,11.5,1
23,704402537000,-4.44,10.27,-2.83,1
23,704452373000,-1.38,19.57,-0.89,1
23,704502666000,2.37,19.57,-3.41,1
23,704552348000,-4.37,11.96,-11.65,1
23,704602763000,8.16,-12.6,-9.58,1
23,704652385000,0.53,-10.34,-14.44,1
23,704702983000,4.21,10.99,11.88,1
23,704752605000,-2.37,12.15,1.04,1
23,704802745000,-1.84,9.34,-5.98,1
23,704852702000,8.28,11.6,1.14,1
23,704902324000,-11.11,19.57,-0.99,1
23,704952830000,6.13,12.11,2.91,1
23,705002452000,-12.45,8.39,14.94,1
23,705053111000,-9.7,1.14,7.08,1
23,705102702000,-5.2,8.5,-2.83,1
23,705152324000,-2.6,19.57,-2.41,1
23,705202830000,6.21,19.57,-5.2,1
23,705252360000,-2.6,11.45,-9.34,1
23,705303020000,5.79,-9.47,-8.16,1
23,705362315000,0.42,-10.0,-14.79,1
23,705422313000,-0.27,17.69,18.31,1
23,705472331000,0.23,8.69,-16.36,1
23,705522319000,10.76,-1.99,-2.72,1
23,705572337000,-0.69,19.57,-11.99,1
23,705622325000,-7.46,18.43,3.99,1
23,705672343000,1.31,8.35,6.47,1
23,705722301000,-15.55,6.32,16.17,1
23,705772319000,-5.09,4.6,2.96,1
23,705822307000,-3.64,12.76,-4.44,1
23,705872325000,-0.89,19.57,0.34,1
23,705922343000,2.41,19.5,-10.19,1
23,705972331000,-0.95,2.64,-10.0,1
23,706041728000,6.47,-16.74,-10.04,1
23,706092265000,4.33,9.0,8.31,1
23,706142314000,-4.25,16.25,7.78,1
23,706192302000,1.65,6.66,-8.05,1
23,706242290000,10.34,7.25,-1.57,1
23,706292308000,-8.39,19.57,-6.97,1
23,706342296000,2.22,14.71,1.84,1
23,706392314000,-8.96,6.89,13.44,1
23,706442302000,-8.88,1.69,10.04,1
23,706492290000,-9.0,8.85,-4.9,1
23,706542308000,5.22,19.57,0.53,1
23,706592296000,4.14,19.57,-2.91,1
23,706642314000,-2.75,15.02,-9.62,1
23,706692302000,5.18,-9.0,-9.0,1
23,706742320000,-1.27,-11.65,-13.63,1
23,706792522000,4.21,7.08,9.19,1
23,706842296000,-3.26,19.57,11.54,1
23,706892314000,9.3,-11.56,-14.63,1
23,706942302000,9.89,8.05,-6.02,1
23,706992290000,-16.13,19.57,4.14,1
23,707042308000,5.09,11.11,1.73,1
23,707092296000,-8.31,6.63,12.34,1
23,707142314000,-11.75,2.49,9.47,1
23,707192302000,-9.7,11.45,-6.05,1
23,707242290000,6.63,19.57,1.69,1
23,707292277000,1.18,19.57,-3.34,1
23,707342296000,-3.21,13.82,-10.84,1
23,707392375000,5.48,-9.34,-8.24,1
23,707442302000,1.38,-13.44,-13.53,1
23,707492320000,4.14,11.92,10.34,1
23,707542308000,-5.18,15.47,5.01,1
23,707592296000,-1.31,12.95,-6.7,1
23,707642314000,12.03,2.26,-1.27,1
23,707692332000,-7.04,19.57,-10.95,1
23,707742290000,-1.57,15.94,3.95,1
23,707792308000,-6.43,6.51,10.73,1
23,707842296000,-11.69,2.68,11.75,1
23,707892314000,-4.79,6.44,-0.11,1
23,707942302000,-5.2,19.11,-0.57,1
23,707992259000,5.13,19.57,-0.76,1
23,708042308000,-5.86,14.98,-9.11,1
23,708092296000,6.7,-8.39,-8.01,1
23,708142314000,0.84,-7.5,-11.95,1
23,708192302000,2.98,-2.22,-5.01,1
23,708242290000,-1.18,17.62,14.37,1
23,708292277000,0.8,4.25,-15.09,1
23,708342296000,2.07,16.55,4.52,1
23,708392314000,-6.66,15.13,-11.99,1
23,708442302000,1.08,16.36,4.4,1
23,708492290000,-9.89,4.86,14.52,1
23,708542308000,-10.72,2.6,10.65,1
23,708592296000,-9.77,14.06,-6.47,1
23,708642345000,3.95,19.57,-0.99,1
23,708692302000,0.89,19.57,-6.24,1
23,708742198000,-2.83,7.74,-10.69,1
23,708792308000,9.08,-14.52,-9.34,1
23,708842296000,-1.04,-5.52,-11.33,1
23,708842296000,-1.04,-5.52,-11.33,1
23,708902415000,-0.42,14.29,15.64,1
23,708952342000,9.08,3.76,-12.56,1
23,709003032000,-8.96,12.72,-7.74,1
23,709052684000,4.86,8.96,-6.97,1
23,709102336000,-7.27,19.11,10.0,1
23,709152843000,-4.71,4.48,5.9,1
23,709202464000,-6.28,-0.72,8.05,1
23,709253123000,-5.28,12.3,7.78,1
23,709302806000,-8.81,17.12,-1.46,1
23,709352397000,0.38,19.31,-5.75,1
23,709403056000,5.24,-4.75,-13.29,1
23,709453807000,10.27,-13.99,-3.57,1
23,709512370000,-9.7,17.01,13.14,1
23,709572307000,7.97,3.64,-11.73,1
23,709622295000,-3.15,7.4,-15.01,1
23,709672313000,5.13,14.33,-8.08,1
23,709722240000,-12.87,19.57,4.9,1
23,709772319000,6.74,9.28,4.02,1
23,709822307000,-16.55,7.12,15.09,1
23,709872325000,-6.85,1.8,6.21,1
23,709922343000,0.15,7.74,1.54,1
23,709972331000,-10.27,19.42,-2.75,1
23,710022319000,9.72,19.5,-4.67,1
23,710072337000,-2.07,3.49,-8.88,1
23,710122325000,6.74,-9.15,-6.93,1
23,710172343000,1.18,-8.27,-11.92,1
23,710222301000,3.95,10.88,9.62,1
23,710272319000,-2.91,13.25,6.51,1
23,710322307000,9.43,-6.32,-16.97,1
23,710372386000,-5.13,16.21,0.65,1
23,710422343000,-9.23,15.6,-11.88,1
23,710472331000,5.6,15.94,8.28,1
23,710522319000,-15.43,3.49,16.17,1
23,710572368000,-7.31,4.14,6.36,1
23,710622325000,-5.09,16.4,-4.14,1
23,710672343000,-0.3,19.57,-3.76,1
23,710722301000,0.34,19.04,-8.92,1
23,710772319000,-1.69,-0.3,-9.85,1
23,710832378000,11.22,-17.46,-11.69,1
23,710882365000,0.34,6.44,2.3,1
23,710932323000,-5.41,17.97,12.68,1
23,710982341000,2.76,13.67,-3.98,1
23,711042308000,8.2,1.5,-8.88,1
23,711092296000,-5.79,19.57,-10.65,1
23,711142314000,-5.09,17.12,3.38,1
23,711192302000,-0.42,9.53,9.38,1
23,711242351000,-17.97,0.31,12.83,1
23,711292308000,-7.01,6.85,0.53,1
23,711292308000,-7.01,6.85,0.53,1
23,711352733000,-0.27,18.54,0.0,1
23,711402324000,5.63,19.57,-4.06,1
23,711452800000,-3.36,11.11,-12.03,1
23,711502421000,7.35,-10.92,-8.35,1
23,711553050000,0.46,-9.92,-12.34,1
23,711602641000,0.65,13.48,14.79,1
23,711652324000,-1.33,7.7,-3.41,1
23,711702769000,3.21,17.97,-3.49,1
23,711752391000,9.58,5.67,-4.21,1
23,711802989000,-11.92,19.57,-4.99,1
23,711862315000,1.54,15.05,1.65,1
23,711922343000,-15.89,4.06,14.79,1
23,711972331000,-6.02,6.93,4.25,1
23,712022319000,0.31,18.09,-1.31,1
23,712072337000,3.21,19.57,-1.76,1
23,712122325000,-9.47,18.77,-13.91,1
23,712172343000,7.89,-9.11,-10.88,1
23,712222301000,2.34,-11.73,-10.88,1
23,712272319000,2.64,1.84,5.01,1
23,712322337000,-4.71,17.73,4.18,1
23,712372325000,7.06,-2.22,-16.02,1
23,712422343000,10.42,11.73,-2.18,1
23,712472331000,-12.87,19.38,-9.15,1
23,712522319000,0.65,13.59,2.98,1
23,712572337000,-10.65,8.24,10.42,1
23,712622325000,-16.28,1.57,10.92,1
23,712672343000,2.6,8.92,1.73,1
23,712722301000,-1.53,19.57,-0.27,1
23,712772288000,5.98,19.57,-5.48,1
23,712822307000,-9.77,13.59,-11.8,1
23,712872356000,8.08,-15.05,-12.49,1
23,712922343000,2.64,-7.27,-7.31,1
23,712972331000,0.57,4.37,5.67,1
23,713022319000,0.27,18.47,4.25,1
23,713072337000,3.41,-2.87,-14.56,1
23,713122325000,8.58,11.96,-6.78,1
23,713172343000,-17.27,19.57,0.84,1
23,713222301000,9.08,12.07,3.57,1
23,713272349000,-15.47,7.06,16.78,1
23,713322337000,-10.23,6.55,6.55,1
23,713372325000,-1.04,19.08,-4.9,1
23,713422343000,-0.5,19.57,-1.88,1
23,713472331000,-11.26,19.53,-14.6,1
23,713522319000,8.35,-15.7,-17.08,1
23,713572337000,5.79,-9.28,-11.14,1
23,713622325000,1.92,-3.21,-2.41,1
23,713672343000,-1.99,7.31,4.63,1
23,713732280000,1.42,16.44,0.76,1
23,713782329000,0.84,1.73,-7.16,1
23,713832347000,0.5,16.4,-8.96,1
23,713882335000,-8.69,18.81,2.6,1
23,713932323000,1.65,14.56,6.51,1
23,713982341000,-12.68,4.18,11.54,1
23,714032329000,-10.92,3.26,8.85,1
23,714082378000,-4.4,8.62,-5.09,1
23,714132335000,-0.8,19.53,0.69,1
23,714182323000,-1.08,19.57,-2.75,1
23,714232310000,-0.91,15.98,-9.72,1
23,714282329000,5.41,-6.09,-7.63,1
23,714332347000,3.91,-13.67,-9.34,1
23,714382335000,1.95,2.56,1.54,1
23,714432353000,-5.37,18.81,13.14,1
23,714482341000,5.67,12.57,-10.11,1
23,714532329000,9.43,4.99,-6.05,1
23,714582347000,-7.27,19.46,-17.67,1
23,714632335000,4.71,19.57,9.92,1
23,714682323000,-12.41,7.31,14.86,1
23,714732310000,-15.13,3.95,10.42,1
23,714782329000,1.33,1.18,1.42,1
23,714832316000,0.19,11.26,0.72,1
23,714882335000,-6.21,19.57,-0.5,1
23,714932323000,1.31,19.31,-3.17,1
23,714982341000,-0.72,7.5,-6.85,1
23,715032329000,4.1,-9.08,-5.33,1
23,715082347000,3.34,-8.12,-10.84,1
23,715132335000,2.49,8.43,7.89,1
23,715182323000,-5.71,12.83,-8.85,1
23,715232310000,13.57,-12.03,-4.21,1
23,715282329000,1.23,19.57,-9.08,1
23,715332316000,-16.17,19.31,-1.88,1
23,715382335000,4.56,15.02,7.82,1
23,715432323000,-12.91,5.43,12.95,1
23,715482402000,-10.53,1.95,9.15,1
23,715532329000,-1.18,10.12,-3.02,1
23,715582347000,-2.07,19.57,-1.14,1
23,715632304000,3.06,19.57,-3.72,1
23,715682384000,-5.48,10.57,-9.66,1
23,715732341000,8.66,-11.45,-8.43,1
23,715782329000,2.41,-7.63,-6.82,1
23,715832347000,1.04,7.55,7.93,1
23,715882335000,4.94,16.25,-5.94,1
23,715932323000,2.49,10.34,-10.8,1
23,715982341000,-3.06,13.99,-13.44,1
23,716032329000,-3.64,19.57,5.01,1
23,716082347000,-3.76,13.87,11.41,1
23,716132335000,-18.81,3.91,15.02,1
23,716182323000,-1.76,0.84,5.41,1
23,716232341000,2.37,7.46,-3.79,1
23,716282329000,-2.53,19.57,1.95,1
23,716342296000,1.23,19.57,-2.49,1
23,716392253000,-4.75,9.7,-7.4,1
23,716442332000,7.21,-9.81,-6.82,1
23,716492259000,2.49,-7.08,-6.21,1
23,716542308000,0.76,4.82,1.92,1
23,716592296000,-5.05,19.0,6.63,1
23,716642314000,5.94,-0.04,-11.5,1
23,716692332000,6.51,11.73,-4.25,1
23,716742290000,-7.82,19.57,-10.88,1
23,716792308000,-7.5,19.11,-0.42,1
23,716842326000,1.12,16.93,9.15,1
23,716892314000,-16.04,2.15,10.46,1
23,716942302000,-7.86,3.64,9.38,1
23,716992290000,-1.18,9.62,-2.49,1
23,717042308000,-3.98,19.57,1.76,1
23,717092265000,1.88,19.57,-5.05,1
23,717142345000,-10.04,14.98,-10.61,1
23,717192302000,9.77,-14.29,-10.61,1
23,717242290000,3.87,-7.74,-6.21,1
23,717292308000,1.38,1.88,3.06,1
23,717292308000,1.38,1.88,3.06,1
23,717390819000,-0.23,11.11,5.6,1
23,717442302000,1.23,8.2,-6.51,1
23,717492290000,-5.56,19.57,-6.47,1
23,717542338000,-10.08,18.92,-1.88,1
23,717592296000,-0.53,15.05,6.66,1
23,717642314000,-13.48,2.26,11.96,1
23,717692363000,-7.21,5.13,7.31,1
23,717742290000,-3.26,14.18,-2.34,1
23,717792308000,-3.98,19.57,0.15,1
23,717792308000,-3.98,19.57,0.15,1
23,717892375000,-9.96,16.17,-10.38,1
23,717943706000,6.51,-13.91,-10.31,1
23,717992198000,2.15,-5.09,-5.94,1
23,718042277000,1.23,8.62,9.58,1
23,718092296000,-4.9,17.31,-4.94,1
23,718142314000,9.66,-12.18,-1.33,1
23,718192302000,5.28,18.47,-13.29,1
23,718242320000,-18.66,19.23,-0.19,1
23,718292308000,8.77,16.66,5.71,1
23,718342296000,-12.3,5.63,11.18,1
23,718392314000,-13.21,1.12,10.53,1
23,718442302000,-0.11,9.47,-2.68,1
23,718492290000,0.04,19.57,-0.11,1
23,718542277000,3.15,19.57,-3.83,1
23,718592296000,-5.67,14.48,-9.49,1
23,718642314000,5.75,-8.77,-8.24,1
23,718692363000,1.95,-10.04,-8.39,1
23,718742290000,1.5,4.21,2.34,1
23,718792338000,-4.29,15.4,9.23,1
23,718844951000,1.04,14.98,-8.08,1
23,718844951000,1.04,14.98,-8.08,1
23,718902415000,5.24,3.72,-4.94,1
23,718953013000,-13.53,19.57,-4.86,1
23,719002635000,5.52,16.93,3.91,1
23,719052348000,-8.96,7.27,12.49,1
23,719102794000,-15.85,2.56,12.79,1
23,719152415000,-0.15,11.5,-2.3,1
23,719203044000,-0.46,19.57,0.84,1
23,719252666000,4.48,19.57,-6.36,1
23,719302348000,-8.88,9.3,-12.34,1
23,719352824000,9.08,-13.4,-11.18,1
23,719402446000,2.79,-8.43,-6.51,1
23,719453075000,1.73,4.6,6.32,1
23,719502696000,-1.92,19.15,4.33,1
23,719552379000,1.73,-4.37,-15.79,1
23,719602824000,11.88,13.59,-1.76,1
23,719652476000,-13.72,18.85,-7.82,1
23,719703075000,-3.21,14.82,0.31,1
23,719752727000,-4.79,11.14,10.08,1
23,719802348000,-17.12,1.33,11.96,1
23,719852885000,3.64,6.93,5.05,1
23,719902476000,-4.02,15.75,-3.72,1
23,719953136000,1.46,19.57,-0.15,1
23,720003123000,-8.88,19.42,-8.88,1
23,720052348000,3.64,-2.96,-7.7,1
23,720102824000,3.38,-9.89,-9.28,1
23,720152446000,4.56,-3.41,-2.96,1
23,720203075000,-3.83,9.51,8.43,1
23,720252635000,0.38,16.17,-7.78,1
23,720302348000,3.49,5.01,-6.13,1
23,720352763000,-3.41,15.4,-13.63,1
23,720402354000,-8.27,19.08,6.85,1
23,720452922000,0.19,12.68,9.66,1
23,720502544000,-19.0,3.45,13.53,1
23,720552348000,-2.96,5.13,5.18,1
23,720602611000,-2.56,13.72,-3.95,1
23,720652324000,-2.79,19.57,0.04,1
23,720702739000,-1.84,19.57,-7.89,1
23,720752360000,-0.84,4.37,-9.0,1
23,720802928000,5.41,-12.79,-8.58,1
23,720852489000,2.76,-4.71,-5.9,1
23,720903148000,0.8,14.48,11.37,1
23,720952769000,0.38,14.71,-9.0,1
23,721002330000,3.38,-4.4,-7.86,1
23,721052867000,-0.08,18.96,-11.37,1
23,721102458000,-9.43,18.66,1.54,1
23,721153087000,4.4,12.49,6.05,1
23,721202708000,-17.08,6.09,15.6,1
23,721252269000,-7.04,2.79,6.89,1
23,721302745000,-5.2,13.82,-5.6,1
23,721352336000,-1.53,19.57,-0.91,1
23,721412273000,1.33,19.53,-6.17,1
23,721472301000,-2.34,5.24,-9.15,1
23,721522288000,8.16,-15.79,-10.08,1
23,721572307000,0.99,2.22,-3.64,1
23,721622325000,-6.89,18.39,18.31,1
23,721672313000,7.4,9.47,-10.84,1
23,721722240000,3.83,1.27,-7.04,1
23,721772319000,-1.33,19.27,-12.64,1
23,721822337000,-8.35,18.85,1.65,1
23,721872325000,4.21,13.1,7.7,1
23,721922343000,-17.39,6.05,15.79,1
23,721972331000,-5.52,3.26,5.37,1
23,722022319000,-7.97,14.14,-6.59,1
23,722072307000,-0.11,19.57,0.04,1
23,722122294000,0.57,19.57,-7.12,1
23,722172343000,-2.22,6.89,-9.62,1
23,722222301000,8.28,-12.98,-7.59,1
23,722272319000,1.95,-6.02,-10.0,1
23,722322368000,-0.8,17.31,15.83,1
23,722372325000,2.07,9.96,-8.2,1
23,722422343000,2.79,0.19,-9.53,1
23,722472331000,2.45,18.16,-7.35,1
23,722522319000,-12.6,19.5,3.17,1
23,722572337000,6.17,13.48,6.51,1
23,722622325000,-16.89,5.41,14.33,1
23,722672343000,-5.56,3.21,7.06,1
23,722722301000,-5.37,12.72,-5.18,1
23,722772319000,-2.07,19.57,-0.38,1
23,722822307000,2.91,19.57,-8.01,1
23,722872325000,-1.5,5.33,-9.08,1
23,722922343000,8.2,-13.06,-7.59,1
23,722992320000,0.31,3.26,-5.01,1
23,723042216000,-6.97,19.27,16.78,1
23,723092296000,9.19,4.67,-9.89,1
23,723142314000,5.28,6.32,-7.55,1
23,723192302000,-3.15,19.31,-13.95,1
23,723242290000,-6.47,18.35,5.05,1
23,723292338000,1.73,11.18,10.27,1
23,723342296000,-18.89,4.99,13.91,1
23,723392345000,-6.63,3.68,2.79,1
23,723442332000,-3.26,14.33,-5.33,1
23,723492320000,0.53,19.57,-1.31,1
23,723542308000,1.18,19.5,-8.85,1
23,723592418000,-0.5,0.89,-10.69,1
23,723642375000,7.06,-15.21,-10.08,1
23,723692302000,-1.18,1.33,-6.93,1
23,723692302000,-1.18,1.33,-6.93,1
23,723752818000,-4.21,18.5,18.2,1
23,723802531000,7.06,5.79,-11.8,1
23,723853221000,7.31,4.4,-3.21,1
23,723902965000,-6.13,19.57,-12.98,1
23,723952495000,-3.11,17.97,11.96,1
23,724020335000,-1.61,10.95,11.96,1
23,724072124000,-11.11,1.99,8.77,1
23,724122233000,-3.36,7.93,-3.53,1
23,724172374000,-2.45,19.57,-2.14,1
23,724222301000,4.44,19.57,-3.87,1
23,724272319000,-2.68,13.4,-9.47,1
23,724322337000,6.7,-10.57,-7.74,1
23,724372325000,-0.3,-10.38,-11.92,1
23,724422343000,1.8,12.64,10.61,1
23,724472331000,-2.34,19.34,6.51,1
23,724522319000,8.92,-11.45,-13.38,1
23,724572337000,7.16,14.94,-6.36,1
23,724622325000,-13.29,19.57,-1.65,1
23,724672343000,6.74,15.43,1.14,1
23,724722331000,-8.08,9.11,14.44,1
23,724772319000,-14.37,1.14,8.47,1
23,724822337000,-5.67,5.28,-2.07,1
23,724872325000,-2.41,19.19,-2.79,1
23,724922343000,2.41,19.57,-1.84,1
23,724972331000,-0.65,17.58,-9.47,1
23,725023082000,2.56,-3.17,-8.73,1
23,725072368000,5.52,-15.7,-12.18,1
23,725122325000,2.3,10.69,6.59,1
23,725172343000,-6.63,16.55,8.28,1
23,725222331000,5.83,-0.19,-11.3,1
23,725282329000,7.67,14.25,-1.31,1
23,725332347000,-13.17,19.57,-4.18,1
23,725382335000,8.31,14.98,2.96,1
23,725432323000,-11.69,7.7,14.6,1
23,725482310000,-13.4,1.57,8.39,1
23,725532329000,-3.68,9.47,-3.76,1
23,725582316000,-0.23,19.57,-2.07,1
23,725632304000,5.37,19.57,-4.14,1
23,725682323000,-3.72,13.14,-9.7,1
23,725732371000,5.33,-10.95,-8.27,1
23,725782329000,0.8,-10.23,-11.73,1
23,725832347000,3.6,11.8,9.38,1
23,725882335000,-3.11,18.85,6.55,1
23,725932323000,7.01,-4.4,-16.74,1
23,725982310000,4.14,15.89,-4.02,1
23,726032329000,-12.91,19.57,-0.99,1
23,726082347000,6.7,12.34,2.53,1
23,726132365000,-13.99,8.24,15.66,1
23,726182384000,-10.61,2.45,7.93,1
23,726232341000,-3.79,10.34,-4.94,1
23,726282298000,-1.61,19.57,-1.42,1
23,726332378000,3.76,19.57,-6.28,1
23,726382335000,-3.83,9.7,-10.0,1
23,726432323000,7.93,-11.8,-8.31,1
23,726482341000,-0.08,-6.7,-12.07,1
23,726532359000,2.56,15.36,16.36,1
23,726582378000,4.33,10.27,-9.15,1
23,726632365000,-6.24,4.82,-6.47,1
23,726682353000,3.87,16.21,-4.56,1
23,726732310000,-7.7,19.53,2.41,1
23,726782329000,6.09,10.42,4.56,1
23,726832316000,-16.59,7.97,15.6,1
23,726882335000,-7.65,3.02,7.67,1
23,726932323000,-8.5,14.1,-7.27,1
23,726982341000,3.21,19.57,-1.23,1
23,727032298000,1.73,19.57,-6.43,1
23,727082347000,-3.17,9.38,-9.81,1
23,727132335000,7.25,-13.57,-9.23,1
23,727182323000,-1.61,-4.67,-10.15,1
23,727232341000,0.42,15.89,17.01,1
23,727282329000,7.59,9.34,-10.38,1
23,727332347000,-5.98,2.83,-9.53,1
23,727382335000,2.87,19.0,-6.63,1
23,727432323000,-6.28,19.27,3.99,1
23,727482341000,5.05,11.96,5.9,1
23,727532329000,-17.2,6.47,15.83,1
23,727582347000,-3.17,3.64,6.89,1
23,727632335000,-11.14,13.91,-7.27,1
23,727682323000,1.61,19.57,-1.23,1
23,727732555000,1.54,19.57,-8.35,1
23,727782329000,-2.91,6.21,-9.15,1
23,727832316000,7.89,-11.6,-8.54,1
23,727882335000,0.27,-5.79,-10.23,1
23,727932323000,2.76,16.59,16.97,1
23,727992351000,6.44,2.98,-12.07,1
23,728042277000,0.15,5.79,-8.88,1
23,728092357000,0.23,18.31,-9.92,1
23,728142314000,-6.74,19.53,6.17,1
23,728192302000,4.48,12.72,8.89,1
23,728242290000,-17.67,5.67,16.74,1
23,728292308000,-3.57,3.72,4.21,1
23,728342296000,-11.41,13.44,-8.85,1
23,728392314000,2.98,19.57,0.42,1
23,728442271000,-2.07,19.57,-11.37,1
23,728492290000,1.42,4.75,-12.87,1
23,728542308000,6.17,-13.48,-10.19,1
23,728592296000,1.27,-5.86,-7.16,1
23,728642314000,-0.19,16.47,15.85,1
23,728692363000,6.09,6.89,-12.64,1
23,728742351000,3.34,5.9,-12.22,1
23,728792308000,-0.15,19.15,-10.34,1
23,728842296000,0.76,18.66,6.85,1
23,728892314000,-2.79,11.54,10.12,1
23,728892314000,-2.79,11.54,10.12,1
23,728952434000,-16.17,6.51,15.66,1
23,729003062000,-0.57,3.34,-0.19,1
23,729052653000,-10.04,16.17,-3.06,1
23,729112315000,4.33,19.57,-3.49,1
23,729162273000,-5.71,15.55,-11.54,1
23,729212260000,8.77,-7.82,-9.77,1
23,729272288000,1.8,-11.3,-12.07,1
23,729322337000,4.79,9.11,6.85,1
23,729372325000,-3.49,19.23,6.82,1
23,729422343000,6.51,-10.8,-12.26,1
23,729472331000,6.21,13.63,-9.19,1
23,729522319000,-13.44,19.27,2.34,1
23,729572337000,6.02,13.99,4.02,1
23,729622325000,-14.33,6.47,16.93,1
23,729672374000,-8.62,3.6,8.05,1
23,729722331000,-3.76,12.79,-5.24,1
23,729772319000,-2.18,19.57,-0.53,1
23,729822307000,1.99,19.57,-6.82,1
23,729872325000,-5.01,6.85,-11.14,1
23,729922343000,10.08,-13.67,-9.28,1
23,729982341000,1.38,-6.74,-10.92,1
23,730032298000,-1.88,15.21,12.57,1
23,730082347000,2.15,15.94,-6.47,1
23,730132274000,3.41,0.69,-10.15,1
23,730182323000,0.34,15.89,-11.75,1
23,730232280000,-11.54,19.42,4.44,1
23,730282329000,2.87,12.72,7.21,1
23,730332347000,-16.7,4.14,14.18,1
23,730382335000,-6.97,4.56,5.94,1
23,730432323000,-1.88,16.74,-3.87,1
23,730482371000,1.27,19.57,-2.11,1
23,730532329000,-0.65,19.27,-8.85,1
23,730582378000,-1.12,-1.73,-9.38,1
23,730632365000,8.2,-15.13,-11.18,1
23,730682323000,0.53,0.8,-4.44,1
23,730732310000,-6.21,17.27,16.66,1
23,730782329000,9.7,5.63,-9.08,1
23,730832347000,0.69,12.76,-9.11,1
23,730882335000,-2.37,17.2,-12.56,1
23,730932353000,-6.4,18.54,6.09,1
23,730982341000,-0.04,12.22,10.5,1
23,731032329000,-19.38,2.49,13.02,1
23,731082347000,-3.11,6.97,0.69,1
23,731132335000,-1.88,19.27,-1.42,1
23,731182292000,1.54,19.57,-2.87,1
23,731232310000,-2.98,16.82,-8.92,1
23,731282420000,3.3,-5.37,-9.28,1
23,731333537000,4.4,-12.56,-11.07,1
23,731392284000,1.65,3.64,2.34,1
23,731442332000,-1.38,17.92,6.93,1
23,731492290000,-2.91,9.7,-13.95,1
23,731542399000,9.0,6.74,-4.56,1
23,731592296000,-11.5,19.57,-5.75,1
23,731642314000,4.33,15.02,2.11,1
23,731692363000,-9.7,9.04,13.72,1
23,731742259000,-16.66,1.84,9.11,1
23,731792216000,-1.69,8.62,-2.45,1
23,731842357000,-1.18,19.57,-1.33,1
23,731892284000,4.14,19.57,-4.14,1
23,731942302000,-6.89,13.4,-10.46,1
23,731992290000,8.31,-11.54,-9.66,1
23,732042308000,0.99,-8.96,-12.26,1
23,732092296000,2.26,10.92,11.73,1
23,732142314000,1.8,18.28,-2.03,1
23,732192302000,-0.89,2.56,-10.84,1
23,732242290000,3.87,13.4,-6.43,1
23,732292308000,-12.11,19.57,1.57,1
23,732342296000,5.6,12.45,3.68,1
23,732392314000,-14.94,6.55,14.6,1
23,732442302000,-8.62,2.53,7.46,1
23,732492290000,-2.41,11.54,-3.98,1
23,732542338000,-0.53,19.57,-0.27,1
23,732592265000,4.18,19.57,-8.01,1
23,732642314000,-4.86,7.86,-8.77,1
23,732692302000,8.08,-12.64,-8.96,1
23,732742320000,1.18,-6.74,-8.47,1
23,732792308000,0.11,13.57,12.37,1
23,732792308000,0.11,13.57,12.37,1
23,732792308000,0.11,13.57,12.37,1
23,732902629000,-2.83,9.53,-3.95,1
23,732952586000,-0.23,15.24,-12.49,1
23,733002238000,-12.79,19.57,4.29,1
23,733072368000,0.84,11.75,8.05,1
23,733122264000,-16.93,3.11,13.14,1
23,733172343000,-5.37,3.64,2.83,1
23,733222331000,-7.59,14.25,-7.16,1
23,733272319000,1.76,19.57,1.18,1
23,733322307000,0.0,19.57,-11.84,1
23,733372325000,2.64,-0.72,-11.03,1
23,733422343000,5.56,-15.66,-10.92,1
23,733472331000,0.46,-1.38,-3.57,1
23,733522349000,-1.53,16.66,13.4,1
23,733572337000,4.37,16.25,-8.2,1
23,733632396000,6.21,-3.91,-10.53,1
23,733682201000,-3.6,19.31,-13.59,1
23,733732402000,-3.45,18.01,5.01,1
23,733792277000,-6.74,8.81,11.11,1
23,733842296000,-16.09,4.37,12.18,1
23,733892314000,0.11,5.94,-0.11,1
23,733942302000,-6.59,16.51,-3.34,1
23,733992259000,3.95,19.57,-1.73,1
23,734042308000,-5.43,16.82,-11.26,1
23,734092296000,6.74,-9.92,-9.66,1
23,734142314000,3.3,-9.89,-9.66,1
23,734192363000,2.87,0.65,0.57,1
23,734242290000,-1.5,18.89,12.49,1
23,734292308000,4.14,0.69,-16.89,1
23,734342326000,2.56,5.33,-7.97,1
23,734392314000,-10.5,19.57,-8.47,1
23,734442302000,5.71,13.8,4.25,1
23,734492290000,-8.54,8.5,13.06,1
23,734542308000,-13.48,2.72,9.81,1
23,734592296000,-4.63,5.37,-0.46,1
23,734642314000,-6.13,16.86,-3.91,1
23,734692332000,6.74,19.57,-0.57,1
23,734742290000,-6.02,17.01,-9.58,1
23,734792308000,7.4,-11.6,-9.77,1
23,734842296000,1.08,-6.66,-10.92,1
23,734892314000,4.44,-5.94,-8.35,1
23,734942302000,-0.15,12.3,1.95,1
23,734992290000,-1.38,14.14,0.89,1
23,735042308000,3.38,15.13,-2.56,1
23,735092326000,-0.42,10.23,-14.44,1
23,735142345000,-2.22,18.85,7.35,1
23,735192302000,-1.61,9.43,10.95,1
23,735192302000,-1.61,9.43,10.95,1
23,735252330000,-17.31,6.47,16.55,1
23,735302440000,-3.11,6.85,-2.07,1
23,735353068000,-7.46,19.42,-3.64,1
23,735402690000,2.3,19.57,-4.21,1
23,735452342000,-6.13,13.57,-11.26,1
23,735502818000,9.53,-10.57,-11.18,1
23,735552440000,2.22,-10.69,-12.95,1
23,735603068000,5.28,8.73,7.82,1
23,735654185000,-4.56,12.07,1.61,1
23,735712291000,7.67,14.1,-4.52,1
23,735772288000,1.08,7.97,-6.43,1
23,735822307000,-2.83,18.31,8.16,1
23,735872294000,-0.72,9.3,7.7,1
23,735922313000,-18.07,6.36,16.17,1
23,735972331000,-0.84,4.21,4.02,1
23,736022319000,-11.99,16.04,-4.99,1
23,736072337000,-0.08,19.57,-1.33,1
23,736122325000,-2.45,19.53,-10.99,1
23,736172313000,3.79,0.08,-12.22,1
23,736222331000,6.44,-18.24,-11.95,1
23,736272319000,2.22,0.19,-4.25,1
23,736322337000,-3.87,17.97,16.13,1
23,736372386000,8.2,11.3,-7.16,1
23,736422343000,2.68,0.08,-10.53,1
23,736472331000,-3.45,18.96,-13.63,1
23,736522319000,0.08,17.77,6.78,1
23,736572337000,-0.76,11.88,11.69,1
23,736622325000,-18.58,4.63,15.66,1
23,736672343000,-0.95,5.37,2.83,1
23,736722331000,-7.78,17.39,-3.17,1
23,736782298000,1.12,19.57,-1.23,1
23,736832286000,-3.83,16.51,-11.37,1
23,736882335000,6.82,-7.44,-10.34,1
23,736932353000,3.21,-13.06,-12.18,1
23,736982341000,4.18,3.45,2.26,1
23,737032329000,-5.9,18.54,11.92,1
23,737082347000,7.27,10.8,-4.4,1
23,737132335000,4.75,5.18,-6.28,1
23,737182323000,-10.19,19.53,-11.41,1
23,737232341000,5.43,15.79,2.87,1
23,737282329000,-6.7,10.27,13.18,1
23,737332347000,-15.47,2.26,12.07,1
23,737382335000,-2.11,8.43,-1.53,1
23,737432323000,-1.5,19.46,-2.14,1
23,737482341000,3.87,19.57,-2.49,1
23,737532329000,-2.3,16.09,-10.99,1
23,737582408000,5.28,-11.6,-9.19,1
23,737632335000,3.72,-11.3,-11.54,1
23,737682323000,1.33,4.52,1.14,1
23,737732341000,-4.02,19.19,14.48,1
23,737782329000,1.31,9.19,-11.69,1
23,737832378000,10.73,5.05,-6.24,1
23,737882335000,-5.75,19.53,-13.82,1
23,737932323000,-3.3,16.86,3.53,1
23,737982341000,-4.48,10.5,11.26,1
23,738032329000,-18.28,2.3,10.95,1
23,738082347000,-0.65,7.35,0.89,1
23,738132335000,-3.49,17.47,-2.45,1
23,738182323000,2.91,19.57,-2.14,1
23,738232371000,-7.08,16.74,-12.15,1
23,738282329000,6.28,-10.65,-9.89,1
23,738332347000,3.15,-10.72,-11.65,1
23,738383891000,2.6,3.57,2.6,1
23,738442241000,-2.68,19.53,6.59,1
23,738492320000,10.88,-15.21,-4.44,1
23,738542308000,6.36,17.69,-14.94,1
23,738592296000,-18.07,19.0,6.74,1
23,738642314000,11.07,8.28,5.18,1
23,738692302000,-15.47,8.69,18.16,1
23,738742290000,-9.34,2.6,4.67,1
23,738742290000,-9.34,2.6,4.67,1
23,738802806000,-4.25,14.44,-6.82,1
23,738852275000,-2.22,19.57,-0.53,1
23,738902354000,-2.96,19.46,-10.42,1
23,738953166000,1.92,-2.26,-11.18,1
23,739012279000,4.99,-12.37,-11.45,1
23,739072307000,2.37,2.11,0.61,1
23,739122325000,-1.23,17.77,6.59,1
23,739182292000,-3.72,4.33,-7.31,1
23,739232280000,3.99,14.63,-3.17,1
23,739282329000,-12.22,19.57,0.27,1
23,739332347000,7.93,12.03,15.7,1
23,739392345000,-16.36,6.74,15.7,1
23,739442241000,-6.66,2.22,5.94,1
23,739492320000,-4.29,14.18,-4.18,1
23,739542247000,-0.99,19.57,0.23,1
23,739592265000,1.95,19.57,-10.23,1
23,739642314000,0.15,1.08,-11.5,1
23,739692302000,7.01,-15.7,-10.23,1
23,739742290000,0.53,-2.49,-7.21,1
23,739792338000,-0.95,18.73,18.62,1
23,739842296000,6.44,7.08,-11.69,1
23,739892314000,1.31,7.46,-9.38,1
23,739942302000,-0.3,17.77,-10.57,1
23,739992290000,-9.47,18.85,7.21,1
23,740042308000,2.64,8.85,9.28,1
23,740092296000,-18.54,5.75,15.28,1
23,740142314000,-3.6,4.99,2.49,1
23,740194408000,-3.76,15.55,-4.14,1
23,740194408000,-3.76,15.55,-4.14,1
23,740252788000,1.46,19.57,-1.18,1
23,740302440000,-3.02,16.25,-12.76,1
23,740353129000,4.79,-9.53,-9.92,1
23,740402721000,3.95,-12.83,-14.1,1
23,740462260000,2.26,6.85,3.87,1
23,740522288000,-6.78,15.4,5.86,1
23,740572307000,-1.99,4.33,-6.28,1
23,740622295000,7.86,13.44,-2.53,1
23,740672313000,-14.37,19.57,0.08,1
23,740722331000,7.5,14.6,3.15,1
23,740772319000,-12.15,8.89,15.75,1
23,740822368000,-10.42,3.38,9.96,1
23,740872325000,-2.53,9.3,-3.83,1
23,740922313000,-2.53,19.57,-0.3,1
23,740972301000,1.46,19.57,-5.67,1
23,741022319000,-2.6,11.26,-10.61,1
23,741072337000,8.08,-11.41,-8.31,1
23,741122356000,2.53,-8.66,-12.22,1
23,741172343000,2.3,10.08,9.15,1
23,741222331000,-2.91,19.57,5.22,1
23,741272319000,-0.34,-0.76,-14.6,1
23,741322337000,7.7,11.11,-4.37,1
23,741372294000,-13.38,19.57,-2.07,1
23,741422343000,6.97,15.05,2.34,1
23,741472331000,-10.11,9.08,14.41,1
23,741522319000,-13.25,1.57,9.0,1
23,741572337000,-2.72,8.28,-2.75,1
23,741622325000,-2.03,19.46,-1.69,1
23,741672343000,1.23,19.57,-2.75,1
23,741722331000,-1.99,14.52,-8.66,1
23,741772319000,5.01,-7.04,-7.82,1
23,741822337000,3.15,-11.56,-10.99,1
23,741872356000,2.15,5.75,2.34,1
23,741922374000,-9.53,17.31,10.84,1
23,741972331000,6.89,9.11,-4.4,1
23,742022319000,3.91,7.82,-2.96,1
23,742072337000,-7.04,19.57,-11.69,1
23,742122325000,3.53,16.97,2.68,1
23,742172343000,-2.41,9.72,9.62,1
23,742222331000,-18.39,3.45,14.02,1
23,742272319000,-3.95,5.6,0.23,1
23,742322337000,-4.48,16.78,-2.96,1
23,742372294000,1.23,19.57,-1.53,1
23,742422343000,-0.76,17.35,-9.81,1
23,742472331000,2.26,-3.68,-8.47,1
23,742522319000,6.93,-14.18,-10.27,1
23,742582316000,1.99,5.98,1.46,1
23,742632304000,-6.17,19.57,8.01,1
23,742682292000,10.53,-9.15,-12.87,1
23,742732280000,8.24,13.29,-8.88,1
23,742782298000,-15.66,19.57,-2.07,1
23,742832347000,8.35,14.86,1.42,1
23,742882335000,-7.55,10.57,15.43,1
23,742932323000,-14.86,2.87,11.22,1
23,742982341000,-4.14,5.98,-1.76,1
23,743032359000,-2.64,19.27,-2.37,1
23,743082378000,4.67,19.57,-2.75,1
23,743132335000,-4.14,16.02,-11.99,1
23,743182323000,6.44,-12.07,-10.04,1
23,743232341000,2.22,-10.31,-12.45,1
23,743282329000,3.15,5.22,5.18,1
23,743332378000,-4.25,19.53,12.79,1
23,743382396000,6.28,-8.35,-13.59,1
23,743432323000,10.27,6.97,-8.31,1
23,743482341000,-14.25,19.57,-1.14,1
23,743532329000,6.4,14.21,1.42,1
23,743582347000,-11.65,7.93,13.91,1
23,743632335000,-14.06,1.8,10.76,1
23,743682323000,-3.45,12.53,-6.05,1
23,743732341000,0.53,19.57,0.08,1
23,743782298000,-0.8,19.57,-3.36,1
23,743832316000,-5.37,12.22,-12.34,1
23,743882304000,8.92,-12.49,-9.0,1
23,743932292000,0.34,-9.66,-12.11,1
23,743982341000,2.34,8.05,8.77,1
23,744032329000,-2.22,14.52,2.15,1
23,744082347000,-4.48,10.27,-6.82,1
23,744142314000,6.32,10.04,-2.49,1
23,744192302000,-11.03,19.57,1.57,1
23,744242290000,5.18,12.22,4.1,1
23,744292308000,-16.32,7.06,17.05,1
23,744342296000,-7.89,2.87,6.82,1
23,744392314000,-1.46,12.22,-3.72,1
23,744392314000,-1.46,12.22,-3.72,1
23,744462291000,-2.64,19.57,-1.27,1
23,744512309000,-2.53,18.89,-11.88,1
23,744562297000,2.41,-5.94,-10.34,1
23,744612285000,5.94,-13.48,-11.84,1
23,744672313000,1.69,3.91,0.04,1
23,744722301000,-3.41,19.53,7.7,1
23,744772258000,1.33,0.93,-14.9,1
23,744822337000,6.17,12.83,-3.76,1
23,744872325000,-12.76,19.57,-5.2,1
23,744922343000,6.97,14.79,2.26,1
23,744972331000,-11.69,8.92,15.28,1
23,745022319000,-12.49,2.22,10.23,1
23,745072337000,-3.02,7.16,-1.88,1
23,745122325000,-3.72,19.53,-2.49,1
23,745172343000,3.21,19.57,-3.36,1
23,745222331000,-5.28,15.32,-11.14,1
23,745282359000,8.5,-12.03,-9.66,1
23,745332378000,0.53,-6.36,-11.65,1
23,745382335000,0.61,12.53,14.21,1
23,745432323000,-2.07,16.78,-3.11,1
23,745482341000,10.76,-13.95,-4.18,1
23,745532329000,4.86,18.43,-14.71,1
23,745582378000,-16.13,19.46,2.76,1
23,745632365000,7.08,14.18,8.62,1
23,745682323000,-17.16,6.17,17.97,1
23,745742229000,-5.79,4.4,5.71,1
23,745792308000,-1.5,18.35,-1.84,1
23,745842296000,-3.49,19.57,-0.53,1
23,745892314000,-5.13,18.43,-12.68,1
23,745942302000,6.44,-8.16,-11.65,1
23,745992290000,2.98,-12.6,-11.45,1
23,746042308000,3.91,0.27,1.33,1
23,746092296000,-3.45,17.01,12.76,1
23,746142345000,1.69,8.05,-16.36,1
23,746192302000,6.24,2.45,-5.98,1
23,746242351000,-6.7,19.57,-10.8,1
23,746292308000,-0.84,16.44,2.41,1
23,746342296000,-4.02,9.96,9.81,1
23,746392345000,-18.81,4.6,14.02,1
23,746442302000,-0.91,7.16,-0.84,1
23,746492290000,-1.46,18.96,-0.08,1
23,746542308000,1.04,19.57,-2.26,1
23,746592296000,-4.48,15.64,-11.69,1
23,746642314000,5.63,-9.66,-9.38,1
23,746692332000,4.14,-11.41,-12.11,1
23,746692332000,4.14,-11.41,-12.11,1
23,746752360000,3.53,7.63,6.02,1
23,746803050000,-1.08,19.04,2.22,1
23,746852672000,5.22,-5.94,-13.38,1
23,746902354000,4.44,15.83,-8.24,1
23,746952922000,-14.29,19.57,0.95,1
23,747002513000,-13.29,6.97,16.25,1
23,747070384000,-13.29,6.97,16.25,1
23,747122264000,-7.65,5.43,3.91,1
23,747172252000,-2.14,16.4,-4.59,1
23,747222362000,-0.04,19.57,-1.31,1
23,747272349000,-1.76,19.5,-10.38,1
23,747322337000,2.37,-3.83,-10.76,1
23,747372325000,5.75,-13.57,-11.22,1
23,747422374000,1.76,1.12,-2.53,1
23,747472331000,-2.26,18.62,16.93,1
23,747522319000,1.99,2.56,-19.42,1
23,747572337000,4.75,-2.26,-5.63,1
23,747622325000,-7.01,19.57,-9.08,1
23,747672343000,0.31,16.17,0.72,1
23,747722331000,-4.94,10.38,11.65,1
23,747772319000,-16.32,3.76,14.52,1
23,747822337000,-4.02,5.22,-1.27,1
23,747872325000,-3.36,18.43,-1.61,1
23,747922343000,1.95,19.57,-2.3,1
23,747972331000,-1.5,17.27,-10.8,1
23,748022319000,2.07,-6.32,-9.43,1
23,748072337000,5.71,-13.78,-12.41,1
23,748122325000,2.11,5.86,2.34,1
23,748172343000,-4.67,19.53,18.2,1
23,748222331000,3.99,-2.45,-18.58,1
23,748272319000,9.58,0.27,-4.44,1
23,748322337000,-12.83,19.57,-3.02,1
23,748372294000,2.18,16.02,-0.19,1
23,748422343000,-4.48,9.77,10.65,1
23,748472331000,-18.2,3.79,14.6,1
23,748522319000,-2.49,8.24,-0.99,1
23,748572337000,-1.99,18.92,-2.79,1
23,748622325000,3.3,19.57,-1.42,1
23,748672343000,-5.05,15.64,-10.69,1
23,748722331000,5.56,-9.66,-9.7,1
23,748722331000,5.56,-9.66,-9.7,1
23,748843883000,-1.18,0.19,-6.28,1
23,748892345000,1.99,18.73,-0.76,1
23,748942180000,1.18,-3.68,-14.67,1
23,748992259000,2.68,14.94,-9.19,1
23,749042308000,-13.25,19.57,2.64,1
23,749092296000,7.7,10.99,5.52,1
23,749142314000,-17.12,5.6,17.16,1
23,749192302000,-7.97,3.38,6.32,1
23,749242290000,-2.64,11.65,-4.63,1
23,749292308000,-2.22,19.57,0.84,1
23,749342265000,3.02,19.57,-6.47,1
23,749392314000,-4.14,8.66,-10.46,1
23,749442332000,6.47,-14.02,-9.3,1
23,749492351000,0.93,-5.09,-9.89,1
23,749542308000,0.31,12.26,10.5,1
23,749592326000,2.79,14.75,-2.34,1
23,749642314000,-2.37,5.28,-6.43,1
23,749692363000,4.02,13.44,-8.27,1
23,749742290000,-12.34,19.57,2.3,1
23,749792338000,6.78,13.72,5.9,1
23,749842296000,-15.75,5.63,17.08,1
23,749892314000,-11.14,2.64,5.48,1
23,749942302000,-0.91,11.69,-4.1,1
23,749992259000,-2.3,19.57,-0.27,1
23,750042277000,3.91,19.57,-7.46,1
23,750092296000,-4.44,6.7,-11.37,1
23,750142345000,7.93,-13.67,-9.72,1
23,750142345000,7.93,-13.67,-9.72,1
23,750202861000,1.8,-6.82,-10.5,1
23,750252452000,-2.18,15.64,15.85,1
23,750303111000,-3.91,13.25,-8.2,1
23,750352702000,13.06,-12.37,-2.6,1
23,750412273000,-0.15,19.34,-17.16,1
23,750472331000,-3.83,16.86,1.84,1
23,750522288000,-8.2,10.04,13.57,1
23,750572276000,-16.51,2.6,11.37,1
23,750622295000,-1.53,6.28,-1.8,1
23,750672343000,-3.06,19.42,-1.46,1
23,750722331000,2.3,19.57,-1.92,1
23,750772319000,-6.4,16.13,-14.02,1
23,750822337000,6.85,-13.02,-10.61,1
23,750882304000,1.88,-10.19,-15.05,1
23,750942302000,1.84,12.45,14.67,1
23,750992259000,0.99,14.29,-4.75,1
23,751042308000,5.01,-5.18,-9.49,1
23,751092296000,0.95,17.43,-13.48,1
23,751142314000,-11.54,19.53,4.79,1
23,751192302000,5.86,12.11,9.7,1
23,751242381000,-18.89,5.6,16.82,1
23,751292308000,-7.27,3.49,3.68,1
23,751342296000,-0.8,11.54,-2.53,1
23,751392314000,-4.1,19.57,-0.08,1
23,751442271000,2.6,19.57,-9.62,1
23,751492290000,-1.27,2.64,-10.57,1
23,751542308000,6.47,-13.1,-9.11,1
23,751592296000,2.07,-2.41,-9.0,1
23,751642314000,-2.11,16.97,16.97,1
23,751692332000,1.8,11.41,-12.15,1
23,751742320000,4.63,-3.64,-6.05,1
23,751792308000,1.18,19.53,-13.78,1
23,751842296000,-11.03,19.31,5.22,1
23,751892314000,3.53,11.65,8.62,1
23,751942302000,-18.54,4.1,16.44,1
23,751992259000,-5.48,3.99,4.18,1
23,752042308000,-3.79,13.33,-3.79,1
23,752092296000,-2.49,19.57,0.38,1
23,752092296000,-2.49,19.57,0.38,1
23,752152812000,-1.31,19.57,-9.19,1
23,752202525000,2.45,-2.18,-9.47,1
23,752253184000,6.55,-16.17,-9.38,1
23,752312297000,1.57,2.53,-0.38,1
23,752372264000,-5.75,18.39,14.41,1
23,752422252000,-1.69,2.68,-12.98,1
23,752472301000,8.35,11.14,-2.98,1
23,752522288000,-11.33,19.57,-8.35,1
23,752572307000,6.4,16.63,2.76,1
23,752622295000,-10.57,7.59,14.52,1
23,752672313000,-13.17,3.11,11.65,1
23,752722270000,-3.02,7.25,-1.65,1
23,752772319000,-3.26,19.34,-0.46,1
23,752822337000,0.46,19.57,-4.4,1
23,752872294000,-3.06,12.57,-12.07,1
23,752922343000,7.25,-12.45,-9.47,1
23,752972270000,2.83,-9.96,-13.4,1
23,753022441000,3.83,9.51,8.28,1
23,753072337000,-2.22,18.58,4.18,1
23,753122325000,1.84,-2.26,-13.67,1
23,753172343000,6.63,15.36,-6.09,1
23,753222331000,-14.29,19.57,-0.19,1
23,753272319000,8.08,13.57,5.6,1
23,753322337000,-16.63,6.02,16.89,1
23,753372294000,-10.0,1.61,6.47,1
23,753422343000,-1.12,11.22,-3.41,1
23,753472331000,-3.76,19.57,-1.04,1
23,753522288000,4.82,19.57,-6.59,1
23,753572337000,-6.85,8.01,-12.3,1
23,753622356000,9.81,-15.75,-10.76,1
23,753672343000,0.42,-4.4,-11.3,1
23,753722331000,-0.42,13.67,16.25,1
23,753772349000,3.02,14.52,-6.43,1
23,753822307000,-0.53,3.17,-8.73,1
23,753872294000,5.43,16.44,-8.35,1
23,753922252000,-14.44,19.53,4.4,1
23,753972331000,6.05,11.11,6.63,1
23,754022349000,-18.05,6.36,17.69,1
23,754072337000,-7.7,3.76,6.13,1
23,754122325000,-2.03,11.88,-4.44,1
23,754172374000,-2.22,19.57,0.15,1
23,754222301000,1.84,19.57,-8.96,1
23,754272319000,-2.14,3.76,-11.33,1
23,754322368000,6.74,-14.37,-9.62,1
23,754372325000,0.95,-4.29,-10.11,1
23,754422343000,0.5,14.82,13.82,1
23,754472331000,0.42,14.9,-4.71,1
23,754522319000,5.94,-4.82,-10.72,1
23,754582316000,1.95,18.01,-12.45,1
23,754632304000,-5.94,18.24,5.63,1
23,754682292000,-1.61,10.5,10.76,1
23,754742290000,-16.93,4.18,14.71,1
23,754792277000,-2.49,6.85,-1.65,1
23,754842326000,-3.57,19.0,-1.73,1
23,754892284000,1.12,19.57,-2.26,1
23,754942302000,-2.72,16.32,-12.64,1
23,754992290000,6.17,-13.1,-9.66,1
23,755042308000,3.02,-9.34,-13.67,1
23,755092326000,3.15,7.35,5.83,1
23,755144633000,-6.02,19.04,6.09,1
23,755144633000,-6.02,19.04,6.09,1
23,755202617000,4.18,-0.15,-13.33,1
23,755252299000,1.57,16.97,-8.12,1
23,755302867000,-12.79,19.46,2.15,1
23,755352519000,5.67,10.88,6.66,1
23,755402324000,-17.58,6.85,17.24,1
23,755452647000,-6.21,4.6,6.55,1
23,755502330000,-2.45,11.41,-4.33,1
23,755552836000,-3.45,19.57,0.42,1
23,755602458000,3.41,19.57,-10.95,1
23,755653117000,-0.84,0.27,-10.61,1
23,755712291000,5.33,-12.83,-9.96,1
23,755772349000,1.54,1.92,-3.76,1
23,755822337000,-6.24,19.57,13.33,1
23,755872294000,9.72,-10.92,-10.53,1
23,755922343000,6.85,9.15,-11.33,1
23,755972331000,-15.6,19.57,-0.5,1
23,756022319000,8.2,15.55,1.84,1
23,756072337000,-7.08,8.81,12.53,1
23,756122325000,-16.82,1.65,12.57,1
23,756172343000,-3.06,6.13,-0.65,1
23,756222331000,-3.83,17.35,-2.98,1
23,756272197000,6.05,19.57,-2.98,1
23,756322307000,-5.9,17.08,-13.02,1
23,756372356000,6.63,-10.15,-9.89,1
23,756422343000,2.72,-10.72,-12.03,1
23,756472362000,0.31,5.37,6.51,1
23,756522319000,-1.23,19.53,9.53,1
23,756572337000,3.21,8.05,-12.26,1
23,756622325000,6.44,7.82,-5.94,1
23,756672343000,-14.75,19.57,-2.26,1
23,756722331000,6.7,14.56,1.04,1
23,756772380000,-9.04,9.62,14.25,1
23,756822337000,-15.66,1.27,8.92,1
23,756872294000,1.38,7.59,-0.95,1
23,756922343000,-3.11,19.46,-1.84,1
23,756972331000,5.94,19.57,-3.98,1
23,757022319000,-7.74,14.06,-12.15,1
23,757072337000,6.63,-13.82,-9.89,1
23,757122325000,1.73,-9.04,-10.46,1
23,757172343000,2.45,6.47,6.63,1
23,757222331000,-9.28,19.11,3.72,1
23,757272319000,14.82,-15.51,-3.83,1
23,757322337000,7.59,12.83,-16.7,1
23,757372325000,-19.11,19.5,6.4,1
23,757422343000,9.0,13.06,4.56,1
23,757472331000,-13.1,5.63,14.33,1
23,757522319000,-12.95,2.56,8.62,1
23,757572337000,-1.73,9.66,-3.26,1
23,757622325000,-0.34,19.57,0.84,1
23,757672313000,2.64,19.57,-6.17,1
23,757722331000,-6.85,9.62,-12.18,1
23,757772319000,7.63,-15.28,-10.61,1
23,757822337000,2.26,-6.02,-10.88,1
23,757872294000,-0.84,9.81,9.72,1
23,757922343000,1.31,10.38,-1.69,1
23,757972331000,-2.41,12.53,-4.9,1
23,758022319000,7.08,11.3,-0.34,1
23,758072337000,-14.06,19.57,-0.95,1
23,758122356000,8.66,12.34,3.15,1
23,758172374000,-16.24,6.21,14.6,1
23,758222331000,-9.85,3.91,8.01,1
23,758272288000,2.07,9.04,-2.26,1
23,758322337000,-7.01,19.57,-1.42,1
23,758372294000,3.83,19.57,-9.0,1
23,758422343000,-3.83,3.91,-11.56,1
23,758482310000,6.85,-13.76,-10.76,1
23,758532298000,1.69,-0.84,-4.9,1
23,758582347000,-4.21,17.67,17.73,1
23,758632335000,7.4,4.6,-8.47,1
23,758682353000,0.5,6.85,-6.74,1
23,758732341000,-1.69,19.53,-13.63,1
23,758782329000,-5.56,18.66,4.94,1
23,758832347000,0.31,12.11,10.5,1
23,758882335000,-18.77,1.99,14.6,1
23,758932323000,-7.01,5.94,1.5,1
23,758982341000,1.65,19.11,-0.69,1
23,759032329000,-4.71,19.57,-0.15,1
23,759082347000,0.84,17.86,-9.72,1
23,759132335000,1.12,-4.59,-10.92,1
23,759192241000,4.18,-14.14,-12.15,1
23,759242290000,2.79,4.63,3.91,1
23,759292308000,-1.46,19.53,14.94,1
23,759342296000,7.63,-9.38,-12.45,1
23,759392314000,10.31,7.5,-11.14,1
23,759442332000,-17.46,19.57,2.87,1
23,759492290000,6.55,14.02,2.03,1
23,759542369000,-10.46,7.5,14.6,1
23,759592296000,-14.82,2.53,10.23,1
23,759642314000,0.04,6.7,-0.72,1
23,759692332000,-8.05,18.89,-3.76,1
23,759742259000,5.18,19.57,-3.76,1
23,759742259000,5.18,19.57,-3.76,1
23,759812266000,-6.13,8.43,-14.37,1
23,759862285000,7.25,-14.33,-12.22,1
23,759912303000,2.15,-2.07,-7.04,1
23,759972301000,-2.26,17.08,17.92,1
23,760022258000,-0.57,3.95,-16.44,1
23,760072307000,8.31,4.37,-2.75,1
23,760122295000,-10.23,19.57,-11.5,1
23,760172313000,5.67,15.09,4.4,1
23,760222301000,-12.22,8.62,16.25,1
23,760272258000,-12.45,1.88,9.96,1
23,760322276000,-0.34,5.37,-0.89,1
23,760372264000,-8.47,18.5,-3.17,1
23,760422343000,3.64,19.57,-2.22,1
23,760472331000,-5.52,15.7,-13.29,1
23,760522349000,6.85,-11.33,-9.43,1
23,760572337000,2.98,-11.18,-14.14,1
23,760622325000,4.4,5.98,4.48,1
23,760672343000,-6.78,19.38,11.96,1
23,760722301000,-0.8,2.15,-14.86,1
23,760772288000,10.15,7.67,-0.72,1
23,760822368000,-12.03,19.57,-5.33,1
23,760872294000,5.37,14.02,0.89,1
23,760922343000,-9.47,8.35,12.6,1
23,760972331000,-14.25,3.17,12.07,1
23,761022319000,-7.59,8.2,-3.26,1
23,761072337000,1.99,19.57,-1.57,1
23,761122294000,4.21,19.57,-3.36,1
23,761172343000,-5.37,13.76,-11.65,1
23,761232341000,8.16,-15.4,-10.15,1
23,761282329000,-1.04,-7.4,-11.18,1
23,761332347000,1.54,10.65,9.08,1
23,761382304000,-1.42,18.66,2.83,1
23,761432353000,5.28,-10.19,-16.78,1
23,761482371000,4.1,15.09,-10.46,1
23,761532329000,-12.76,19.57,3.26,1
23,761582347000,4.82,12.72,5.86,1
23,761632335000,-17.08,5.24,15.6,1
23,761682323000,-5.09,4.9,8.01,1
23,761732341000,-1.08,16.63,-4.9,1
23,761782359000,-3.98,19.57,0.31,1
23,761832347000,-1.84,19.53,-8.12,1
23,761882304000,-1.88,2.45,-11.41,1
23,761932323000,6.17,-14.14,-10.5,1
23,761982402000,1.84,-4.18,-10.42,1
23,762032359000,-0.72,13.76,12.83,1
23,762084117000,5.41,11.65,-9.38,1
23,762142284000,-6.09,8.66,-9.62,1
23,762192363000,-0.99,18.16,-12.83,1
23,762242320000,-2.34,18.01,6.02,1
23,762292308000,-2.03,10.27,9.19,1
23,762342296000,-16.24,4.33,16.93,1
23,762392314000,-4.71,15.09,-5.09,1
23,762442332000,-5.94,15.09,-5.09,1
23,762492259000,2.3,19.57,-0.46,1
23,762542216000,-2.11,19.19,-11.88,1
23,762592326000,2.98,-5.2,-10.84,1
23,762642314000,4.71,-14.29,-12.72,1
23,762692302000,2.18,1.73,-3.41,1
23,762742290000,-3.79,18.81,16.89,1
23,762792308000,3.76,9.47,-11.99,1
23,762842296000,5.24,-0.11,-7.4,1
23,762892314000,-0.8,19.53,-12.45,1
23,762942302000,-7.25,18.77,4.99,1
23,762992290000,0.93,12.22,10.38,1
23,763042308000,-18.62,4.33,15.79,1
23,763092326000,-3.11,4.67,4.02,1
23,763142314000,-4.37,14.14,-4.86,1
23,763192302000,-2.11,19.57,-0.08,1
23,763242290000,-0.04,19.46,-8.85,1
23,763292308000,-1.5,2.49,-10.53,1
23,763342296000,6.97,-12.37,-10.23,1
23,763392345000,0.46,-2.96,-8.66,1
23,763442302000,-0.5,15.4,16.02,1
23,763492290000,5.28,12.79,-8.39,1
23,763542338000,-2.37,0.84,-8.5,1
23,763592296000,4.33,18.12,-8.88,1
23,763642314000,-11.37,19.53,3.49,1
23,763692302000,5.6,12.03,6.63,1
23,763742290000,-17.46,5.98,17.62,1
23,763742290000,-17.46,5.98,17.62,1
23,763842357000,-3.64,10.57,-4.99,1
23,763892222000,-1.95,19.57,0.72,1
23,763942180000,1.38,19.57,-8.39,1
23,763992229000,-1.73,4.71,-10.76,1
23,764044200000,7.46,-12.91,-8.31,1
23,764044200000,7.46,-12.91,-8.31,1
23,764102275000,0.95,-3.45,-9.85,1
23,764152721000,-2.03,17.86,18.43,1
23,764202342000,5.28,9.47,-13.57,1
23,764252879000,3.41,-0.04,-7.12,1
23,764302501000,0.31,19.57,-12.3,1
23,764353099000,-8.2,18.73,5.52,1
23,764402721000,0.53,10.65,9.3,1
23,764452342000,-18.5,5.13,16.7,1
23,764502818000,-4.37,4.67,2.64,1
23,764553020000,-3.68,15.64,-2.91,1
23,764602641000,-2.18,19.57,-0.91,1
23,764652354000,-0.53,19.38,-10.8,1
23,764712413000,1.33,-1.27,-10.61,1
23,764772319000,5.6,-13.91,-11.65,1
23,764822337000,4.82,9.11,5.13,1
23,764872264000,-7.44,17.05,10.57,1
23,764922313000,3.3,2.11,-11.84,1
23,764972331000,8.12,11.22,-2.98,1
23,765022319000,-9.34,19.57,-10.61,1
23,765072337000,4.82,15.17,3.21,1
23,765122325000,-10.61,9.0,15.28,1
23,765172343000,-13.17,3.15,11.14,1
23,765222331000,-0.27,6.55,-2.03,1
23,765282268000,-5.13,19.53,-2.53,1
23,765332347000,4.67,19.57,-6.05,1
23,765382365000,-5.37,9.92,-10.65,1
23,765432323000,7.63,-12.56,-8.88,1
23,765482341000,0.65,-7.27,-10.0,1
23,765532329000,2.3,12.45,11.84,1
23,765582316000,0.31,16.09,-0.99,1
23,765632335000,1.5,-3.02,-10.27,1
23,765682323000,4.71,17.2,-6.97,1
23,765732341000,-10.92,19.5,0.84,1
23,765782298000,6.24,12.15,4.82,1
23,765832347000,-16.51,7.46,17.5,1
23,765882304000,-7.4,3.26,8.08,1
23,765932323000,-2.56,11.84,-5.05,1
23,765982341000,-2.41,19.57,-0.15,1
23,766032329000,1.46,19.57,-9.15,1
23,766082347000,-2.72,3.83,-11.5,1
23,766132396000,6.24,-15.89,-10.92,1
23,766182353000,-0.04,-2.34,-6.97,1
23,766232371000,1.12,17.43,16.51,1
23,766282298000,0.5,7.67,-13.17,1
23,766332347000,6.28,-5.71,-5.86,1
23,766382335000,-4.37,19.57,-10.95,1
23,766432353000,0.69,17.77,4.06,1
23,766482341000,-7.44,9.23,13.4,1
23,766532359000,-16.51,5.43,15.36,1
23,766582347000,-0.5,7.63,-1.46,1
23,766632365000,-4.06,19.27,-3.15,1
23,766682323000,3.91,19.57,-3.98,1
23,766732341000,-7.16,12.03,-13.78,1
23,766782573000,9.72,-14.98,-11.8,1
23,766832896000,0.76,-7.44,-13.99,1
23,766882365000,1.92,8.01,10.19,1
23,766932353000,-2.45,14.71,4.48,1
23,766982341000,-2.37,11.26,-6.74,1
23,767032359000,10.5,10.04,-2.6,1
23,767082378000,-13.25,19.57,-2.41,1
23,767132365000,8.31,11.96,3.26,1
23,767182323000,-16.59,8.96,17.35,1
23,767232402000,-8.5,2.53,7.86,1
23,767282359000,-0.23,9.77,-1.88,1
23,767332286000,-4.86,19.57,-1.38,1
23,767382304000,6.89,19.57,-7.55,1
23,767382304000,6.89,19.57,-7.55,1
23,767482310000,7.67,-13.95,-9.34,1
23,767542247000,-1.5,-3.06,-11.33,1
23,767592296000,-1.76,17.12,18.58,1
23,767642314000,8.28,8.89,-10.34,1
23,767692302000,0.69,4.75,-9.96,1
23,767742290000,-0.15,18.81,-10.46,1
23,767792308000,-7.35,19.04,6.02,1
23,767842296000,2.07,11.5,9.3,1
23,767892314000,-18.28,6.13,16.25,1
23,767942332000,-5.24,3.17,3.91,1
23,767992259000,-4.06,14.25,-4.37,1
23,768042308000,-2.83,19.57,2.11,1
23,768092265000,-0.46,19.57,-9.38,1
23,768142345000,-1.08,1.84,-11.56,1
23,768192302000,6.63,-12.91,-10.27,1
23,768242320000,1.61,-7.01,-10.34,1
23,768292308000,2.49,12.26,10.27,1
23,768342296000,-4.94,13.38,5.18,1
23,768392314000,-2.64,6.02,-8.27,1
23,768392314000,-2.64,6.02,-8.27,1
23,768453075000,11.69,9.15,-1.42,1
23,768512309000,-12.45,19.57,2.18,1
23,768572307000,2.49,15.89,11.8,1
23,768622295000,-17.58,3.11,15.28,1
23,768672282000,-10.72,0.34,1.04,1
23,768722270000,0.65,9.66,0.31,1
23,768772288000,-6.63,19.57,0.27,1
23,768822307000,7.08,19.57,-7.27,1
23,768872295000,-6.89,8.35,-15.75,1
23,768922343000,9.23,-14.29,-12.45,1
23,768974345000,0.61,-7.16,-10.27,1
23,769032298000,3.53,13.38,13.72,1
23,769082286000,4.25,5.56,-10.84,1
23,769132304000,7.27,12.95,-5.33,1
23,769182292000,0.31,16.63,-10.31,1
23,769232310000,-6.51,18.35,8.66,1
23,769282298000,-3.45,11.18,14.63,1
23,769332347000,-15.66,5.52,17.43,1
23,769382304000,-0.34,5.52,-1.53,1
23,769432323000,-6.24,17.54,-0.57,1
23,769482341000,0.95,19.57,-2.53,1
23,769532329000,-5.98,15.4,-15.6,1
23,769582378000,8.54,-14.6,-12.18,1
23,769632335000,3.34,-8.81,-13.53,1
23,769682292000,3.34,2.83,2.41,1
23,769732341000,-3.41,18.35,10.92,1
23,769782298000,4.71,-0.08,-10.42,1
23,769842235000,6.97,12.18,-3.87,1
23,769892345000,-14.52,19.57,1.08,1
23,769942302000,9.92,12.76,7.27,1
23,769992290000,-18.58,6.44,18.5,1
23,770042308000,-7.27,2.3,4.44,1
23,770092326000,-0.53,12.68,-2.83,1
23,770142314000,-5.33,19.57,0.27,1
23,770192210000,3.64,19.57,-9.49,1
23,770242381000,-2.56,2.37,-12.45,1
23,770292308000,5.9,-11.84,-11.8,1
23,770342296000,3.21,-5.13,-9.08,1
23,770392314000,-2.3,13.29,12.15,1
23,770442302000,-4.06,12.26,-3.76,1
23,770492290000,12.22,-14.14,-0.46,1
23,770542308000,2.49,17.88,-17.86,1
23,770592296000,-8.77,18.81,5.48,1
23,770642314000,-0.57,11.92,14.06,1
23,770692302000,-19.04,4.29,15.98,1
23,770742320000,-3.17,5.05,1.33,1
23,770792308000,-1.23,14.82,-0.76,1
23,770842296000,-4.1,19.57,2.87,1
23,770892314000,-4.4,19.46,-13.38,1
23,770942332000,3.76,-9.19,-12.72,1
23,770942332000,3.76,-9.19,-12.72,1
23,771003032000,4.33,-7.78,-11.92,1
23,771054729000,2.11,-0.11,-1.38,1
23,771112285000,-3.6,19.34,16.04,1
23,771172313000,3.38,-0.34,-12.68,1
23,771222270000,4.21,16.47,-4.56,1
23,771272227000,-14.67,19.57,-0.23,1
23,771322307000,7.16,12.41,6.85,1
23,771372325000,-17.97,6.13,18.5,1
23,771422343000,-6.32,3.57,5.71,1
23,771472331000,-2.41,15.02,-3.34,1
23,771522319000,-5.9,19.57,0.93,1
23,771572307000,0.57,19.57,-10.95,1
23,771622325000,0.53,-3.45,-12.87,1
23,771672343000,4.4,-11.3,-11.56,1
23,771725047000,2.3,-1.88,-8.05,1
23,771782298000,-0.99,16.7,16.51,1
23,771832347000,6.4,-6.51,-15.98,1
23,771882365000,8.66,3.49,-6.74,1
23,771932323000,-15.47,19.57,-2.41,1
23,771982371000,8.35,15.79,1.99,1
23,772032329000,-12.95,7.5,17.82,1
23,772082347000,-12.83,3.91,10.04,1
23,772132304000,1.08,7.21,-2.18,1
23,772182323000,-9.19,19.42,-1.73,1
23,772232341000,1.23,19.57,-4.63,1
23,772282298000,-5.98,10.27,-13.59,1
23,772332347000,9.11,-14.1,-10.31,1
23,772382335000,2.22,-7.21,-12.15,1
23,772432323000,2.03,7.78,4.6,1
23,772482341000,-3.64,19.15,8.5,1
23,772532329000,5.18,-4.94,-16.82,1
23,772582347000,6.36,14.25,-7.7,1
23,772632365000,-15.66,19.57,0.42,1
23,772682323000,7.27,13.99,5.75,1
23,772732341000,-16.97,6.59,18.7,1
23,772782298000,-9.04,3.21,5.71,1
23,772832347000,0.89,10.76,-2.6,1
23,772882304000,-6.74,19.57,0.53,1
23,772932323000,2.34,19.57,-10.38,1
23,772983623000,-2.87,1.23,-12.87,1
23,773042277000,6.28,-12.98,-11.54,1
23,773092357000,2.91,-1.76,-5.09,1
23,773142314000,-3.57,17.27,15.28,1
23,773192332000,4.1,8.66,-13.29,1
23,773242290000,4.9,3.38,-8.47,1
23,773292338000,-5.67,19.46,-15.66,1
23,773342296000,-1.38,18.28,5.71,1
23,773392345000,-5.63,11.18,14.06,1
23,773442302000,-18.07,3.15,14.18,1
23,773492290000,-0.95,6.93,-1.42,1
23,773542308000,-1.76,18.89,0.42,1
23,773592296000,-0.95,19.57,-2.03,1
23,773642345000,-6.17,15.89,-13.95,1
23,773692363000,7.5,-14.9,-11.37,1
23,773742320000,3.06,-9.96,-12.64,1
23,773792369000,3.45,6.32,5.67,1
23,773842296000,-8.54,18.73,3.38,1
23,773892314000,12.03,-16.93,-5.41,1
23,773942302000,10.08,14.21,-18.5,1
23,773992290000,-18.05,19.53,5.48,1
23,774042308000,7.5,12.41,8.54,1
23,774092296000,-17.05,6.74,18.01,1
23,774142314000,-8.81,3.49,6.28,1
23,774192302000,-1.46,11.41,-3.53,1
23,774192302000,-1.46,11.41,-3.53,1
23,774252727000,-5.75,19.57,0.99,1
23,774302409000,-2.79,19.42,-13.48,1
23,774352977000,1.84,-7.08,-12.15,1
23,774412273000,5.33,-11.84,-12.6,1
23,774472270000,3.02,2.76,1.27,1
23,774522288000,-3.02,19.57,13.29,1
23,774572398000,7.4,-8.62,-15.94,1
23,774622325000,7.89,9.89,-8.81,1
23,774672343000,-16.13,19.57,-1.73,1
23,774722331000,8.24,14.41,2.56,1
23,774772288000,-13.78,7.27,16.86,1
23,774822337000,-11.75,4.52,10.23,1
23,774872325000,-1.04,12.15,-5.01,1
23,774922343000,-3.02,19.57,1.12,1
23,774972301000,0.69,19.57,-7.46,1
23,775022319000,-5.2,6.21,-12.6,1
23,775072337000,6.09,-14.79,-11.18,1
23,775122325000,2.79,-5.82,-10.27,1
23,775182292000,-1.92,14.98,13.4,1
23,775232280000,-0.34,12.15,-12.15,1
23,775282329000,6.47,-5.01,-8.5,1
23,775332347000,-2.72,19.57,-14.63,1
23,775382335000,-5.13,18.5,3.57,1
23,775432353000,-3.72,12.07,11.6,1
23,775482341000,-18.73,3.53,17.58,1
23,775532329000,0.5,7.4,-0.19,1
23,775582347000,-2.91,18.31,-0.23,1
23,775632304000,-0.34,19.57,-1.95,1
23,775682323000,-5.48,16.17,-15.01,1
23,775732371000,5.83,-13.67,-11.18,1
23,775782359000,3.91,-10.69,-14.25,1
23,775832378000,2.03,5.28,6.28,1
23,775882365000,-3.36,17.39,8.92,1
23,775932323000,0.95,7.89,-5.63,1
23,775982341000,10.69,8.54,-2.56,1
23,776032329000,-13.67,19.57,-6.36,1
23,776082347000,5.94,15.21,2.03,1
23,776132335000,-10.8,8.92,14.86,1
23,776182323000,-14.02,2.3,10.61,1
23,776232310000,0.27,8.66,-1.14,1
23,776282298000,-2.34,19.5,-0.95,1
23,776332347000,4.02,19.57,-4.56,1
23,776382335000,-6.85,13.48,-12.64,1
23,776432323000,6.74,-15.21,-10.34,1
23,776482341000,2.34,-8.39,-9.49,1
23,776532329000,0.23,8.69,8.77,1
23,776582347000,1.92,12.68,-1.27,1
23,776582347000,1.92,12.68,-1.27,1
23,776652568000,-4.86,13.38,-7.59,1
23,776702373000,5.56,12.45,-10.42,1
23,776752360000,-15.79,19.53,4.4,1
23,776802501000,1.95,16.59,9.7,1
23,776853160000,-18.85,5.41,17.97,1
23,776912273000,-6.89,10.42,4.18,1
23,776972301000,-12.37,19.57,1.99,1
23,777022258000,-10.23,19.57,-16.55,1
23,777072307000,7.97,-9.28,-19.38,1
23,777122295000,10.88,-10.42,-12.03,1
23,777172374000,3.45,-2.83,-3.45,1
23,777222362000,-1.31,3.53,-1.76,1
23,777272319000,0.65,1.99,-9.34,1
23,777322368000,-4.18,9.04,-2.14,1
23,777372356000,0.65,12.79,-2.07,1
23,777422343000,-0.72,12.11,-2.79,1
23,777472362000,-7.25,19.57,-2.34,1
23,777522349000,-0.19,16.13,3.99,1
23,777572337000,-7.86,6.66,5.98,1
23,777622325000,-13.82,3.79,15.24,1
23,777672343000,-3.68,8.47,-0.89,1
23,777722331000,-1.61,19.57,-6.02,1
23,777792338000,1.08,19.57,-6.02,1
23,777842265000,2.68,2.91,-11.26,1
23,777892345000,3.06,-14.06,-9.66,1
23,777942271000,6.44,-2.26,-1.12,1
23,777992290000,0.19,9.77,5.75,1
23,778042308000,-3.3,12.45,-10.38,1
23,778092296000,3.79,10.57,-1.76,1
23,778142314000,-9.96,19.46,-15.13,1
23,778192302000,7.21,19.23,6.89,1
23,778242320000,-12.15,7.93,16.04,1
23,778292338000,-13.06,4.25,12.37,1
23,778342296000,1.38,6.32,-1.08,1
23,778392314000,-10.23,19.34,-3.64,1
23,778442302000,-0.38,19.57,-3.83,1
23,778492290000,-8.73,16.59,-13.33,1
23,778542338000,9.47,-11.18,-10.34,1
23,778592326000,3.99,-10.76,-9.3,1
23,778642345000,4.4,5.94,3.57,1
23,778692302000,-1.53,15.47,3.11,1
23,778742290000,-0.5,8.01,-10.72,1
23,778793071000,4.48,13.18,-5.86,1
23,778842296000,-14.4,19.57,-1.73,1
23,778892528000,7.08,17.5,7.4,1
23,778942302000,-17.16,5.18,18.16,1
23,778992290000,-7.16,3.76,4.52,1
23,779042308000,-0.65,15.7,-3.64,1
23,779092296000,-7.01,19.57,-1.53,1
23,779142314000,-2.37,19.46,-9.85,1
23,779192271000,0.61,1.27,-11.92,1
23,779242290000,7.27,-15.09,-11.8,1
23,779292308000,3.68,-4.94,-5.86,1
23,779342296000,-5.98,14.48,11.96,1
23,779392345000,2.18,16.86,-7.97,1
23,779442332000,10.99,-2.53,-9.85,1
23,779492290000,-7.78,18.54,-7.25,1
23,779542308000,-2.26,14.29,2.64,1
23,779592296000,-8.5,5.67,8.24,1
23,779642314000,-7.86,5.41,11.3,1
23,779692302000,-2.79,8.47,3.53,1
23,779692302000,-2.79,8.47,3.53,1
23,779792461000,3.95,19.31,-7.12,1
23,779842326000,-1.23,3.45,-9.04,1
23,779892802000,6.51,-9.92,-6.05,1
23,779942393000,2.34,1.27,-4.86,1
23,779992320000,-7.93,18.62,17.54,1
23,780042338000,8.77,12.41,-19.27,1
23,780092357000,4.1,-5.82,-8.12,1
23,780142314000,-6.17,19.46,-6.7,1
23,780192302000,0.76,18.31,1.38,1
23,780247844000,-3.79,11.45,8.54,1
23,780247844000,-3.79,11.45,8.54,1
23,780302562000,-18.77,2.22,15.79,1
23,780352336000,-1.42,8.69,0.23,1
23,780402721000,-7.21,19.57,-4.63,1
23,780452312000,5.79,19.57,-8.47,1
23,780502849000,-7.04,8.58,-14.44,1
23,780552440000,10.99,-17.58,-14.94,1
23,780603099000,2.18,-4.44,-5.2,1
23,780652690000,-2.07,15.17,14.21,1
23,780702342000,7.06,2.07,-13.17,1
23,780752818000,2.3,15.75,-14.37,1
23,780802440000,-1.38,14.98,-8.31,1
23,780853099000,-5.37,17.73,8.5,1
23,780902690000,-3.26,8.69,9.19,1
23,780952342000,-18.12,4.44,16.66,1
23,781002818000,-1.14,8.62,-0.8,1
23,781052379000,0.95,19.31,-1.38,1
23,781103038000,0.61,19.57,-1.42,1
23,781152690000,-3.79,17.43,-13.14,1
23,781202373000,6.44,-12.53,-10.95,1
23,781252696000,2.3,-10.23,-14.52,1
23,781302348000,1.08,3.11,4.14,1
23,781352916000,-2.37,19.31,11.8,1
23,781402537000,-1.92,6.4,-12.95,1
23,781452342000,10.38,8.89,-3.98,1
23,781502727000,-11.65,19.57,-8.24,1
23,781552348000,3.15,14.37,2.76,1
23,781602885000,-11.95,8.92,13.99,1
23,781652507000,-13.06,2.64,9.89,1
23,781702342000,3.02,6.78,-0.72,1
23,781752635000,-7.44,19.42,-2.49,1
23,781802348000,1.73,19.57,-4.63,1
23,781852794000,-7.08,13.87,-11.03,1
23,781902354000,7.63,-12.41,-9.49,1
23,781952861000,3.38,-9.19,-11.5,1
23,782012309000,3.76,11.35,8.08,1
23,782072307000,3.83,12.72,-5.2,1
23,782122325000,-6.32,3.34,-9.49,1
23,782172343000,0.27,18.5,-12.37,1
23,782222331000,-2.3,19.19,5.83,1
23,782272349000,0.15,10.5,9.47,1
23,782322368000,-18.69,5.98,16.02,1
23,782372325000,-1.18,4.67,1.46,1
23,782422343000,-5.98,16.55,-2.6,1
23,782472331000,-1.14,19.57,-0.19,1
23,782522319000,-5.43,19.5,-10.57,1
23,782572307000,5.33,-3.53,-10.57,1
23,782622325000,5.63,-13.1,-10.5,1
23,782672343000,4.52,-0.23,-2.98,1
23,782722331000,-7.4,17.16,14.29,1
23,782772349000,9.58,3.91,-17.97,1
23,782832469000,8.16,2.11,-6.55,1
23,782882304000,-17.88,19.53,1.65,1
23,782932323000,5.48,16.13,3.15,1
23,782982341000,-10.42,6.93,12.34,1
23,783032329000,-11.65,3.34,12.41,1
23,783082347000,-8.27,12.15,-6.05,1
23,783132335000,0.8,19.57,0.08,1
23,783182292000,-1.65,19.57,-4.82,1
23,783232341000,-2.79,8.5,-11.41,1
23,783283519000,7.63,-13.21,-8.88,1
23,783342296000,0.04,-6.43,-9.04,1
23,783392314000,-0.89,15.43,14.02,1
23,783442332000,5.18,11.3,-18.39,1
23,783492290000,4.14,-2.03,-11.14,1
23,783542338000,-10.04,19.57,-11.26,1
23,783592296000,4.02,17.16,4.33,1
23,783642314000,-13.38,8.05,16.74,1
23,783692332000,-12.11,5.41,12.6,1
23,783742290000,-0.34,7.35,-3.21,1
23,783792308000,-5.05,19.57,0.15,1
23,783842296000,1.69,19.57,-6.55,1
23,783892314000,-9.66,10.73,-14.33,1
23,783942302000,9.96,-14.25,-11.8,1
23,783992290000,4.29,-9.08,-8.12,1
23,784042308000,0.57,5.67,3.87,1
23,784092326000,-1.08,9.04,-3.45,1
23,784142314000,-2.75,17.62,-4.75,1
23,784192332000,3.83,4.82,-5.86,1
23,784242320000,-13.91,19.57,0.95,1
23,784292308000,3.91,14.33,6.44,1
23,784342296000,-16.63,3.91,14.86,1
23,784392314000,-4.25,5.37,8.16,1
23,784442332000,-1.12,16.78,-3.53,1
23,784492290000,-3.53,19.57,-0.53,1
23,784542308000,-0.65,19.53,-9.34,1
23,784592296000,-0.46,-1.69,-11.22,1
23,784642406000,6.36,-13.95,-11.8,1
23,784692302000,1.23,-2.07,-4.79,1
23,784742290000,-6.59,13.1,11.88,1
23,784792338000,10.84,2.41,-16.63,1
23,784842326000,-3.79,17.88,-4.25,1
23,784892314000,0.5,8.5,-14.14,1
23,784942332000,-9.08,19.11,7.08,1
23,784992320000,1.92,12.64,8.96,1
23,785042308000,-19.38,3.34,15.64,1
23,785092296000,-1.65,7.21,3.26,1
23,785142314000,0.84,15.32,-0.11,1
23,785192271000,-2.49,19.57,-0.11,1
23,785192271000,-2.49,19.57,-0.11,1
23,785252513000,-6.43,19.0,-14.29,1
23,785312266000,8.89,-14.86,-11.26,1
23,785372325000,3.95,-8.01,-9.34,1
23,785422252000,-4.02,13.82,-16.89,1
23,785502330000,-0.46,13.82,-16.89,1
23,785502330000,-0.46,13.82,-16.89,1
23,785552196000,4.21,14.71,-9.11,1
23,785602183000,-15.24,19.53,5.05,1
23,785652293000,3.76,14.14,8.62,1
23,785702495000,-18.05,3.21,14.86,1
23,785752147000,-4.67,3.95,5.83,1
23,785802348000,-2.68,16.74,-2.75,1
23,785852977000,-5.28,19.57,-0.42,1
23,785902598000,-2.75,19.42,-11.41,1
23,785952342000,2.83,-7.12,-12.37,1
23,786012309000,4.67,-12.11,-12.76,1
23,786072307000,2.34,1.38,2.98,1
23,786132396000,-6.51,18.2,-1.31,1
23,786182231000,14.1,-15.09,-5.43,1
23,786232402000,3.21,17.5,-17.82,1
23,786282329000,-14.56,18.81,2.76,1
23,786332316000,2.03,14.82,11.35,1
23,786382335000,-18.28,4.71,17.67,1
23,786432323000,-3.41,5.6,5.41,1
23,786482310000,-1.5,13.18,-0.19,1
23,786532329000,-5.33,19.57,0.72,1
23,786582286000,-4.71,19.57,-12.34,1
23,786632365000,3.79,-7.59,-13.59,1
23,786682323000,4.86,-12.56,-12.79,1
23,786732371000,3.72,-0.91,-0.65,1
23,786782359000,-4.44,17.39,10.65,1
23,786832316000,0.11,16.55,-7.12,1
23,786882365000,6.44,1.18,-6.43,1
23,786932323000,-9.85,19.53,-12.26,1
23,786982341000,3.91,16.66,3.76,1
23,787032329000,-10.88,9.0,14.98,1
23,787082347000,-14.21,2.03,11.11,1
23,787132335000,-0.11,7.06,-0.08,1
23,787182323000,-8.69,18.62,-1.95,1
23,787232341000,3.38,19.57,-3.15,1
23,787282329000,-7.63,14.33,-15.17,1
23,787332408000,8.5,-15.83,-11.88,1
23,787382335000,4.63,-9.7,-14.14,1
23,787432323000,0.53,7.12,8.66,1
23,787482402000,0.61,19.57,8.08,1
23,787532329000,2.72,-6.21,-15.51,1
23,787582347000,7.44,11.6,-9.3,1
23,787632335000,-16.7,19.57,1.31,1
23,787682323000,8.89,14.71,5.86,1
23,787732341000,-16.97,7.63,17.92,1
23,787782329000,-10.19,3.3,6.89,1
23,787832316000,-0.34,11.65,-4.79,1
23,787882335000,-4.33,19.57,0.27,1
23,787932323000,1.04,19.57,-9.15,1
23,787982341000,-3.26,2.91,-13.59,1
23,788042247000,5.09,-10.99,-11.41,1
23,788093211000,3.38,-3.21,-4.4,1
23,788093211000,3.38,-3.21,-4.4,1
23,788152995000,-1.33,16.74,13.99,1
23,788202586000,5.37,-2.56,-18.07,1
23,788252330000,2.72,6.82,-9.3,1
23,788302684000,-12.41,19.57,-4.9,1
23,788362346000,5.52,15.17,2.3,1
23,788422252000,-15.51,7.08,17.2,1
23,788472331000,-5.52,4.18,6.05,1
23,788522288000,-2.91,17.08,-2.96,1
23,788572276000,-4.71,19.57,0.46,1
23,788622295000,-2.53,19.57,-11.95,1
23,788672343000,2.37,-4.82,-14.37,1
23,788722331000,3.64,-13.21,-14.25,1
23,788772349000,2.18,-1.92,-0.95,1
23,788822337000,-2.07,17.47,13.53,1
23,788872325000,1.23,11.69,-11.18,1
23,788924205000,6.93,0.04,-10.69,1
23,788982310000,-9.11,19.5,-11.26,1
23,789032268000,8.39,14.79,3.3,1
23,789082286000,-14.67,6.74,15.32,1
23,789132335000,-10.88,4.56,10.15,1
23,789182292000,-3.76,14.25,-5.52,1
23,789232341000,-1.04,19.57,0.65,1
23,789282329000,-0.57,19.57,-7.89,1
23,789332316000,-4.25,6.24,-12.72,1
23,789382365000,7.4,-15.79,-10.57,1
23,789432323000,1.57,-3.49,-6.7,1
23,789482341000,-2.64,15.09,14.18,1
23,789532359000,3.64,16.02,-12.91,1
23,789582347000,8.5,-1.27,-11.37,1
23,789632335000,-9.11,19.53,-11.73,1
23,789682323000,5.09,18.7,5.98,1
23,789732341000,-14.33,6.85,15.47,1
23,789782329000,-13.87,2.37,11.3,1
23,789832316000,1.61,4.82,-2.96,1
23,789882335000,-4.63,18.96,0.65,1
23,789932353000,-2.75,19.57,-0.46,1
23,789982341000,-2.14,15.89,-10.69,1
23,790033855000,3.64,-8.12,-10.15,1
23,790092296000,4.82,-11.65,-11.73,1
23,790142314000,2.64,5.28,3.15,1
23,790192302000,-6.51,19.38,12.37,1
23,790242381000,0.19,7.16,-16.02,1
23,790292369000,10.23,6.02,-6.02,1
23,790342326000,-12.95,19.57,-7.65,1
23,790392314000,7.08,16.78,2.72,1
23,790442302000,-10.88,6.89,16.04,1
23,790492290000,-15.28,4.82,11.03,1
23,790542308000,1.76,6.78,-2.64,1
23,790592265000,-3.68,19.5,-0.5,1
23,790642284000,1.42,19.57,-3.45,1
23,790692302000,-6.09,14.37,-13.06,1
23,790742320000,8.24,-14.79,-10.53,1
23,790792308000,1.84,-10.23,-11.69,1
23,790792308000,1.84,-10.23,-11.69,1
23,790853252000,1.76,8.05,6.55,1
23,790912303000,-6.7,14.94,-3.53,1
23,790972301000,12.26,-11.41,-2.34,1
23,791022288000,-10.38,19.57,-6.55,1
23,791072276000,1.08,15.98,-0.72,1
23,791122264000,-5.28,10.84,14.18,1
23,791172313000,-17.5,5.83,14.79,1
23,791222301000,-0.57,5.22,-2.26,1
23,791272380000,-4.37,18.28,-0.15,1
23,791322337000,-3.36,19.57,0.11,1
23,791372325000,-4.63,17.39,-11.5,1
23,791422618000,7.25,-10.42,-10.92,1
23,791472392000,2.15,-9.58,-11.3,1
23,791522319000,4.14,2.41,1.33,1
23,791572337000,-6.89,17.77,10.73,1
23,791622325000,5.86,8.16,-9.7,1
23,791672343000,8.54,9.08,-4.75,1
23,791722331000,-13.21,19.57,-10.19,1
23,791772349000,8.05,18.16,4.37,1
23,791822337000,-12.87,7.86,17.82,1
23,791872325000,-12.07,4.18,10.76,1
23,791922343000,2.11,7.4,-3.06,1
23,791972331000,-8.08,19.57,-1.57,1
23,792022288000,1.8,19.57,-5.41,1
23,792072337000,-4.9,9.3,-13.67,1
23,792122356000,8.92,-14.44,-10.46,1
23,792172343000,3.3,-7.63,-10.95,1
23,792222331000,-0.19,10.08,7.93,1
23,792272319000,-0.53,13.67,-2.96,1
23,792322337000,3.83,5.67,-9.15,1
23,792372325000,3.21,16.25,-9.23,1
23,792422343000,-13.38,19.53,2.41,1
23,792472331000,3.38,16.82,12.79,1
23,792522349000,-18.77,4.02,17.47,1
23,792572368000,-3.41,2.83,2.76,1
23,792622325000,1.65,10.84,0.95,1
23,792672343000,-11.41,19.57,0.11,1
23,792722331000,2.83,19.5,-9.89,1
23,792772288000,-1.42,0.0,-12.56,1
23,792822398000,7.08,-13.44,-12.72,1
23,792872356000,3.53,-3.41,-4.9,1
23,792922343000,-2.75,16.7,13.99,1
23,792972331000,2.26,6.32,-18.81,1
23,793022319000,8.5,-1.95,-4.37,1
23,793072337000,-8.77,19.57,-13.1,1
23,793142375000,5.28,18.89,2.87,1
23,793192271000,-16.51,5.28,18.16,1
23,793242320000,-10.08,3.49,6.24,1
23,793292247000,1.69,11.35,-2.68,1
23,793342296000,-7.46,19.57,-0.89,1
23,793392284000,3.21,19.57,-9.85,1
23,793442302000,-3.36,0.65,-14.02,1
23,793492290000,6.82,-13.44,-13.59,1
23,793542308000,3.53,-3.95,-6.47,1
23,793592296000,-1.18,13.8,11.26,1
23,793642314000,-1.14,11.69,-13.87,1
23,793692302000,7.93,-6.74,-6.85,1
23,793742290000,-4.86,19.57,-14.98,1
23,793792308000,0.61,17.43,4.02,1
23,793842601000,-8.88,9.96,16.04,1
23,793892314000,-16.28,5.67,14.67,1
23,793942302000,1.73,6.82,-3.53,1
23,793992259000,-4.14,19.5,0.46,1
23,794042308000,-1.38,19.57,-2.56,1
23,794092296000,-3.41,13.67,-13.38,1
23,794142314000,8.35,-15.94,-11.8,1
23,794192302000,2.22,-6.7,-12.41,1
23,794242290000,0.53,5.05,6.21,1
23,794292308000,-0.99,19.57,7.25,1
23,794342326000,-2.26,-4.67,-18.05,1
23,794392345000,10.38,14.82,-6.36,1
23,794442332000,-14.9,19.57,-2.26,1
23,794492290000,4.75,16.47,7.89,1
23,794542308000,-17.67,5.98,18.85,1
23,794592296000,-5.86,4.25,6.55,1
23,794642314000,-1.04,13.38,-2.34,1
23,794692302000,-6.82,19.57,0.69,1
23,794692302000,-6.82,19.57,0.69,1
23,794782115000,-4.86,9.0,-13.99,1
23,794832408000,8.08,-15.55,-11.03,1
23,794882243000,2.03,-5.52,-10.34,1
23,794932292000,-1.33,11.26,10.84,1
23,794982341000,0.57,15.75,-3.49,1
23,795032329000,6.47,-11.75,-7.59,1
23,795082347000,1.61,18.62,-17.43,1
23,795132335000,-7.74,18.66,2.91,1
23,795182323000,-1.12,14.52,13.14,1
23,795232310000,-19.42,4.94,17.39,1
23,795282329000,-2.45,4.48,1.95,1
23,795332316000,-1.88,14.48,-0.95,1
23,795382335000,-5.82,19.57,0.61,1
23,795432262000,-0.76,19.57,-11.99,1
23,795482341000,0.5,-3.72,-12.15,1
23,795532390000,5.71,-11.75,-12.34,1
23,795592296000,3.45,-1.08,-3.72,1
23,795592296000,3.45,-1.08,-3.72,1
23,795652812000,-4.14,19.57,8.01,1
23,795702434000,3.99,-8.35,-11.99,1
23,795753062000,7.4,15.83,-12.45,1
23,795802653000,-15.13,19.53,1.08,1
23,795852336000,6.51,15.64,8.92,1
23,795902782000,-17.43,5.22,18.85,1
23,795952434000,-7.4,5.18,6.24,1
23,796003276000,-1.18,14.41,-2.49,1
23,796062266000,-4.82,19.57,0.69,1
23,796122264000,-4.82,19.42,-13.17,1
23,796172374000,7.46,-14.67,-11.95,1
23,796222331000,1.92,-9.28,-12.45,1
23,796272319000,2.91,5.09,7.01,1
23,796322337000,-1.84,12.79,3.06,1
23,796372356000,-3.64,13.87,-7.55,1
23,796422343000,6.24,8.47,0.84,1
23,796472362000,-13.63,19.57,-4.29,1
23,796522380000,7.97,13.06,3.41,1
23,796572337000,-15.7,7.55,16.59,1
23,796622325000,-6.74,6.4,11.07,1
23,796672343000,-1.73,13.48,-4.94,1
23,796722331000,-3.49,19.57,1.57,1
23,796772288000,0.11,19.57,-9.58,1
23,796822337000,-3.11,2.53,-12.83,1
23,796872325000,4.71,-14.06,-10.72,1
23,796922343000,2.49,-1.92,-7.74,1
23,796972331000,-0.38,15.28,13.63,1
23,797022319000,2.68,8.01,-15.09,1
23,797072368000,3.26,-3.45,-6.43,1
23,797122325000,-5.6,19.57,-12.11,1
23,797172343000,1.12,17.08,1.42,1
23,797222331000,-5.86,11.99,14.48,1
23,797272319000,-17.58,6.28,17.08,1
23,797322337000,0.27,6.51,-1.88,1
23,797372356000,-5.79,19.0,-1.38,1
23,797422313000,-1.53,19.57,-1.23,1
23,797472331000,-3.6,16.7,-12.79,1
23,797522319000,5.63,-12.45,-11.3,1
23,797572398000,2.07,-9.08,-13.4,1
23,797622356000,3.6,5.22,6.36,1
23,797672374000,-1.95,17.97,7.5,1
23,797722362000,-1.65,3.06,-12.6,1
23,797772319000,5.9,12.79,-4.82,1
23,797822368000,-13.1,19.57,-5.6,1
23,797872294000,9.85,16.66,4.9,1
23,797922313000,-14.98,8.77,17.86,1
23,797972331000,-13.14,2.76,8.28,1
23,798022319000,2.22,9.11,-2.6,1
23,798072337000,-7.44,19.57,-1.18,1
23,798122294000,4.9,19.57,-7.74,1
23,798189830000,-5.67,8.73,-13.76,1
23,798242320000,5.28,-12.83,-13.14,1
23,798292369000,3.72,0.0,-0.34,1
23,798342296000,-6.7,19.53,16.59,1
23,798392314000,10.76,-7.21,-16.63,1
23,798442302000,6.63,7.86,-10.46,1
23,798492290000,-13.78,19.57,-4.02,1
23,798542308000,7.44,17.58,2.22,1
23,798592296000,-11.73,8.43,17.43,1
23,798642345000,-15.55,3.91,10.42,1
23,798692302000,0.42,7.89,-3.87,1
23,798742290000,-2.72,19.57,-0.3,1
23,798792277000,1.14,19.57,-2.83,1
23,798842296000,-6.17,13.25,-14.33,1
23,798892345000,9.51,-16.78,-11.65,1
23,798942302000,1.27,-8.47,-12.11,1
23,798942302000,1.27,-8.47,-12.11,1
23,799002757000,-0.23,11.75,10.73,1
23,799052440000,6.55,12.18,-8.08,1
23,799103099000,0.8,2.07,-13.63,1
23,799152751000,-2.98,18.66,-12.15,1
23,799202434000,-5.41,19.46,2.87,1
23,799253123000,-1.18,12.57,10.27,1
23,799302745000,-19.23,6.36,17.54,1
23,799352428000,-0.15,4.6,2.18,1
23,799403056000,-2.3,13.06,-0.69,1
23,799452769000,-7.82,19.57,0.69,1
23,799502421000,-1.04,19.42,-12.49,1
23,799553111000,1.5,-2.56,-11.88,1
23,799612285000,6.24,-14.02,-12.41,1
23,799672343000,4.14,2.72,1.08,1
23,799722331000,-0.89,19.57,12.87,1
23,799772319000,1.92,-9.72,-15.13,1
23,799822337000,7.01,10.31,-9.72,1
23,799872294000,-14.14,19.57,-1.8,1
23,799922313000,8.62,16.55,5.52,1
23,799972331000,-15.62,6.82,17.16,1
23,800022319000,-9.34,3.87,9.66,1
23,800072337000,1.04,8.35,-1.99,1
23,800122325000,-7.63,19.57,-1.04,1
23,800172343000,2.49,19.57,-6.17,1
23,800222392000,-3.98,10.42,-12.72,1
23,800272380000,8.39,-15.28,-9.49,1
23,800322368000,1.5,-7.89,-12.34,1
23,800372325000,0.38,13.29,12.07,1
23,800422343000,-0.84,18.81,5.67,1
23,800472331000,7.25,-8.88,-11.92,1
23,800522929000,6.51,15.83,-12.72,1
23,800572337000,-16.02,19.57,1.61,1
23,800622325000,7.82,13.82,5.6,1
23,800692332000,-19.42,5.18,16.25,1
23,800742259000,-0.76,4.33,1.65,1
23,800792308000,0.53,17.47,-1.33,1
23,800842326000,-5.6,19.57,1.18,1
23,800892314000,-2.18,19.08,-9.58,1
23,800942424000,1.31,-1.84,-11.69,1
23,800992320000,5.05,-13.99,-11.33,1
23,801044108000,1.42,-1.8,-5.13,1
23,801044108000,1.42,-1.8,-5.13,1
23,801102824000,-2.56,17.69,14.67,1
23,801152354000,8.43,-5.52,-11.73,1
23,801202373000,-1.57,16.36,-9.66,1
23,801252788000,-2.79,16.74,-13.17,1
23,801302470000,-6.02,18.92,5.6,1
23,801353129000,1.12,12.53,9.77,1
23,801402782000,-18.85,3.17,16.97,1
23,801452434000,-2.6,5.48,1.73,1
23,801503032000,-1.12,17.35,-2.26,1
23,801552653000,-3.15,19.57,-0.08,1
23,801602336000,-1.84,19.0,-9.92,1
23,801652812000,-0.76,-0.99,-10.76,1
23,801702403000,6.09,-14.6,-10.57,1
23,801753062000,0.0,-0.76,-6.66,1
23,801802592000,-3.91,16.74,16.51,1
23,801852367000,8.12,3.83,-12.11,1
23,801902751000,-0.23,14.71,-8.73,1
23,801952373000,1.04,15.32,-8.31,1
23,802003764000,-13.48,19.46,5.56,1
23,802062266000,6.66,10.23,7.35,1
23,802122294000,-18.62,5.18,13.33,1
23,802172343000,1.14,4.06,3.06,1
23,802222331000,-6.28,15.47,-2.79,1
23,802272319000,-2.87,19.57,0.27,1
23,802322337000,-5.6,19.04,-9.49,1
23,802372294000,2.68,1.08,-9.49,1
23,802422343000,6.05,-12.64,-8.81,1
23,802472392000,4.71,0.99,-5.33,1
23,802522319000,-7.89,18.77,15.55,1
23,802572337000,10.27,0.89,-7.31,1
23,802622325000,-1.33,7.55,-10.53,1
23,802672313000,-9.85,19.5,-10.53,1
23,802722362000,7.46,19.57,9.3,1
23,802772349000,-4.82,9.66,14.71,1
23,802822398000,-12.72,7.67,16.32,1
23,802872356000,-0.46,6.05,-1.84,1
23,802922343000,-18.5,18.5,-6.59,1
23,802972331000,-2.91,19.57,-5.13,1
23,803022319000,-4.79,16.13,-11.22,1
23,803072337000,9.81,-5.13,-10.08,1
23,803122325000,4.18,-11.22,-11.92,1
23,803172343000,4.37,7.63,0.69,1
23,803222331000,-10.38,18.7,2.79,1
23,803272349000,11.73,-12.98,-7.21,1
23,803322337000,10.38,11.69,-12.03,1
23,803372294000,-13.25,19.57,2.37,1
23,803422343000,7.08,18.39,9.77,1
23,803472331000,-17.08,6.66,19.04,1
23,803522319000,-4.99,4.99,7.7,1
23,803572337000,-7.44,11.35,-4.25,1
23,803622325000,-10.11,19.57,-0.76,1
23,803672374000,-3.76,19.57,-9.08,1
23,803723094000,0.31,6.28,-14.29,1
23,803772319000,5.94,-12.53,-10.99,1
23,803822337000,4.29,-7.08,-9.15,1
23,803872294000,1.57,14.82,9.62,1
23,803922313000,-4.33,6.17,-5.33,1
23,803972331000,8.54,3.79,-9.38,1
23,804022319000,3.38,16.82,-8.2,1
23,804072337000,-3.87,18.92,5.71,1
23,804122325000,-0.89,14.02,15.75,1
23,804172343000,-17.39,7.82,17.43,1
23,804222331000,-1.8,3.6,-2.18,1
23,804272319000,-10.04,17.62,-1.08,1
23,804322337000,-7.82,19.57,0.11,1
23,804372325000,-5.94,18.89,-15.24,1
23,804422343000,9.23,-11.65,-15.21,1
23,804472331000,2.41,-10.34,-14.44,1
23,804522319000,4.9,-1.8,-4.75,1
23,804572337000,-4.37,19.53,17.86,1
23,804622325000,1.8,-4.48,-10.76,1
23,804672343000,9.19,10.38,-11.18,1
23,804722331000,-4.14,19.57,-10.95,1
23,804772319000,2.87,17.47,7.74,1
23,804822337000,-9.23,11.56,17.69,1
23,804872294000,-13.87,1.12,10.92,1
23,804922313000,-2.26,6.93,-1.42,1
23,804972331000,-5.67,18.09,-0.46,1
23,805022319000,0.61,19.57,-0.42,1
23,805072337000,-4.52,16.32,-15.13,1
23,805122325000,8.39,-14.79,-11.37,1
23,805172343000,2.83,-9.04,-14.82,1
23,805222362000,1.73,3.68,2.34,1
23,805272319000,-6.4,17.24,11.5,1
23,805322337000,8.69,-9.28,-5.05,1
23,805373485000,6.28,19.0,-5.48,1
23,805432292000,-12.18,19.57,-7.4,1
23,805482402000,3.57,11.37,7.67,1
23,805532359000,-18.77,5.83,17.88,1
23,805582378000,-5.43,2.64,1.73,1
23,805632976000,-0.8,15.55,0.08,1
23,805692332000,-6.13,19.57,2.56,1
23,805742259000,-3.91,17.86,-15.09,1
23,805792399000,5.56,-13.76,-12.37,1
23,805842296000,1.42,-7.08,-15.05,1
23,805900798000,1.18,-0.8,0.0,1
23,805900798000,1.18,-0.8,0.0,1
23,805952342000,-3.53,17.58,11.54,1
23,806002727000,0.53,0.93,-6.51,1
23,806052440000,10.12,13.8,1.38,1
23,806103099000,-14.48,19.57,-3.68,1
23,806152690000,9.23,11.99,5.52,1
23,806202373000,-17.97,5.86,17.77,1
23,806252818000,-11.54,3.53,5.83,1
23,806302501000,4.18,12.64,0.53,1
23,806353190000,-9.28,19.57,0.61,1
23,806402843000,2.26,19.57,-13.17,1
23,806462291000,-0.72,-4.06,-14.86,1
23,806522288000,2.91,-10.15,-15.17,1
23,806572307000,2.34,2.6,3.45,1
23,806622295000,-3.26,18.31,14.18,1
23,806672343000,2.45,-5.01,-13.95,1
23,806722301000,5.71,9.85,-3.34,1
23,806772349000,-13.1,19.57,-2.41,1
23,806822337000,7.7,11.03,5.33,1
23,806872325000,-17.01,8.01,18.54,1
23,806922313000,-9.85,2.41,4.48,1
23,806972331000,-2.26,13.76,-2.87,1
23,807022319000,-5.13,19.57,1.08,1
23,807072307000,4.4,19.57,-11.14,1
23,807122356000,-1.73,-2.18,-13.72,1
23,807172343000,3.72,-12.53,-14.52,1
23,807222331000,-0.08,-3.06,-10.27,1
23,807272319000,-2.41,16.55,18.73,1
23,807322337000,4.18,8.73,-7.97,1
23,807372325000,4.21,-7.27,-6.02,1
23,807422343000,-3.45,19.57,-15.83,1
23,807472331000,0.57,16.21,5.18,1
23,807522349000,-10.53,9.11,15.7,1
23,807572337000,-12.68,2.45,12.72,1
23,807622325000,-4.14,7.97,-0.91,1
23,807672343000,-6.4,19.27,-2.37,1
23,807722331000,3.38,19.57,-2.68,1
23,807772319000,-4.18,13.63,-15.66,1
23,807822368000,7.21,-17.12,-12.18,1
23,807872294000,3.76,-7.46,-15.94,1
23,807932231000,1.73,9.3,13.99,1
23,807982341000,-1.65,12.22,-2.83,1
23,808032329000,9.43,-14.21,-1.61,1
23,808082347000,1.88,18.54,-16.47,1
23,808132365000,-7.97,17.67,5.43,1
23,808182323000,-3.76,10.57,12.22,1
23,808232341000,-14.94,3.26,16.97,1
23,808282329000,-4.52,7.25,-1.42,1
23,808332347000,-4.06,19.53,-1.18,1
23,808382335000,-0.89,19.57,-0.72,1
23,808432292000,-1.84,14.9,-14.18,1
23,808492290000,6.55,-15.32,-14.63,1
23,808542308000,-0.53,-6.13,-14.63,1
23,808592265000,-0.5,9.28,11.56,1
23,808642345000,3.49,15.17,0.76,1
23,808692271000,-5.09,4.02,-7.78,1
23,808742290000,5.9,14.44,-4.4,1
23,808792308000,-10.15,19.31,3.57,1
23,808842296000,0.46,8.81,7.59,1
23,808892314000,-18.77,5.71,17.69,1
23,808942302000,-4.63,5.79,1.12,1
23,808992290000,-2.26,16.32,-2.11,1
23,809042308000,-0.76,19.57,1.31,1
23,809092296000,-2.45,18.5,-14.14,1
23,809142314000,3.68,-11.99,-12.11,1
23,809192302000,1.54,-9.77,-15.28,1
23,809242320000,2.26,2.11,1.73,1
23,809292308000,-4.21,19.27,14.25,1
23,809342326000,3.83,1.65,-8.16,1
23,809342326000,3.83,1.65,-8.16,1
23,809402721000,6.74,10.15,-3.57,1
23,809452342000,-13.59,19.57,-0.57,1
23,809502879000,7.44,10.99,5.63,1
23,809552501000,-18.69,7.21,18.2,1
23,809603129000,-8.92,4.18,5.56,1
23,809652751000,1.46,11.96,-1.14,1
23,809702403000,-6.36,19.57,0.84,1
23,809752879000,4.21,19.57,-11.88,1
23,809802501000,-0.11,-1.12,-14.67,1
23,809853190000,4.1,-15.32,-11.54,1
23,809912303000,0.72,0.0,-7.89,1
23,809972331000,-4.29,19.42,16.59,1
23,810022288000,2.15,3.68,-5.52,1
23,810072276000,7.01,9.92,-4.02,1
23,810122325000,-12.56,19.57,-6.32,1
23,810172313000,8.28,12.3,3.34,1
23,810222301000,-16.55,8.54,17.88,1
23,810272227000,-8.85,4.63,8.24,1
23,810322307000,-2.18,12.11,-3.83,1
23,810372264000,-4.71,19.57,1.31,1
23,810422282000,2.6,19.57,-10.99,1
23,810472270000,-2.87,0.61,-14.4,1
23,810522288000,6.05,-14.44,-12.6,1
23,810572276000,0.34,-2.49,-10.27,1
23,810622447000,-2.26,15.75,16.63,1
23,810622447000,-2.26,15.75,16.63,1
23,810722484000,-5.09,6.66,-6.63,1
23,810772197000,0.11,16.97,-10.42,1
23,810822429000,-4.82,18.35,5.18,1
23,810872630000,-0.61,13.14,9.72,1
23,810922374000,-17.69,4.44,17.77,1
23,810972362000,-5.01,5.75,-0.27,1
23,811022319000,-4.99,18.54,-2.72,1
23,811072337000,2.6,19.57,-1.42,1
23,811122325000,-3.98,17.39,-13.72,1
23,811182323000,6.55,-13.21,-11.6,1
23,811232432000,-1.18,-6.55,-15.36,1
23,811282268000,0.08,10.84,13.95,1
23,811332347000,0.72,13.99,-0.27,1
23,811382304000,-4.48,3.17,-7.89,1
23,811432323000,10.61,15.51,-2.98,1
23,811482341000,-15.21,19.57,2.34,1
23,811532329000,6.93,12.91,7.27,1
23,811582347000,-18.66,6.66,18.01,1
23,811632335000,-7.55,4.29,4.63,1
23,811682353000,-1.57,14.41,-3.53,1
23,811732371000,-1.84,19.57,1.08,1
23,811782329000,1.08,19.57,-11.88,1
23,811832347000,0.42,-3.57,-13.14,1
23,811882396000,5.05,-14.37,-13.48,1
23,811932292000,0.31,-1.14,-6.63,1
23,811982402000,-1.42,17.5,15.89,1
23,812032359000,2.15,11.8,-10.69,1
23,812082347000,5.75,-2.64,-7.5,1
23,812132335000,-3.26,19.42,-13.59,1
23,812182323000,-3.83,17.12,2.3,1
23,812232371000,-3.26,11.45,11.3,1
23,812282359000,-16.85,3.83,15.02,1
23,812332347000,-3.26,6.21,-0.27,1
23,812382304000,-4.82,17.54,-2.72,1
23,812432323000,2.22,19.57,-1.27,1
23,812482341000,-3.02,17.31,-12.3,1
23,812532329000,5.13,-11.5,-10.5,1
23,812582347000,2.26,-9.49,-14.1,1
23,812642314000,3.41,4.56,3.3,1
23,812693492000,1.73,18.31,4.33,1
23,812693492000,1.73,18.31,4.33,1
23,812752360000,5.56,-13.99,-9.81,1
23,812812266000,1.08,19.53,-15.75,1
23,812872295000,-1.42,16.32,2.22,1
23,812922343000,-10.95,10.46,15.32,1
23,812972240000,-14.86,2.72,11.07,1
23,813022258000,-1.12,8.05,-1.8,1
23,813072307000,-4.67,19.53,-2.07,1
23,813122295000,1.65,19.57,-3.53,1
23,813172313000,-4.1,12.15,-13.72,1
23,813223918000,7.89,-16.24,-11.14,1
23,813283488000,-0.65,-8.27,-15.13,1
23,813342296000,-0.3,15.66,18.12,1
23,813392314000,0.23,6.51,-13.25,1
23,813442302000,11.18,-3.98,-1.33,1
23,813492290000,-6.51,19.57,-11.3,1
23,813542308000,-1.95,16.44,1.31,1
23,813542308000,-1.95,16.44,1.31,1
23,813612346000,-6.17,11.18,12.98,1
23,813662273000,-12.95,2.45,8.54,1
23,813712260000,-2.75,10.5,-2.37,1
23,813762279000,-5.24,19.57,-1.33,1
23,813822337000,4.29,19.57,-9.53,1
23,813873729000,-1.69,-0.76,-12.76,1
23,813932262000,6.78,-18.05,-14.29,1
23,813982310000,2.3,5.75,3.68,1
23,814032298000,-3.15,19.57,14.41,1
23,814082347000,-2.79,0.84,-19.3,1
23,814132304000,11.73,-0.84,-0.89,1
23,814182323000,-11.88,19.57,-5.86,1
23,814232341000,4.82,15.09,1.31,1
23,814282329000,-11.88,8.77,15.51,1
23,814332347000,-14.6,5.71,12.91,1
23,814382365000,-2.41,11.35,-5.6,1
23,814432323000,-1.38,19.57,0.69,1
23,814482310000,-0.53,19.57,-6.36,1
23,814532329000,-4.67,7.93,-13.82,1
23,814582347000,8.66,-17.67,-11.8,1
23,814632335000,-0.38,-3.57,-11.45,1
23,814684276000,0.5,12.6,12.45,1
23,814742229000,4.4,16.93,-1.92,1
23,814792308000,4.63,-7.5,-8.08,1
23,814842296000,-1.27,19.19,-15.94,1
23,814892314000,-5.05,18.01,5.48,1
23,814942302000,-3.26,12.18,13.18,1
23,814992259000,-18.05,5.43,15.83,1
23,815042308000,-2.75,5.67,-1.23,1
23,815092296000,-5.13,17.12,-2.03,1
23,815142284000,1.69,19.57,-2.03,1
23,815192302000,-5.33,17.97,-14.44,1
23,815243266000,6.17,-13.1,-11.65,1
23,815243266000,6.17,-13.1,-11.65,1
23,815304515000,0.95,-10.5,-16.04,1
23,815362315000,2.11,12.49,15.36,1
23,815422374000,6.44,6.44,-8.88,1
23,815472331000,0.8,12.95,-8.27,1
23,815522319000,-3.3,18.92,-13.87,1
23,815572337000,-1.04,17.24,6.63,1
23,815622325000,-6.28,11.3,13.53,1
23,815672343000,-16.09,4.25,14.67,1
23,815722362000,-1.12,8.39,-2.41,1
23,815772319000,-3.11,19.5,-1.76,1
23,815822368000,0.95,19.57,-2.79,1
23,815872325000,-3.87,14.33,-13.02,1
23,815932292000,5.9,-15.83,-9.58,1
23,815982280000,0.46,-7.04,-12.83,1
23,816032268000,0.93,14.63,15.09,1
23,816082286000,0.38,9.08,-0.15,1
23,816132304000,-1.12,3.6,-7.89,1
23,816182262000,7.01,15.7,4.37,1
23,816242412000,-12.49,19.46,4.37,1
23,816292277000,2.56,11.99,10.38,1
23,816342326000,-17.97,6.59,18.12,1
23,816392284000,-2.56,5.98,1.04,1
23,816442332000,-5.52,17.97,-2.72,1
23,816492290000,1.95,19.57,-1.95,1
23,816542308000,-3.76,16.59,-11.88,1
23,816592387000,4.44,-7.65,-10.61,1
23,816642314000,0.61,-11.37,-14.82,1
23,816692302000,3.41,8.16,11.18,1
23,816742320000,-4.14,13.53,4.21,1
23,816792308000,-0.57,8.96,-6.09,1
23,816842296000,8.08,11.99,0.76,1
23,816842296000,8.08,11.99,0.76,1
23,816902782000,-13.29,19.57,-2.53,1
23,816952495000,8.28,13.14,6.85,1
23,817003154000,-18.31,7.82,18.35,1
23,817062297000,-5.86,4.56,5.37,1
23,817122295000,-2.11,17.67,-2.45,1
23,817172343000,0.76,19.57,-0.8,1
23,817222331000,-4.25,17.05,-12.18,1
23,817272472000,5.67,-11.88,-10.65,1
23,817332316000,1.73,-11.5,-14.18,1
23,817382274000,2.53,12.26,12.49,1
23,817432323000,0.04,15.51,2.07,1
23,817432323000,0.04,15.51,2.07,1
23,817542399000,7.89,15.05,-5.79,1
23,817592296000,-11.88,19.23,3.76,1
23,817642314000,3.57,11.65,8.5,1
23,817692302000,-19.19,7.25,17.86,1
23,817742290000,-2.96,4.4,2.49,1
23,817792308000,-3.49,13.67,-2.72,1
23,817842296000,-1.95,19.57,-0.5,1
23,817892314000,-2.22,18.96,-12.03,1
23,817892314000,-2.22,18.96,-12.03,1
23,817962382000,6.66,-11.54,-10.42,1
23,818012248000,2.72,-8.01,-15.36,1
23,818062388000,1.92,9.3,12.57,1
23,818112773000,-0.8,13.82,2.56,1
23,818172343000,-7.44,10.53,-8.35,1
23,818222301000,5.86,14.21,-8.77,1
23,818272288000,-12.15,19.31,4.99,1
23,818322307000,4.86,13.57,9.28,1
23,818372233000,-19.34,4.29,18.05,1
23,818422343000,-2.03,6.66,2.76,1
23,818472362000,-3.41,16.59,-3.21,1
23,818522319000,-1.12,19.57,0.72,1
23,818572337000,-0.8,18.66,-10.84,1
23,818622325000,2.07,-4.44,-10.42,1
23,818682353000,4.21,-12.3,-11.75,1
23,818732341000,2.53,6.66,2.76,1
23,818782329000,-7.97,19.57,13.95,1
23,818832347000,8.43,-6.55,-17.46,1
23,818882304000,9.0,10.88,-7.16,1
23,818932323000,-14.94,19.57,-4.59,1
23,818982341000,9.11,14.67,3.06,1
23,819032329000,-13.63,9.19,17.08,1
23,819082347000,-13.1,4.52,10.46,1
23,819132335000,-0.23,10.88,-5.09,1
23,819182323000,-3.11,19.57,-1.42,1
23,819232310000,1.04,19.57,-6.74,1
23,819282359000,-4.06,7.82,-12.45,1
23,819332347000,8.2,-16.21,-11.54,1
23,819384379000,0.04,-4.1,-12.91,1
23,819442241000,-1.57,14.25,17.01,1
23,819492290000,2.53,11.54,-14.25,1
23,819542308000,7.35,-3.79,-7.63,1
23,819592326000,-5.94,19.57,-11.6,1
23,819642314000,-0.69,17.16,2.56,1
23,819692302000,-6.4,9.92,12.95,1
23,819742290000,-16.82,4.94,15.24,1
23,819792308000,-1.5,6.17,-0.27,1
23,819842296000,-6.55,18.5,-2.72,1
23,819892314000,2.53,19.57,-2.49,1
23,819942332000,-4.02,15.51,-14.56,1
23,819992320000,6.13,-14.52,-10.88,1
23,820042308000,0.53,-10.88,-15.94,1
23,820092296000,5.01,11.35,11.5,1
23,820142314000,0.19,18.7,3.87,1
23,820192302000,-3.26,0.84,-10.27,1
23,820246165000,7.08,10.76,-5.71,1
23,820246165000,7.08,10.76,-5.71,1
23,820303020000,-16.02,19.57,2.07,1
23,820352641000,5.05,12.45,10.53,1
23,820402324000,-19.3,6.47,17.69,1
23,820452769000,-4.1,4.48,2.41,1
23,820502421000,-3.3,14.41,-2.75,1
23,820553020000,-1.76,19.57,1.46,1
23,820602641000,-1.04,19.57,-11.75,1
23,820652324000,1.31,-3.79,-12.49,1
23,820702800000,5.6,-15.28,-11.41,1
23,820752391000,0.95,1.04,-3.83,1
23,820802898000,-1.95,18.54,16.21,1
23,820852550000,6.59,5.09,-11.8,1
23,820903148000,0.5,2.96,-8.62,1
23,820962291000,-1.88,19.46,-14.63,1
23,821022288000,5.33,16.59,4.6,1
23,821072307000,-15.32,8.08,17.67,1
23,821122294000,-9.92,4.52,9.92,1
23,821172343000,0.5,8.73,-1.84,1
23,821222331000,-7.12,19.57,-0.61,1
23,821290019000,3.64,19.57,-7.08,1
23,821342296000,2.68,-6.17,-12.07,1
23,821392345000,6.02,-13.33,-13.38,1
23,821442363000,2.15,3.21,-1.18,1
23,821492290000,-5.13,19.11,16.74,1
23,821542308000,7.97,-0.91,-8.47,1
23,821592326000,5.33,13.95,-7.4,1
23,821642314000,-7.59,18.85,-13.38,1
23,821692302000,3.21,15.98,4.25,1
23,821742290000,-8.73,10.8,13.87,1
23,821792308000,-15.51,3.72,12.91,1
23,821842296000,-0.53,7.82,-1.99,1
23,821892345000,-5.18,19.23,-2.07,1
23,821942332000,2.83,19.57,-2.87,1
23,821992259000,-4.21,14.56,-12.72,1
23,822042308000,7.63,-14.63,-9.85,1
23,822092448000,0.04,-9.11,-14.86,1
23,822092448000,0.04,-9.11,-14.86,1
23,822152812000,1.84,10.0,9.77,1
23,822202434000,3.45,14.02,-1.69,1
23,822253093000,-5.01,-1.18,-11.92,1
23,822302745000,6.74,15.47,-7.86,1
23,822352367000,-10.65,19.57,1.99,1
23,822402965000,5.48,13.25,7.89,1
23,822452647000,-18.73,5.83,17.69,1
23,822502330000,-6.7,4.02,4.25,1
23,822552806000,-3.06,13.38,-3.11,1
23,822602580000,-4.06,19.57,0.34,1
23,822653209000,2.98,19.42,-11.22,1
23,822712260000,-3.02,-0.84,-12.26,1
23,822774242000,5.94,-13.76,-14.37,1
23,822832316000,4.18,8.5,7.7,1
23,822882518000,-0.08,17.73,4.21,1
23,822932262000,7.7,-11.73,-10.84,1
23,822982341000,6.09,16.66,-14.1,1
23,823042308000,-10.23,18.81,3.6,1
23,823092265000,2.07,10.92,11.14,1
23,823142314000,-19.3,6.02,17.77,1
23,823192302000,-4.02,7.27,-0.8,1
23,823242290000,-2.68,18.81,-2.07,1
23,823292308000,0.42,19.57,-1.53,1
23,823342326000,-5.67,16.32,-15.32,1
23,823342326000,-5.67,16.32,-15.32,1
23,823402782000,6.63,-15.36,-12.91,1
23,823452434000,3.06,-6.13,-13.91,1
23,823503154000,-0.34,10.31,13.25,1
23,823554881000,-4.4,16.4,0.27,1
23,823612285000,12.15,-16.55,1.31,1
23,823672313000,-2.49,19.31,-12.6,1
23,823722331000,4.86,13.57,-0.04,1
23,823772319000,-11.69,10.27,15.28,1
23,823822337000,-16.17,3.17,10.92,1
23,823872325000,0.46,19.57,-0.53,1
23,823942332000,-3.72,19.57,-0.53,1
23,823992229000,-1.12,19.57,-11.69,1
23,824042369000,-0.3,-3.95,-14.79,1
23,824092265000,3.95,-11.92,-14.25,1
23,824142375000,1.46,-3.79,-7.46,1
23,824192302000,0.19,17.47,16.36,1
23,824242290000,-1.84,3.11,-16.13,1
23,824292308000,5.79,-4.75,-1.53,1
23,824342326000,-9.3,19.57,-6.66,1
23,824392314000,4.6,15.02,0.15,1
23,824442302000,-9.85,9.77,14.56,1
23,824492290000,-14.1,5.43,14.98,1
23,824542308000,-1.38,7.35,-2.07,1
23,824592296000,-6.59,19.53,-1.95,1
23,824642314000,2.64,19.57,-3.87,1
23,824692332000,-5.67,11.99,-15.43,1
23,824692332000,-5.67,11.99,-15.43,1
23,824752299000,7.5,-17.35,-11.3,1
23,824802836000,0.27,-2.96,-11.65,1
23,824852489000,-1.23,15.36,18.12,1
23,824903178000,8.58,1.27,-12.03,1
23,824952769000,-7.01,14.41,-9.43,1
23,825002360000,-0.27,16.09,-4.06,1
23,825052898000,-4.02,17.97,7.59,1
23,825102519000,-5.41,9.85,11.41,1
23,825153148000,-16.89,3.76,14.6,1
23,825203288000,-2.83,7.74,-1.5,1
23,825262279000,-4.06,17.16,-1.23,1
23,825322307000,3.34,19.57,-3.26,1
23,825372356000,-4.86,4.94,-14.98,1
23,825432292000,7.16,-15.17,-12.64,1
23,825492290000,1.61,-1.38,-4.56,1
23,825542308000,1.8,19.31,17.92,1
23,825592296000,1.65,-9.08,-15.47,1
23,825592296000,1.65,-9.08,-15.47,1
23,825690349000,8.43,5.01,-7.74,1
23,825742442000,7.67,12.98,1.73,1
23,825792338000,-13.4,10.57,17.05,1
23,825842235000,-12.26,2.96,9.28,1
23,825892284000,-2.91,9.04,-3.17,1
23,825942332000,-4.82,19.57,0.38,1
23,825992259000,0.76,19.57,-6.93,1
23,826042369000,-2.83,8.96,-13.91,1
23,826042369000,-2.83,8.96,-13.91,1
23,826103221000,7.5,-15.89,-12.41,1
23,826162303000,-2.26,-1.08,-8.85,1
23,826222331000,-4.75,18.58,18.24,1
23,826272288000,4.79,-2.96,-19.3,1
23,826322307000,5.13,6.4,-7.31,1
23,826372294000,-14.9,19.57,-1.08,1
23,826422313000,5.24,15.28,4.71,1
23,826472270000,-13.95,7.93,16.02,1
23,826522319000,-8.58,3.38,10.57,1
23,826572368000,-3.02,14.06,-3.57,1
23,826622325000,-2.83,19.57,0.42,1
23,826672313000,-0.15,19.57,-7.7,1
23,826722331000,-4.67,5.63,-13.95,1
23,826772319000,7.44,-17.54,-12.07,1
23,826832347000,1.31,-1.65,-11.18,1
23,826882243000,-3.76,18.39,17.16,1
23,826932262000,6.4,-1.46,-18.92,1
23,826982310000,5.67,8.16,-8.81,1
23,827032298000,-15.83,19.57,-1.61,1
23,827082347000,7.21,15.17,3.53,1
23,827132335000,-13.59,9.53,14.98,1
23,827182323000,-10.34,1.92,11.45,1
23,827232341000,-0.8,9.58,0.27,1
23,827282329000,-8.05,19.57,-2.26,1
23,827332316000,5.24,19.57,-6.28,1
23,827382304000,-5.63,8.89,-14.63,1
