user-id,timestamp,accX,accY,accZ,ActivityEncoded
8,111420521431000,9.49,11.22,-5.33,5
8,111420561927000,5.9,15.55,0.42,5
8,111420641639000,5.63,2.34,-3.26,5
8,111420681648000,3.98,-0.72,-1.23,5
8,111420721504000,2.22,0.61,-1.46,5
8,111420761573000,0.72,2.6,-2.49,5
8,111420841469000,-0.5,2.68,10.11,5
8,111420881508000,16.47,15.36,15.32,5
8,111420921638000,16.7,8.12,4.37,5
8,111420964973000,4.63,8.08,-1.99,5
8,111421041572000,0.3,5.9,-1.99,5
8,111421081550000,0.8,6.47,-2.49,5
8,111421121589000,3.15,8.73,-2.45,5
8,111421161689000,6.93,9.92,-3.49,5
8,111421241523000,9.47,1.8,-0.57,5
8,111421281562000,8.96,2.15,1.61,5
8,111421321510000,7.16,4.6,1.8,5
8,111421361549000,7.89,5.6,-2.53,5
8,111421441505000,9.96,6.32,-0.23,5
8,111421482277000,11.56,4.29,-2.98,5
8,111421521522000,13.72,4.94,0.61,5
8,111421561622000,12.22,7.46,3.87,5
8,111421641670000,10.46,10.23,-5.09,5
8,111421681495000,6.97,13.63,-2.3,5
8,111421721504000,6.47,11.11,-0.57,5
8,111421761543000,6.7,3.91,-2.96,5
8,111421841499000,2.64,0.04,-1.61,5
8,111421881508000,1.99,2.76,-2.83,5
8,111421921516000,-0.46,4.14,-1.33,5
8,111421964363000,-2.53,3.15,3.95,5
8,111422041694000,19.61,13.72,6.47,5
8,111422081550000,6.47,-0.38,2.41,5
8,111422121528000,1.23,2.49,-2.07,5
8,111422161567000,5.24,9.66,1.65,5
8,111422241523000,0.99,6.97,-2.91,5
8,111422281746000,1.69,5.37,-1.65,5
8,111422321541000,4.67,7.78,-2.76,5
8,111422403511000,10.5,3.72,-3.76,5
8,111422441536000,7.7,3.15,-0.46,5
8,111422482246000,7.27,4.33,1.57,5
8,111422521522000,8.85,4.6,0.53,5
8,111422561531000,7.63,5.94,0.53,5
8,111422641517000,12.68,4.25,-2.3,5
8,111422681495000,12.95,5.63,1.46,5
8,111422721534000,10.8,8.47,4.82,5
8,111422761665000,9.38,9.19,0.42,5
8,111422841621000,8.88,11.18,-3.76,5
8,111422881660000,8.66,10.8,-0.11,5
8,111422921547000,6.13,6.05,-1.95,5
8,111422964271000,3.68,2.15,-1.76,5
8,111423042335000,2.6,2.15,-1.95,5
8,111423081642000,0.72,3.79,-0.93,5
8,111423121528000,-1.8,3.53,2.49,5
8,111423161567000,7.04,6.4,16.4,5
8,111423241523000,8.39,3.11,2.53,5
8,111423281624000,1.42,7.44,-0.23,5
8,111423321510000,2.49,8.2,-1.14,5
8,111423361610000,2.18,8.73,-1.61,5
8,111423442146000,5.43,6.97,-2.64,5
8,111423481575000,7.63,6.89,-2.34,5
8,111423521522000,10.0,4.63,-3.06,5
8,111423561683000,8.77,3.6,0.42,5
8,111423641548000,6.82,4.44,0.23,5
8,111423681617000,7.27,5.56,-2.53,5
8,111423721626000,7.74,6.51,0.23,5
8,111423761573000,9.3,7.25,0.5,5
8,111423841499000,12.64,4.25,-1.92,5
8,111423881508000,12.34,6.59,3.34,5
8,111423921547000,10.0,8.92,2.3,5
8,111423961586000,9.38,9.0,-2.56,5
8,111424042610000,7.08,11.11,-0.72,5
8,111424081550000,8.54,8.31,-0.72,5
8,111424121559000,6.55,4.21,-2.03,5
8,111424161659000,4.99,1.54,-1.42,5
8,111424241493000,1.69,3.79,-1.5,5
8,111424281685000,-1.65,3.72,0.5,5
8,111424321541000,-1.04,2.87,6.09,5
8,111424361702000,11.3,9.19,18.43,5
8,111424401649000,19.38,11.45,6.51,5
8,111424491554000,1.76,6.36,-2.15,5
8,111424532051000,4.44,13.91,1.61,5
8,111424571541000,1.18,8.43,-2.22,5
8,111424611519000,1.99,5.41,-2.18,5
8,111424691627000,9.43,8.08,-3.72,5
8,111424732094000,11.11,4.63,-4.25,5
8,111424771522000,7.5,4.4,0.38,5
8,111424811470000,7.5,4.21,1.12,5
8,111424891517000,7.82,5.67,-0.34,5
8,111424932136000,9.28,7.55,0.42,5
8,111424971595000,11.45,5.94,-1.5,5
8,111425011543000,12.26,7.93,3.95,5
8,111425091438000,8.96,8.43,-1.27,5
8,111425131538000,10.5,8.28,-4.6,5
8,111425171669000,8.66,11.03,-2.03,5
8,111425211464000,8.43,11.11,-1.99,5
8,111425291511000,5.09,1.92,-1.76,5
8,111425332222000,4.1,0.19,-1.23,5
8,111425371498000,2.64,1.69,-2.53,5
8,111425411628000,-1.18,3.68,-1.65,5
8,111425491554000,4.44,6.93,13.82,5
8,111425532173000,19.91,16.66,6.74,5
8,111425571449000,9.92,1.57,2.49,5
8,111425611610000,-1.14,0.08,0.3,5
8,111425691536000,8.92,16.86,2.41,5
8,111425732185000,4.14,8.31,-3.6,5
8,111425771522000,2.18,4.75,-1.99,5
8,111425811470000,3.53,5.71,-3.6,5
8,111425891517000,9.96,4.94,-3.83,5
8,111425939644000,8.62,5.24,3.76,5
8,111425981544000,7.5,4.67,0.5,5
8,111426021644000,7.12,4.14,-2.53,5
8,111426061561000,6.09,7.12,0.61,5
8,111426141517000,11.37,5.86,-1.88,5
8,111426181495000,13.33,4.33,1.33,5
8,111426221504000,13.95,6.97,3.95,5
8,111426263313000,9.28,9.19,-5.18,5
8,111426341499000,8.81,10.12,-3.53,5
8,111426381538000,8.81,8.81,-1.04,5
8,111426421638000,8.01,5.71,-1.38,5
8,111426461647000,5.28,0.8,-1.69,5
8,111426541511000,2.64,2.37,-2.68,5
8,111426581642000,-0.27,4.18,-1.46,5
8,111426621528000,-3.41,4.33,1.31,5
8,111426661537000,4.37,5.13,13.4,5
8,111426741554000,11.11,4.75,3.53,5
8,111426781501000,-0.31,6.17,0.8,5
8,111426821479000,2.87,9.47,-2.45,5
8,111426861580000,4.86,9.51,-1.27,5
8,111426941658000,4.33,6.44,-1.92,5
8,111426981849000,7.25,7.12,-2.41,5
8,111427021522000,10.72,4.56,-0.99,5
8,111427061622000,9.28,2.76,-0.04,5
8,111427141517000,4.99,7.16,0.0,5
8,111427181495000,6.66,7.21,-1.84,5
8,111427221534000,6.82,5.09,-0.19,5
8,111427262672000,9.92,5.37,0.34,5
8,111427341499000,14.82,3.99,-0.53,5
8,111427381508000,13.1,7.08,2.96,5
8,111427421516000,10.11,10.08,0.19,5
8,111427461708000,8.77,10.95,-2.03,5
8,111427621345000,8.47,0.61,-2.03,5
8,111427621345000,8.47,0.61,-2.03,5
8,111427621345000,8.47,0.61,-2.03,5
8,111427661537000,5.63,-0.11,-1.08,5
8,111427741523000,1.42,5.52,-1.46,5
8,111427781654000,-1.88,4.6,1.33,5
8,111427821571000,-0.8,3.26,8.08,5
8,111427861580000,13.67,12.79,17.97,5
8,111427941536000,3.41,1.08,1.31,5
8,111427981605000,1.18,4.25,-4.21,5
8,111428021644000,4.18,12.79,3.17,5
8,111428063087000,3.87,12.15,-3.57,5
8,111428141517000,3.91,5.13,-2.11,5
8,111428181617000,6.43,7.35,-3.34,5
8,111428221656000,9.81,5.56,-4.56,5
8,111428263496000,8.66,3.41,-2.79,5
8,111428341469000,8.81,4.52,1.04,5
8,111428381508000,8.01,4.48,-1.57,5
8,111428421516000,6.74,6.13,0.5,5
8,111428461586000,10.11,6.55,-2.15,5
8,111428501808000,12.15,3.91,-2.15,5
8,111428591499000,10.0,8.66,2.98,5
8,111428632148000,9.92,9.3,-0.76,5
8,111428671577000,10.04,9.23,-5.37,5
8,111428711616000,6.7,11.96,0.15,5
8,111428791511000,6.89,4.67,-2.03,5
8,111428832100000,5.24,0.46,-1.23,5
8,111428871589000,3.41,0.31,-1.04,5
8,111428911506000,2.6,3.3,-2.72,5
8,111428991554000,-2.96,3.68,2.37,5
8,111429031776000,5.67,4.86,15.21,5
8,111429071510000,19.91,16.82,7.55,5
8,111429111519000,10.72,7.21,2.37,5
8,111429191597000,2.26,5.24,-7.08,5
8,111429232155000,-0.89,1.65,-1.5,5
8,111429271644000,0.61,4.71,-0.72,5
8,111429311561000,4.33,9.92,-2.87,5
8,111429391517000,13.38,4.6,1.61,5
8,111429431495000,9.77,2.49,-0.61,5
8,111429471504000,5.9,3.11,-0.72,5
8,111429511482000,5.67,5.33,-1.88,5
8,111429591499000,7.63,5.63,1.14,5
8,111429632179000,8.43,7.67,0.69,5
8,111429671516000,10.34,5.6,-2.3,5
8,111429711525000,13.48,3.15,-1.14,5
8,111429791542000,9.72,8.5,-2.53,5
8,111429831672000,9.47,9.7,-4.1,5
8,111429871528000,7.4,11.45,-3.15,5
8,111429911506000,6.63,9.81,-1.04,5
8,111429991615000,6.93,1.5,-1.57,5
8,111430031501000,4.25,1.04,-1.38,5
8,111430072944000,2.26,3.57,-2.37,5
8,111430111488000,0.34,5.86,-1.38,5
8,111430191475000,0.23,4.4,9.38,5
8,111430232124000,17.24,13.72,14.06,5
8,111430271614000,15.89,7.25,2.41,5
8,111430311470000,1.92,1.57,0.99,5
8,111430351661000,0.72,4.14,-0.23,5
8,111430444435000,2.34,8.62,-3.21,5
8,111430483040000,2.41,5.83,-2.3,5
8,111430521522000,4.52,6.4,-4.02,5
8,111430569801000,9.81,6.4,-4.02,5
8,111430611519000,10.99,3.15,-0.89,5
8,111430691536000,6.78,4.44,-0.72,5
8,111430732124000,6.74,5.37,-2.03,5
8,111430795509000,6.82,6.21,0.72,5
8,111430831520000,9.66,6.28,-0.46,5
8,111430871559000,11.73,3.76,-3.3,5
8,111430911506000,14.63,2.87,-0.23,5
8,111430991523000,10.11,9.85,-0.95,5
8,111431031562000,9.66,10.34,-3.83,5
8,111431071510000,7.74,11.35,-3.3,5
8,111431121498000,8.58,8.12,-0.5,5
8,111431161537000,8.08,3.26,-1.95,5
8,111431241554000,2.56,1.46,-1.31,5
8,111431281562000,2.07,3.72,-1.8,5
8,111431322090000,0.27,5.48,-0.93,5
8,111431361610000,-1.65,4.67,1.65,5
8,111431441658000,18.96,12.3,11.8,5
8,111431483467000,12.87,1.76,2.96,5
8,111431521522000,2.11,3.57,1.61,5
8,111431561683000,4.06,11.26,-1.88,5
8,111431641517000,1.99,6.78,-2.6,5
8,111431681495000,2.64,6.82,-2.6,5
8,111431721504000,4.48,7.63,-3.02,5
8,111431761604000,7.01,7.01,-3.26,5
8,111431841499000,9.92,2.76,-0.95,5
8,111431881508000,10.04,3.79,3.02,5
8,111431921547000,9.3,4.18,-1.23,5
8,111431961616000,7.25,4.79,-1.57,5
8,111432041603000,10.34,4.79,-1.88,5
8,111432082649000,10.95,1.84,-2.72,5
8,111432121498000,14.21,3.91,0.27,5
8,111432161567000,11.45,7.35,4.18,5
8,111432241493000,10.08,9.19,-2.87,5
8,111432281593000,7.89,10.46,-4.33,5
8,111432321754000,7.44,9.53,0.27,5
8,111432361549000,8.58,5.37,-1.8,5
8,111432441505000,4.1,1.88,-1.31,5
8,111432483345000,2.14,3.53,-1.99,5
8,111432521522000,-0.34,4.82,-1.12,5
8,111432561561000,-3.26,4.48,14.9,5
8,111432616066000,3.17,5.67,14.9,5
8,111432692115000,11.5,1.99,3.87,5
8,111432732032000,0.27,1.04,0.99,5
8,111432771644000,3.98,8.2,-2.49,5
8,111432811500000,4.63,9.19,-2.41,5
8,111432891517000,4.79,7.89,-2.03,5
8,111432931617000,7.01,7.01,-2.72,5
8,111432971534000,9.08,4.6,-0.04,5
8,111433011696000,9.58,3.41,-1.14,5
8,111433091591000,5.2,4.94,-0.38,5
8,111433131508000,6.85,6.36,-0.84,5
8,111433171516000,9.66,5.6,-0.31,5
8,111433211616000,10.31,5.09,-1.92,5
8,111433291511000,12.11,3.34,-3.53,5
8,111433332191000,14.9,4.67,3.87,5
8,111433371589000,11.99,8.43,1.08,5
8,111433411476000,10.11,10.95,-2.79,5
8,111433491646000,5.43,10.88,0.19,5
8,111433531501000,8.35,5.63,-1.73,5
8,111433571541000,7.97,1.42,-1.99,5
8,111433611885000,5.09,0.42,-1.33,5
8,111433691536000,1.31,5.28,-1.46,5
8,111433732124000,-1.33,5.63,0.15,5
8,111433771522000,-0.76,4.4,4.71,5
8,111433811500000,12.68,11.45,3.83,5
8,111433891517000,5.18,1.31,2.41,5
8,111433931495000,2.96,6.78,0.84,5
8,111433971595000,6.82,10.46,-3.06,5
8,111434011512000,1.61,6.05,-2.41,5
8,111434092506000,4.71,8.47,-1.92,5
8,111434131569000,8.24,7.44,-2.79,5
8,111434171608000,11.3,3.38,-0.61,5
8,111434211464000,10.11,3.72,-0.27,5
8,111434291511000,5.67,5.83,-0.57,5
8,111434331520000,6.7,5.94,-0.84,5
8,111434371498000,8.2,4.99,0.72,5
8,111434411506000,10.92,4.9,-2.79,5
8,111434491584000,13.48,3.57,-0.72,5
8,111434532173000,11.37,6.89,4.21,5
8,111434571602000,10.23,8.16,1.73,5
8,111434611580000,9.96,8.77,-1.46,5
8,111434731270000,7.89,6.55,-1.46,5
8,111434731270000,7.89,6.55,-1.46,5
8,111434771461000,7.04,1.61,-1.65,5
8,111434811470000,4.52,0.31,-1.33,5
8,111434891548000,0.8,5.24,-1.14,5
8,111434932045000,-0.65,6.21,1.31,5
8,111434971534000,1.57,4.86,7.27,5
8,111435011512000,18.5,4.82,5.67,5
8,111435096321000,6.51,1.76,2.83,5
8,111435133613000,3.57,6.28,-0.27,5
8,111435171516000,8.01,14.1,3.11,5
8,111435211525000,1.23,10.61,-3.41,5
8,111435291481000,2.64,5.33,-2.22,5
8,111435332283000,5.94,8.31,-2.45,5
8,111435371498000,11.26,6.89,-4.79,5
8,111435411537000,11.14,3.15,0.38,5
8,111435491615000,7.78,3.76,-1.08,5
8,111435532173000,6.74,5.6,-1.33,5
8,111435571510000,6.47,5.86,-0.08,5
8,111435611519000,8.24,5.63,-0.31,5
8,111435691505000,11.69,2.34,-3.11,5
8,111435732094000,14.14,5.01,2.03,5
8,111435771553000,11.5,9.62,3.98,5
8,111435811470000,9.77,9.43,0.3,5
8,111435891517000,7.35,10.23,-2.87,5
8,111435932136000,8.58,7.16,-0.11,5
8,111435971656000,6.66,4.29,-3.41,5
8,111436011512000,8.92,-0.34,-2.79,5
8,111436091469000,1.14,4.79,-3.06,5
8,111436131447000,-0.95,5.67,-0.46,5
8,111436171638000,-2.37,4.18,1.46,5
8,111436211494000,1.27,4.29,10.61,5
8,111436291450000,15.6,6.66,2.37,5
8,111436331581000,2.91,4.79,0.61,5
8,111436371498000,3.83,10.42,-2.64,5
8,111436426216000,0.27,2.96,-0.99,5
8,111436462349000,1.73,3.91,-1.38,5
8,111436541542000,10.8,9.34,-3.91,5
8,111436581550000,10.69,2.96,1.69,5
8,111436621498000,8.69,2.72,-0.23,5
8,111436661750000,5.09,4.29,-1.27,5
8,111436741493000,7.65,5.75,-1.42,5
8,111436781593000,9.58,3.99,-0.46,5
8,111436821510000,9.38,5.79,-0.31,5
8,111436861519000,10.31,4.48,-2.87,5
8,111436941475000,12.83,5.75,2.64,5
8,111436981483000,11.07,8.81,2.11,5
8,111437021797000,9.3,9.3,0.15,5
8,111437061653000,7.93,9.28,-4.86,5
8,111437141487000,8.27,6.7,-0.38,5
8,111437181617000,8.31,3.6,-1.69,5
8,111437221473000,6.36,2.26,-1.57,5
8,111437261665000,3.72,3.57,-1.46,5
8,111437341469000,-1.08,4.63,-0.27,5
8,111437381508000,-2.72,3.06,1.8,5
8,111437421516000,3.17,4.86,12.56,5
8,111437461494000,19.76,16.59,9.53,5
8,111437542244000,5.13,5.56,-0.99,5
8,111437581520000,4.75,6.24,-3.57,5
8,111437621467000,-0.27,4.25,0.0,5
8,111437661628000,0.8,7.44,-1.95,5
8,111437741523000,7.59,9.38,-3.76,5
8,111437781501000,10.42,4.6,-3.21,5
8,111437821541000,11.11,1.14,-0.8,5
8,111437861549000,8.92,1.14,1.18,5
8,111437941505000,7.4,6.28,-1.54,5
8,111437981514000,6.82,6.36,-0.08,5
8,111438022133000,10.5,5.33,-1.38,5
8,111438061561000,15.05,2.03,-3.34,5
8,111438141487000,12.15,9.3,1.27,5
8,111438181648000,10.57,11.75,2.11,5
8,111438221504000,7.74,10.57,-5.22,5
8,111438261512000,4.4,8.39,-0.95,5
8,111438341530000,7.7,4.02,-2.41,5
8,111438381508000,7.5,2.18,-2.07,5
8,111438421516000,5.09,2.34,-1.42,5
8,111438461616000,1.84,3.06,-2.11,5
8,111438542122000,-2.91,1.04,3.26,5
8,111438581520000,7.35,3.49,16.28,5
8,111438621620000,19.91,16.97,5.94,5
8,111438661537000,8.05,1.73,1.69,5
8,111438701545000,0.38,3.95,-2.96,5
8,111438791511000,2.22,6.74,-1.69,5
8,111438832069000,3.17,8.28,-2.68,5
8,111438871467000,5.13,9.0,-2.6,5
8,111438911598000,7.74,6.89,-3.34,5
8,111438991676000,9.04,2.18,0.19,5
8,111439032173000,6.24,4.79,0.04,5
8,111439071449000,7.01,7.06,-0.95,5
8,111439116493000,8.88,5.75,0.3,5
8,111439191475000,11.14,4.33,-2.34,5
8,111439232246000,13.06,2.03,-2.49,5
8,111439271614000,14.44,2.87,2.14,5
8,111439311592000,11.45,7.59,0.19,5
8,111439391517000,8.69,11.75,-5.05,5
8,111439432197000,6.05,13.18,-0.99,5
8,111439471504000,7.25,6.93,-1.95,5
8,111439511421000,6.43,2.68,-1.8,5
8,111439591499000,2.96,3.26,-1.95,5
8,111439632148000,0.27,4.67,-2.18,5
8,111439671486000,-3.34,3.57,-0.31,5
8,111439711494000,-2.68,1.8,4.4,5
8,111439791511000,17.31,11.11,2.03,5
8,111439831520000,2.72,2.34,1.92,5
8,111439871467000,0.95,6.78,-2.3,5
8,111439911476000,4.37,10.34,-1.27,5
8,111439992408000,4.71,7.46,-2.68,5
8,111440032112000,5.09,6.93,-2.34,5
8,111440071418000,7.46,5.79,-3.41,5
8,111440111549000,9.34,2.98,-1.76,5
8,111440191444000,7.59,3.76,1.76,5
8,111440232124000,7.35,5.24,-1.95,5
8,111440272072000,8.24,5.9,0.42,5
8,111440311470000,9.19,5.33,-0.27,5
8,111440391517000,13.48,1.42,-2.53,5
8,111440432106000,15.94,4.82,4.75,5
8,111440471656000,12.37,10.5,0.69,5
8,111440511482000,10.31,11.99,-4.44,5
8,111440596199000,6.09,9.89,-0.69,5
8,111440633705000,7.78,4.21,-2.64,5
8,111440671516000,6.47,0.93,-2.72,5
8,111440711677000,3.6,0.69,-1.8,5
8,111440781715000,0.19,5.6,-1.8,5
8,111440821449000,-2.87,5.05,0.42,5
8,111440861549000,-1.65,2.64,6.89,5
8,111440941505000,17.62,10.61,2.68,5
8,111440981544000,3.91,3.53,0.11,5
8,111441022072000,1.69,5.79,-2.15,5
8,111441061531000,4.02,7.55,-0.11,5
8,111441146431000,2.96,7.89,-2.26,5
8,111441182106000,5.41,7.89,-2.37,5
8,111441221534000,8.77,6.36,-3.34,5
8,111441261543000,11.14,2.96,0.91,5
8,111441341499000,6.74,3.49,0.72,5
8,111441381630000,6.4,5.98,-1.04,5
8,111441421547000,7.4,6.51,-1.04,5
8,111441461677000,9.08,4.29,-1.42,5
8,111441541511000,12.79,1.12,-3.38,5
8,111441581520000,14.14,3.17,0.95,5
8,111441621528000,10.76,8.47,3.11,5
8,111441661567000,10.38,10.08,0.11,5
8,111441741829000,7.63,10.65,-3.49,5
8,111441942970000,1.08,4.21,-2.15,5
8,111441942970000,1.08,4.21,-2.15,5
8,111441942970000,1.08,4.21,-2.15,5
8,111441942970000,1.08,4.21,-2.15,5
8,111441981910000,-1.42,4.37,-0.61,5
8,111442021522000,-3.21,3.79,1.84,5
8,111442061989000,5.79,2.83,15.62,5
8,111442141548000,11.75,4.25,3.36,5
8,111442181434000,1.27,5.9,-0.93,5
8,111442221504000,0.84,7.25,-1.33,5
8,111442263038000,2.56,8.01,-2.98,5
8,111442341560000,6.36,7.63,-2.68,5
8,111442381965000,8.77,5.86,-2.91,5
8,111442421516000,9.62,2.6,0.15,5
8,111442461525000,8.47,2.53,-0.23,5
8,111442541542000,6.36,6.24,-0.57,5
8,111442581489000,7.65,6.44,-1.31,5
8,111442621437000,8.35,6.09,1.5,5
8,111442661659000,11.45,5.6,-1.76,5
8,111442741584000,16.63,3.17,2.87,5
8,111442793007000,9.62,8.73,0.15,5
8,111442832283000,9.77,10.34,-4.44,5
8,111442871467000,8.54,11.92,-3.21,5
8,111442911476000,7.27,11.54,0.11,5
8,111442953773000,8.5,4.67,-2.41,5
8,111443041389000,2.56,1.31,-1.57,5
8,111443082893000,1.61,3.53,-2.26,5
8,111443121437000,-0.5,5.18,-1.23,5
8,111443161445000,-2.68,4.37,1.99,5
8,111443241615000,19.91,15.89,8.66,5
8,111443281593000,12.64,9.81,1.76,5
8,111443327888000,4.25,8.47,-5.83,5
8,111443371376000,-1.73,0.84,-1.23,5
8,111443411567000,-3.53,0.76,0.04,5
8,111443491707000,8.35,13.25,-4.94,5
8,111443534095000,12.37,8.96,-4.99,5
8,111443571296000,10.57,2.83,0.34,5
8,111443611519000,8.69,2.26,3.45,5
8,111443691444000,6.17,6.17,-1.38,5
8,111443731514000,5.94,5.52,-0.61,5
8,111443771675000,8.81,6.97,-0.34,5
8,111443811439000,12.11,4.56,-1.31,5
8,111443891365000,14.48,3.76,1.69,5
8,111443931617000,10.57,8.89,0.95,5
8,111443971473000,10.88,12.45,-1.33,5
8,111444011512000,5.9,11.54,-0.31,5
8,111444091469000,8.24,4.67,-1.99,5
8,111444131508000,7.89,0.23,-2.49,5
8,111444171547000,4.63,0.04,-1.84,5
8,111444211372000,2.72,3.72,-2.53,5
8,111444291816000,-2.96,6.02,-0.08,5
8,111444331489000,-3.45,3.15,4.63,5
8,111444371528000,11.3,9.77,17.5,5
8,111444411476000,18.31,11.37,2.53,5
8,111444491615000,0.11,5.6,-2.45,5
8,111444531501000,5.6,11.37,-1.5,5
8,111444573188000,3.76,7.16,-1.54,5
8,111444611549000,3.6,7.25,-2.96,5
8,111444691444000,8.01,6.85,-3.26,5
8,111444731361000,10.23,3.26,-0.46,5
8,111444771492000,9.3,1.99,0.3,5
8,111444811714000,6.02,3.45,-1.42,5
8,111444891517000,8.01,8.01,0.42,5
8,111444931312000,9.47,6.13,1.04,5
8,111444971687000,11.41,4.06,-1.69,5
8,111445011482000,11.8,1.69,0.5,5
8,111445091926000,11.6,6.97,3.98,5
8,111445131599000,9.77,12.57,-0.53,5
8,111445171486000,9.34,11.65,-4.86,5
8,111445211952000,6.36,12.53,-1.61,5
8,111445291450000,8.77,2.34,-2.68,5
8,111445331550000,5.71,-0.08,-1.57,5
8,111445371437000,3.6,1.54,-1.73,5
8,111445412178000,2.41,4.1,-2.64,5
8,111445491676000,-3.34,4.25,1.42,5
8,111445531501000,4.59,7.7,15.89,5
8,111445571541000,19.76,15.66,6.17,5
8,111445611519000,8.39,4.02,2.96,5
8,111445661598000,2.11,8.31,1.61,5
8,111445741951000,0.57,1.61,-0.72,5
8,111445781501000,3.79,8.47,-2.64,5
8,111445821693000,6.63,14.21,-6.17,5
8,111445862007000,12.64,5.09,1.8,5
8,111445941871000,7.63,5.37,-1.12,5
8,111445982734000,4.25,4.02,2.68,5
8,111446021522000,-0.23,1.57,3.45,5
8,111446062019000,0.27,2.22,0.8,5
8,111446142280000,13.17,12.03,-5.6,5
8,111446181495000,12.98,9.43,-2.76,5
8,111446221504000,11.6,7.12,-1.61,5
8,111446261512000,11.92,9.77,5.98,5
8,111446342262000,9.77,12.34,-5.22,5
8,111446381935000,8.43,8.81,-5.48,5
8,111446421547000,8.01,5.94,-4.86,5
8,111446461708000,8.77,4.33,1.12,5
8,111446542793000,2.68,3.34,-3.06,5
8,111446583107000,1.14,3.6,-1.33,5
8,111446621376000,1.61,3.95,-0.38,5
8,111446662574000,1.42,6.28,1.84,5
8,111446743416000,11.45,15.55,16.51,5
8,111446789894000,10.92,5.05,1.27,5
8,111446831398000,4.18,8.66,-1.31,5
8,111446881477000,5.43,6.47,0.19,5
8,111446921486000,5.09,6.7,-0.76,5
8,111447001442000,2.98,8.58,-1.27,5
8,111447042244000,4.86,6.24,-0.89,5
8,111447081672000,5.01,5.86,0.53,5
8,111447123329000,7.12,8.92,-0.08,5
8,111447162178000,4.02,7.21,2.64,5
8,111447244087000,3.79,6.78,1.95,5
8,111447281807000,6.17,8.5,1.46,5
8,111447321479000,5.48,9.58,3.3,5
8,111447361396000,8.31,9.11,2.91,5
8,111447401497000,10.88,10.57,4.21,5
8,111447491554000,7.55,13.53,-2.56,5
8,111447531532000,3.11,13.99,-1.65,5
8,111447571418000,1.31,11.3,-1.61,5
8,111447611519000,3.64,7.25,1.5,5
8,111447691536000,3.45,2.15,-1.27,5
8,111447731514000,2.68,3.99,-0.27,5
8,111447771492000,0.69,4.56,-1.12,5
8,111447811592000,-1.57,5.43,1.5,5
8,111447891426000,8.27,14.86,16.97,5
8,111447931617000,9.47,9.11,4.79,5
8,111447971779000,0.3,10.5,4.06,5
8,111448011360000,1.99,7.4,-1.99,5
8,111448092201000,-0.89,8.31,-1.54,5
8,111448131447000,1.88,9.34,-1.88,5
8,111448171699000,6.17,10.38,2.41,5
8,111448222084000,5.71,8.5,3.72,5
8,111448262245000,1.73,8.69,2.41,5
8,111448341499000,2.22,7.31,0.23,5
8,111448382484000,3.34,8.85,3.02,5
8,111448422035000,5.05,9.51,4.52,5
8,111448461616000,4.67,11.03,4.33,5
8,111448541633000,6.89,11.6,6.21,5
8,111448581581000,3.6,12.87,8.05,5
8,111448622078000,2.83,14.41,3.21,5
8,111448661659000,2.75,13.57,0.23,5
8,111448761512000,3.02,7.89,2.68,5
8,111448761512000,3.02,7.89,2.68,5
8,111448841530000,1.8,3.83,1.12,5
8,111448881660000,2.11,3.15,1.73,5
8,111449051399000,8.81,11.54,18.2,5
8,111449051399000,8.81,11.54,18.2,5
8,111449091377000,8.66,10.04,8.12,5
8,111449091377000,8.66,10.04,8.12,5
8,111449131477000,2.56,9.04,0.91,5
8,111449171608000,2.87,8.81,2.49,5
8,111449211677000,-0.5,9.51,1.84,5
8,111449291603000,3.45,9.19,1.38,5
8,111449331550000,2.79,8.43,2.34,5
8,111449371589000,4.86,7.46,3.41,5
8,111449411537000,5.37,7.06,4.1,5
8,111449491554000,5.56,5.9,2.03,5
8,111449531532000,7.5,7.25,0.57,5
8,111449573677000,5.98,8.39,6.93,5
8,111449611763000,7.01,9.77,-0.53,5
8,111449691475000,6.24,11.41,1.23,5
8,111449731422000,4.86,11.41,-1.95,5
8,111449771675000,4.44,11.45,-2.3,5
8,111449811409000,5.18,10.76,-1.33,5
8,111449891456000,8.31,6.85,1.31,5
8,111449931495000,7.31,4.86,1.99,5
8,111449971626000,6.85,3.49,1.61,5
8,111450011604000,6.21,4.37,2.79,5
8,111450091591000,5.41,5.43,3.06,5
8,111450131569000,4.71,6.02,3.68,5
8,111450171486000,4.75,6.66,4.29,5
8,111450211555000,3.95,6.7,5.6,5
8,111450291328000,3.26,1.84,6.93,5
8,111450331581000,3.34,1.8,6.09,5
8,111450371528000,2.49,2.6,11.14,5
8,111450411567000,1.92,2.07,8.54,5
8,111450491523000,0.65,2.07,8.08,5
8,111450531532000,0.38,2.64,6.28,5
8,111450576271000,0.95,0.99,7.27,5
8,111450613563000,0.61,-0.38,9.92,5
8,111479551674000,0.76,2.07,-0.23,1
8,111479591621000,0.15,1.42,-0.31,1
8,111479631599000,-2.45,2.45,0.57,1
8,111479711494000,-5.6,17.88,9.7,1
8,111479751594000,-2.07,17.01,2.83,1
8,111479791633000,-7.27,6.28,4.52,1
8,111479841530000,-1.69,9.53,-2.3,1
8,111479881569000,-1.54,5.9,-3.87,1
8,111479961647000,3.87,9.11,-2.18,1
8,111480001564000,4.06,11.11,-2.49,1
8,111480062721000,1.33,8.39,1.88,1
8,111480102455000,1.99,7.01,1.04,1
8,111480142189000,0.08,6.02,1.27,1
8,111480182380000,-2.64,6.13,0.53,1
8,111480261970000,1.38,8.81,-2.18,1
8,111480301674000,6.55,11.84,0.19,1
8,111480341530000,4.14,13.38,-1.92,1
8,111480382332000,-0.99,14.21,1.57,1
8,111480424995000,2.68,15.64,5.9,1
8,111480511451000,1.88,10.31,-4.44,1
8,111480553047000,5.63,12.68,5.41,1
8,111480591407000,5.52,19.04,1.69,1
8,111480711403000,2.14,4.56,0.11,1
8,111480711403000,2.14,4.56,0.11,1
8,111480751442000,-0.42,-0.46,0.38,1
8,111480791877000,-5.56,-5.2,-0.08,1
8,111480831520000,-1.65,-5.18,-0.93,1
8,111480911567000,-4.86,7.78,-0.5,1
8,111480951698000,-5.43,3.15,-8.35,1
8,111480991493000,-10.46,10.53,-10.08,1
8,111481031624000,-4.14,16.17,-11.8,1
8,111481112343000,18.73,19.61,10.53,1
8,111481151619000,7.01,8.24,11.99,1
8,111481191505000,-0.46,5.56,7.46,1
8,111481231697000,-0.5,5.48,-2.03,1
8,111481311927000,-1.57,-0.89,-2.15,1
8,111481351631000,2.72,5.6,-0.57,1
8,111481391945000,3.64,19.93,10.76,1
8,111481431648000,11.37,16.7,-9.62,1
8,111481511512000,-6.17,-4.02,-2.72,1
8,111481551735000,-8.54,-7.7,-3.87,1
8,111481591591000,-4.44,-8.01,-4.63,1
8,111481631660000,-0.76,-1.46,8.73,1
8,111481711525000,-3.64,5.67,-10.23,1
8,111481751625000,-6.36,17.35,-14.75,1
8,111481791664000,-0.95,14.48,-9.66,1
8,111481831672000,5.98,19.72,-2.41,1
8,111481911598000,12.18,9.92,14.98,1
8,111481951698000,4.06,3.76,4.63,1
8,111481991584000,1.76,2.45,0.46,1
8,111482031624000,-0.15,-0.5,-1.04,1
8,111482111671000,1.53,-0.19,-1.42,1
8,111482151558000,5.71,17.12,13.63,1
8,111482192238000,15.98,19.04,-3.91,1
8,111482231636000,5.13,5.01,-6.09,1
8,111482311592000,-9.66,-7.25,-1.42,1
8,111482351600000,-4.99,-9.58,-3.53,1
8,111482394233000,-1.27,-3.53,8.77,1
8,111482431617000,-1.38,8.24,4.59,1
8,111482471626000,-5.86,6.21,-3.99,1
8,111482551765000,1.92,20.04,-9.04,1
8,111482591652000,14.82,20.04,-2.6,1
8,111482631660000,17.46,16.82,13.67,1
8,111482711464000,5.24,2.68,4.71,1
8,111482751564000,1.84,3.17,-1.99,1
8,111482791572000,-0.8,-1.08,-0.69,1
8,111482831642000,-0.8,-2.11,-1.65,1
8,111482911598000,17.39,20.04,4.63,1
8,111482951637000,15.98,15.47,-2.83,1
8,111482991523000,0.91,4.94,-7.82,1
8,111483031624000,-9.72,-0.42,-5.83,1
8,111483111702000,-8.28,-7.74,1.18,1
8,111483152229000,-0.69,-3.21,7.27,1
8,111483191627000,-2.34,3.17,-2.22,1
8,111483231636000,-3.11,10.08,-0.61,1
8,111483311561000,6.63,19.99,0.46,1
8,111483351600000,19.91,20.04,-2.83,1
8,111483391670000,17.35,10.42,12.56,1
8,111483433967000,6.63,-0.46,8.08,1
8,111483585090000,-1.18,-2.53,1.88,1
8,111483585090000,-1.18,-2.53,1.88,1
8,111483623939000,2.91,5.09,3.34,1
8,111483661842000,18.77,19.76,-1.08,1
8,111483701515000,16.32,16.09,-0.46,1
8,111483741401000,1.04,4.71,-6.32,1
8,111483781440000,-6.85,0.61,-10.19,1
8,111483861427000,-13.33,-6.32,3.87,1
8,111483901405000,-3.15,-1.46,9.77,1
8,111483941475000,-0.65,5.52,-1.92,1
8,111483982734000,-2.91,8.16,0.23,1
8,111484061470000,12.72,20.04,-6.32,1
8,111484101570000,19.91,19.23,5.67,1
8,111484151863000,13.63,-1.84,9.04,1
8,111484192238000,6.28,-2.56,2.87,1
8,111484235450000,1.76,-1.57,0.57,1
8,111484311500000,-1.57,-1.69,-0.27,1
8,111484351509000,3.15,2.72,0.89,1
8,111484391639000,18.96,19.72,5.9,1
8,111484431587000,15.55,17.05,-0.95,1
8,111484512367000,-6.55,1.38,-9.08,1
8,111484551552000,-11.88,-4.48,-3.95,1
8,111484611061000,-12.15,-7.4,7.04,1
8,111484651588000,1.33,2.41,3.6,1
8,111484691536000,-1.92,5.6,-1.38,1
8,111484733101000,-4.6,15.32,-2.79,1
8,111484811592000,17.82,20.04,-0.93,1
8,111484851631000,19.91,15.47,12.49,1
8,111484892982000,10.19,-1.57,8.58,1
8,111484933296000,5.56,0.04,0.42,1
8,111485011573000,-1.14,-2.87,0.95,1
8,111485051674000,-1.76,-2.91,-0.53,1
8,111485091469000,1.08,-0.19,-1.38,1
8,111485131630000,16.59,17.82,4.4,1
8,111485181709000,15.01,16.04,0.15,1
8,111485263771000,-8.54,-0.8,-7.78,1
8,111485301613000,-12.3,-6.59,-1.31,1
8,111485342048000,-13.82,-8.16,4.67,1
8,111485381538000,-1.95,-1.12,10.99,1
8,111485462867000,-4.33,12.91,-2.6,1
8,111485501991000,-5.09,20.04,-8.89,1
8,111485541603000,15.32,20.04,-1.88,1
8,111485581398000,19.91,18.96,2.68,1
8,111485662452000,4.99,-3.11,5.13,1
8,111485701606000,1.53,-1.14,-0.15,1
8,111485751625000,-1.14,-1.04,-0.15,1
8,111485791572000,-2.07,-1.46,-0.53,1
8,111485831581000,0.53,-0.53,-1.38,1
8,111485880287000,16.47,16.44,11.22,1
8,111485924934000,17.86,15.47,-1.14,1
8,111486011604000,-7.93,0.76,-7.16,1
8,111486053779000,-12.34,-1.95,-7.16,1
8,111486091682000,-14.79,-6.43,1.31,1
8,111486131630000,-1.23,0.11,13.76,1
8,111486211769000,-3.21,9.53,-4.33,1
8,111486251686000,-0.23,20.04,-6.97,1
8,111486291450000,16.97,20.04,-7.78,1
8,111486332252000,19.91,18.58,9.77,1
8,111486382820000,10.42,-3.98,10.15,1
8,111486421608000,5.33,-1.5,1.88,1
8,111486511543000,-1.23,-2.56,-0.99,1
8,111486551582000,-1.73,-3.41,-2.45,1
8,111486592964000,3.72,3.34,3.87,1
8,111486631660000,19.53,19.89,6.13,1
8,111486711525000,3.49,5.33,-5.13,1
8,111486752571000,-6.09,0.8,-7.5,1
8,111486795601000,-10.04,-3.76,-2.22,1
8,111486835853000,-12.03,-4.25,-0.23,1
8,111486911567000,3.15,4.67,-1.57,1
8,111486951637000,-1.5,3.34,-3.41,1
8,111486993477000,0.34,17.54,-7.93,1
8,111487031654000,7.5,20.04,8.73,1
8,111487111488000,14.52,12.68,7.97,1
8,111487151527000,6.4,-0.34,7.78,1
8,111487191963000,3.17,-1.53,1.95,1
8,111487231575000,0.65,-1.08,-0.72,1
8,111487311622000,-0.42,-4.14,-0.76,1
8,111487311622000,-0.42,-4.14,-0.76,1
8,111487311622000,-0.42,-4.14,-0.76,1
8,111487311622000,-0.42,-4.14,-0.76,1
8,111487311622000,-0.42,-4.14,-0.76,1
8,111487311622000,-0.42,-4.14,-0.76,1
8,111487311622000,-0.42,-4.14,-0.76,1
8,111487311622000,-0.42,-4.14,-0.76,1
8,111487711860000,-1.99,3.21,0.27,1
8,111487711860000,-1.99,3.21,0.27,1
8,111487811531000,18.69,20.04,0.38,1
8,111487851478000,19.91,15.83,7.63,1
8,111491841560000,-0.5,-2.68,-2.37,1
8,111491887153000,8.35,6.74,1.8,1
8,111491963752000,12.26,14.21,-1.18,1
8,111492003853000,0.72,4.02,-4.82,1
8,111492041938000,-4.14,1.46,-6.24,1
8,111492081550000,-10.61,-3.06,-2.76,1
8,111492161567000,-3.26,-0.89,5.79,1
8,111492202186000,0.5,3.72,1.65,1
8,111492245063000,-3.11,12.45,-13.8,1
8,111492281837000,-0.93,20.04,-12.45,1
8,111492321876000,17.01,20.04,-10.19,1
8,111492411659000,8.96,-1.42,9.23,1
8,111492451576000,1.73,-1.65,5.71,1
8,111492491676000,2.6,0.19,-1.69,1
8,111492531593000,-0.76,-1.12,-0.04,1
8,111492611549000,-0.84,-1.23,-1.5,1
8,111492652260000,11.95,12.41,1.46,1
8,111492691963000,19.91,19.89,0.38,1
8,111492731636000,9.43,9.3,-3.91,1
8,111492811592000,-9.47,0.34,-5.86,1
8,111492851936000,-15.4,-4.75,-3.95,1
8,111492891670000,-11.84,-6.47,7.08,1
8,111492931617000,0.76,3.02,3.98,1
8,111493011573000,0.27,17.67,-15.09,1
8,111493053688000,7.97,19.76,-8.89,1
8,111493091621000,18.92,19.95,-2.91,1
8,111493131660000,19.91,8.47,2.45,1
8,111493211433000,3.34,-0.5,2.11,1
8,111493251869000,1.12,-1.65,1.53,1
8,111493291572000,-1.14,-1.69,1.23,1
8,111493332069000,-1.99,-1.73,0.04,1
8,111493411598000,15.98,16.17,-0.57,1
8,111493451667000,19.38,18.05,3.6,1
8,111493491646000,6.55,7.01,-3.91,1
8,111493491646000,6.55,0.8,-6.02,1
8,111493604652000,-16.25,-3.6,-4.82,1
8,111493642402000,-13.44,-5.56,4.9,1
8,111493681648000,-0.27,0.84,7.44,1
8,111493721687000,0.76,2.41,-1.14,1
8,111493721687000,0.76,2.41,-1.14,1
8,111493721687000,0.76,2.41,-1.14,1
8,111493721687000,0.76,2.41,-1.14,1
8,111493721687000,0.76,2.41,-1.14,1
8,111493721687000,0.76,2.41,-1.14,1
8,111493721687000,0.76,2.41,-1.14,1
8,111493721687000,0.76,2.41,-1.14,1
8,111494161445000,17.69,15.47,3.11,1
8,111494201576000,19.61,19.15,-1.65,1
8,111494241523000,8.62,7.01,-3.02,1
8,111494282142000,-0.38,4.71,-9.38,1
8,111494373359000,-14.86,-2.68,-1.18,1
8,111494373359000,-14.86,-2.68,-1.18,1
8,111494373359000,-14.86,-2.68,-1.18,1
8,111494373359000,-14.86,-2.68,-1.18,1
8,111494373359000,-14.86,-2.68,-1.18,1
8,111494373359000,-14.86,-2.68,-1.18,1
8,111494373359000,-14.86,-2.68,-1.18,1
8,111494373359000,-14.86,-2.68,-1.18,1
8,111494373359000,-14.86,-2.68,-1.18,1
8,111494811439000,-1.27,-3.68,1.53,1
8,111494851600000,0.38,-2.11,-2.03,1
8,111494891517000,13.06,8.77,1.14,1
8,111494931556000,19.91,19.99,-1.42,1
8,111495011451000,0.23,6.66,-11.5,1
8,111495053718000,-11.07,0.89,-6.24,1
8,111495053718000,-11.07,0.89,-6.24,1
8,111495053718000,-11.07,0.89,-6.24,1
8,111495053718000,-11.07,0.89,-6.24,1
8,111495053718000,-11.07,0.89,-6.24,1
8,111495053718000,-11.07,0.89,-6.24,1
8,111495053718000,-11.07,0.89,-6.24,1
8,111495053718000,-11.07,0.89,-6.24,1
8,111495464912000,2.56,-0.84,-1.18,1
8,111495502174000,0.08,-2.75,2.6,1
8,111495541481000,-1.73,-2.83,0.8,1
8,111495581520000,0.8,0.31,-0.84,1
8,111495661598000,19.76,17.47,0.11,1
8,111495701545000,7.93,6.74,-6.36,1
8,111495742317000,-2.11,6.44,-14.37,1
8,111495781532000,-14.02,0.93,-6.13,1
8,111495861549000,-10.08,-5.52,10.72,1
8,111495901558000,1.76,3.68,3.76,1
8,111495941536000,0.11,11.37,-7.86,1
8,111495981666000,2.07,19.93,-12.64,1
8,111496061561000,19.91,19.89,-4.48,1
8,111496101631000,17.27,3.45,11.45,1
8,111496141639000,4.33,-3.11,7.5,1
8,111496181617000,3.17,-1.42,-1.14,1
8,111496261665000,-1.99,-2.56,-0.31,1
8,111496301582000,-0.04,-1.42,-2.6,1
8,111496341652000,14.33,10.65,0.08,1
8,111496381660000,19.91,19.57,-1.18,1
8,111496435707000,4.63,6.47,-6.63,1
8,111496511604000,-15.55,-1.99,-2.96,1
8,111496551613000,-14.86,-3.06,-1.54,1
8,111496591591000,-7.74,-4.82,7.08,1
8,111496631599000,1.18,1.23,6.74,1
8,111496711586000,6.66,19.93,-15.55,1
8,111496751594000,13.29,19.42,-9.92,1
8,111496791603000,19.91,19.08,-0.19,1
8,111496831489000,17.97,4.29,4.14,1
8,111496911689000,4.14,-0.76,-0.57,1
8,111496951576000,0.95,-2.64,0.69,1
8,111496991584000,-1.18,-4.63,2.68,1
8,111497031837000,-1.08,-4.25,-1.5,1
8,111497111702000,19.89,15.98,-2.83,1
8,111497151558000,16.04,17.01,-0.84,1
8,111497191566000,1.84,5.63,-3.26,1
8,111497231636000,-2.64,2.18,-9.08,1
8,111497311561000,-15.85,-4.21,1.38,1
8,111497351600000,-5.22,-1.65,5.82,1
8,111497391578000,0.34,1.54,0.89,1
8,111497436470000,-0.5,6.17,-6.28,1
8,111497481636000,10.72,20.04,-12.34,1
8,111497561866000,19.91,8.35,2.98,1
8,111497601661000,11.33,-2.98,9.43,1
8,111497641517000,4.67,-2.49,2.98,1
8,111497681526000,1.61,-2.87,2.37,1
8,111497761573000,-2.6,-2.07,-0.08,1
8,111497801643000,-0.19,-1.14,-1.61,1
8,111497842262000,16.28,11.84,-5.48,1
8,111497881660000,19.53,18.16,0.91,1
8,111497921730000,5.63,7.89,-3.95,1
8,111498013496000,-17.05,-4.14,-1.65,1
8,111498053260000,-16.97,-2.98,3.21,1
8,111498091530000,-5.6,-0.72,7.01,1
8,111498131630000,-1.88,2.49,-1.8,1
8,111498212928000,17.62,20.04,-16.78,1
8,111498251594000,19.27,19.19,0.72,1
8,111498291603000,19.91,8.77,-11.26,1
8,111498331581000,17.43,-4.99,12.03,1
8,111498411476000,0.8,-4.18,0.84,1
8,111498411476000,0.8,-4.18,0.84,1
8,111498483558000,-3.21,-4.1,-0.95,1
8,111498483558000,-3.21,-4.1,-0.95,1
8,111498483558000,-3.21,-4.1,-0.95,1
8,111498483558000,-3.21,-4.1,-0.95,1
8,111498483558000,-3.21,-4.1,-0.95,1
8,111498483558000,-3.21,-4.1,-0.95,1
8,111498483558000,-3.21,-4.1,-0.95,1
8,111498483558000,-3.21,-4.1,-0.95,1
8,111498881660000,-0.69,2.18,-0.23,1
8,111498961494000,18.96,20.04,-16.44,1
8,111499001777000,19.91,16.32,-0.76,1
8,111499041481000,19.91,2.3,-5.48,1
8,111499081428000,15.51,-4.14,10.92,1
8,111499161506000,1.69,-2.6,1.53,1
8,111499201484000,-2.03,-3.17,1.57,1
8,111499242744000,-4.18,-3.57,-1.38,1
8,111499282539000,-0.8,-1.61,-1.38,1
8,111499361488000,19.8,16.74,-4.67,1
8,111499401466000,8.85,6.24,-5.09,1
8,111499441566000,-1.88,6.17,-12.26,1
8,111499488044000,-15.43,0.57,-1.88,1
8,111499571479000,-6.93,-1.8,0.95,1
8,111499612190000,0.76,1.12,2.45,1
8,111499651619000,-1.99,8.5,-11.75,1
8,111499691627000,15.05,20.04,-17.88,1
8,111499731605000,19.91,18.01,-8.85,1
8,111499811683000,15.43,-4.71,10.15,1
8,111499851570000,6.24,-1.61,3.53,1
8,111499891700000,2.83,-2.07,0.69,1
8,111499931953000,-0.84,-2.72,2.37,1
8,111500013435000,-0.34,-1.46,-2.18,1
8,111500051582000,14.79,7.44,-6.05,1
8,111500091652000,19.91,17.58,-1.84,1
8,111500131508000,9.96,8.12,-6.13,1
8,111500211555000,-14.29,0.84,-5.43,1
8,111500211555000,-14.29,0.84,-5.43,1
8,111500304573000,-5.71,-0.57,12.45,1
8,111500341591000,1.46,4.4,-0.53,1
8,111500381813000,2.26,8.66,-11.03,1
8,111500461616000,19.27,19.84,-13.67,1
8,111500513160000,19.91,4.25,4.94,1
8,111500553138000,10.0,-3.87,7.25,1
8,111500591560000,3.6,-3.36,3.34,1
8,111500631477000,0.99,-4.21,1.5,1
8,111500711464000,-2.91,-4.06,-0.99,1
8,111500751533000,0.99,-1.38,-2.45,1
8,111500801643000,19.08,12.68,-6.59,1
8,111500841774000,18.43,15.98,1.76,1
8,111500881721000,5.56,6.78,-7.12,1
8,111500964363000,-14.67,-1.57,-3.76,1
8,111501002235000,-17.73,-3.57,2.37,1
8,111501041603000,-7.74,-2.6,9.23,1
8,111501081703000,1.65,1.04,3.57,1
8,111501161598000,7.12,19.89,-16.02,1
8,111501201667000,16.51,19.93,-11.03,1
8,111501241646000,19.91,10.95,0.65,1
8,111501281562000,17.01,-0.99,5.28,1
8,111501361610000,2.6,-2.26,-1.04,1
8,111501521370000,12.34,5.94,-1.04,1
8,111501521370000,12.34,5.94,-1.04,1
8,111501521370000,12.34,5.94,-1.04,1
8,111501562080000,19.91,19.04,-1.76,1
8,111501601631000,15.7,8.16,-1.42,1
8,111501641670000,3.98,5.52,-10.95,1
8,111501681984000,-7.63,2.41,-8.01,1
8,111501761573000,-13.63,-2.98,6.13,1
8,111501802437000,-3.15,0.99,3.83,1
8,111501841621000,-0.15,6.13,-0.04,1
8,111501881752000,5.63,14.71,-14.9,1
8,111501961616000,19.8,14.02,-11.3,1
8,111502001564000,19.91,2.34,6.09,1
8,111502041572000,9.77,-3.91,7.27,1
8,111502081672000,2.53,-2.68,3.57,1
8,111502161598000,-0.69,-1.99,3.11,1
8,111502201667000,-2.53,-1.53,-0.19,1
8,111502242775000,0.95,-0.53,-2.11,1
8,111502284340000,18.12,13.18,-0.46,1
8,111502361610000,8.66,7.46,-7.82,1
8,111502401588000,-1.12,4.94,-11.5,1
8,111502441658000,-13.53,0.04,-6.44,1
8,111502481819000,-19.04,-6.05,-4.79,1
8,111502528358000,-9.19,-5.63,10.19,1
8,111502583229000,2.79,3.57,-1.18,1
8,111502661873000,10.34,20.04,-14.29,1
8,111502701698000,15.4,18.09,-9.0,1
8,111502741646000,19.91,11.54,-6.89,1
8,111502781624000,18.77,-3.02,7.27,1
8,111502861610000,3.36,-2.41,0.84,1
8,111502901680000,0.57,-2.6,2.96,1
8,111502941627000,-2.34,-2.49,1.5,1
8,111502981819000,-2.76,-2.03,-2.41,1
8,111503061622000,19.91,18.89,-0.23,1
8,111503101600000,15.6,13.67,-4.4,1
8,111503141609000,2.34,6.02,-7.74,1
8,111503181587000,-5.9,2.98,-6.51,1
8,111503261604000,-12.83,-5.98,2.37,1
8,111503301613000,-3.06,-2.49,3.26,1
8,111503341591000,0.38,3.57,4.52,1
8,111503381752000,-1.5,12.3,-16.32,1
8,111503461586000,18.43,15.02,-9.38,1
8,111503501594000,19.91,7.7,-2.18,1
8,111503541755000,17.2,-5.09,5.98,1
8,111503581581000,2.49,-2.91,5.37,1
8,111503661598000,-0.53,-2.96,3.83,1
8,111503701606000,-2.53,-1.61,0.65,1
8,111503741798000,-1.33,-1.08,-2.64,1
8,111503781624000,12.79,6.78,0.91,1
8,111503861610000,14.02,7.55,-3.91,1
8,111503901649000,2.75,3.3,-7.12,1
8,111503941597000,-5.67,2.72,-6.47,1
8,111503981727000,-14.25,-1.04,-4.37,1
8,111504062965000,-2.91,-1.23,6.66,1
8,111504101783000,0.72,4.21,0.69,1
8,111504141975000,3.45,12.22,-14.82,1
8,111504181648000,12.87,20.04,-12.15,1
8,111504262855000,19.91,7.08,4.06,1
8,111504301613000,13.29,-3.83,7.74,1
8,111504341591000,2.96,-2.53,4.99,1
8,111504382179000,2.64,-1.88,-0.99,1
8,111504461586000,-2.76,-3.53,-0.34,1
8,111504502327000,-0.65,-1.84,-1.65,1
8,111504543098000,14.52,7.74,-6.32,1
8,111504589393000,19.89,18.5,0.76,1
8,111504631904000,6.97,5.63,-5.24,1
8,111504711586000,-11.75,-0.38,-5.71,1
8,111504751564000,-17.47,-6.74,-1.61,1
8,111504791603000,-10.04,-4.82,12.34,1
8,111504831611000,-0.76,3.34,-0.5,1
8,111504911598000,8.47,18.47,-14.79,1
8,111504951606000,14.86,19.76,-11.84,1
8,111504991615000,19.91,14.44,-5.98,1
8,111505031593000,19.89,-1.8,3.64,1
8,111505111610000,4.59,-2.45,0.46,1
8,111505151436000,0.99,-2.53,1.27,1
8,111505191566000,-2.03,-3.11,1.73,1
8,111505231636000,-3.3,-3.36,-0.89,1
8,111505281807000,5.56,1.69,-1.04,1
8,111505361396000,17.01,13.53,0.38,1
8,111505402290000,4.4,4.99,-6.02,1
8,111505441597000,-2.45,2.83,-10.08,1
8,111505482765000,-15.17,-3.26,-3.87,1
8,111505561592000,-6.47,-2.07,11.8,1
8,111505601631000,-0.5,2.11,-4.29,1
8,111505646034000,-1.46,6.55,-4.1,1
8,111505683784000,8.39,18.89,-16.66,1
8,111505761635000,19.91,15.85,-6.02,1
8,111505801643000,18.39,-4.48,10.11,1
8,111505842598000,5.09,-3.06,4.56,1
8,111505881660000,3.6,-2.75,-0.8,1
8,111505961891000,-2.41,-3.41,0.57,1
8,111506001655000,-2.87,-4.25,-1.95,1
8,111506041603000,6.24,0.31,-1.69,1
8,111506081672000,19.91,16.59,-7.97,1
8,111506161598000,4.21,6.21,-5.83,1
8,111506201637000,-3.49,1.84,-10.08,1
8,111506241981000,-13.25,-3.17,-0.46,1
8,111506281624000,-16.55,-4.67,3.98,1
8,111506361610000,3.06,3.21,4.33,1
8,111506401619000,-0.65,5.9,-8.69,1
8,111506441658000,10.57,19.84,-17.69,1
8,111506482673000,19.23,19.19,-14.29,1
8,111506521583000,19.91,10.88,5.82,1
8,111506571541000,10.61,-3.02,8.24,1
8,111506671577000,-0.19,-3.98,3.36,1
8,111506711586000,-2.03,-4.06,-0.08,1
8,111506751625000,-2.6,-4.59,-2.34,1
8,111506791633000,8.54,1.84,-1.5,1
8,111506831642000,19.91,15.66,-5.9,1
8,111506911598000,4.33,5.79,-5.24,1
8,111506956154000,-4.1,1.84,-7.63,1
8,111507001899000,-12.49,-3.68,1.61,1
8,111507041603000,-12.72,-3.15,5.71,1
8,111507081642000,-4.67,-1.76,1.53,1
8,111507161720000,2.07,8.66,-9.15,1
8,111507201667000,16.63,20.04,-15.43,1
8,111507241676000,19.91,15.17,-7.63,1
8,111507281624000,19.91,2.53,1.04,1
8,111507361580000,2.98,-2.03,7.78,1
8,111507401497000,1.61,-1.08,-0.69,1
8,111507441627000,-0.42,-1.53,0.3,1
8,111507486274000,-1.38,-2.6,0.95,1
8,111507523170000,0.84,-1.46,-5.28,1
8,111507612678000,19.27,16.59,1.99,1
8,111507651558000,8.39,7.01,-5.37,1
8,111507691658000,-3.11,4.82,-10.61,1
8,111507731605000,-14.9,-1.04,-3.02,1
8,111507811592000,-7.63,-2.79,5.09,1
8,111507851631000,0.95,0.27,2.91,1
8,111507891639000,-1.38,4.56,-7.4,1
8,111507932258000,8.73,19.04,-16.78,1
8,111508011573000,19.91,13.14,2.26,1
8,111508053749000,17.43,-2.45,2.07,1
8,111508091560000,5.05,-2.91,7.5,1
8,111508131660000,4.02,-2.56,1.53,1
8,111508211555000,-1.08,-3.21,1.95,1
8,111508253242000,-2.18,-1.73,-1.14,1
8,111508371406000,17.92,13.44,-1.23,1
8,111508371406000,17.92,13.44,-1.23,1
8,111508411598000,5.82,3.34,-5.94,1
8,111508451637000,-1.46,2.76,-9.43,1
8,111508491737000,-13.21,0.15,-3.26,1
8,111508531624000,-14.41,-2.53,-3.45,1
8,111508612495000,2.11,0.89,5.56,1
8,111508651649000,3.17,7.74,-6.28,1
8,111508691963000,7.59,19.61,-13.25,1
8,111508731636000,14.52,18.85,-10.34,1
8,111508811622000,19.72,2.3,8.2,1
8,111508861519000,3.45,-2.56,6.66,1
8,111508901619000,2.72,-1.95,0.76,1
8,111508941597000,1.18,-3.64,3.3,1
8,111508981788000,-0.69,-3.95,2.6,1
8,111509061683000,13.06,5.63,-1.54,1
8,111509101509000,19.91,19.8,-1.57,1
8,111509141609000,14.18,9.72,-3.79,1
8,111509181648000,4.18,2.03,-6.51,1
8,111509261604000,-11.92,-1.33,-4.44,1
8,111509301521000,-12.95,-4.02,-3.06,1
8,111509341621000,-5.24,-4.21,9.34,1
8,111509381630000,2.3,2.18,2.91,1
8,111509461586000,12.22,19.99,-13.21,1
8,111509501686000,19.0,18.01,-10.38,1
8,111509541603000,19.91,10.53,-0.72,1
8,111509581672000,18.35,-2.6,4.71,1
8,111509661598000,1.92,-1.33,2.07,1
8,111509701606000,0.3,-2.18,1.69,1
8,111509741859000,-1.27,-3.11,3.3,1
8,111509781624000,-1.31,-1.23,-1.14,1
8,111509831642000,12.95,6.74,1.31,1
8,111509911598000,16.13,6.28,-3.49,1
8,111509951637000,3.98,1.54,-7.63,1
8,111509992744000,-4.71,3.17,-7.55,1
8,111510031654000,-11.73,0.61,-4.44,1
8,111510071602000,-13.44,-0.91,0.46,1
8,111510162300000,3.41,4.99,-2.18,1
8,111510201637000,4.71,14.29,-8.01,1
8,111510242073000,10.69,19.99,-8.96,1
8,111510287941000,19.11,16.97,-10.46,1
8,111510331642000,19.15,6.13,2.79,1
8,111510411964000,3.17,-2.64,6.05,1
8,111510451606000,2.6,-1.53,-0.95,1
8,111510493568000,0.42,-3.45,5.33,1
8,111510541633000,-0.11,-1.33,-3.45,1
8,111510581764000,13.78,5.56,-3.06,1
8,111510661598000,12.45,9.72,-5.86,1
8,111510711555000,0.27,2.22,-7.74,1
8,111510755043000,-5.79,0.38,-4.94,1
8,111510792518000,-11.14,-3.53,-6.09,1
8,111510831672000,-13.33,-4.48,2.07,1
8,111510912147000,4.1,5.28,-4.1,1
8,111510951606000,11.03,16.36,-10.5,1
8,111510994301000,15.28,17.58,0.57,1
8,111511034828000,18.35,12.91,-8.16,1
8,111511111610000,19.57,-1.42,11.54,1
8,111511151588000,7.25,-1.8,-1.38,1
8,111511191536000,0.69,-2.96,4.67,1
8,111511231636000,-1.5,-3.15,1.92,1
8,111511311592000,-1.99,-0.84,-1.31,1
8,111511354072000,7.82,6.24,0.89,1
8,111511391517000,19.91,19.84,-3.83,1
8,111511431587000,16.17,10.73,-1.46,1
8,111511519417000,-3.3,2.72,-8.69,1
8,111511562233000,-13.63,-4.71,-5.52,1
8,111511562233000,-13.63,-4.71,-5.52,1
8,111511562233000,-13.63,-4.71,-5.52,1
8,111511562233000,-13.63,-4.71,-5.52,1
8,111511562233000,-13.63,-4.71,-5.52,1
8,111511562233000,-13.63,-4.71,-5.52,1
8,111511562233000,-13.63,-4.71,-5.52,1
8,111511562233000,-13.63,-4.71,-5.52,1
8,111511961586000,4.86,-1.23,-0.23,1
8,111512001625000,1.27,-3.45,3.21,1
8,111512041481000,-1.12,-3.87,1.69,1
8,111512081520000,-1.14,-2.26,-2.45,1
8,111512161506000,19.91,19.95,-2.83,1
8,111512201545000,15.09,9.96,-2.6,1
8,111512243202000,2.75,3.79,-8.24,1
8,111512281593000,-4.94,2.18,-7.5,1
8,111512361549000,-15.02,-3.72,0.5,1
8,111512401497000,-3.83,-2.41,5.01,1
8,111512441566000,0.3,3.26,1.33,1
8,111512481727000,1.73,12.37,-15.51,1
8,111512561592000,18.05,16.93,-10.08,1
8,111512601631000,19.91,7.4,0.65,1
8,111512641639000,15.36,-2.87,7.89,1
8,111512681587000,4.29,-1.53,4.37,1
8,111512762428000,-0.53,-3.21,3.3,1
8,111512801613000,-1.99,-2.56,-0.08,1
8,111512841591000,0.5,-0.69,-1.65,1
8,111512881599000,14.63,11.37,-3.45,1
8,111512961586000,12.76,4.37,-1.23,1
8,111513002083000,3.95,3.76,-12.45,1
8,111513041633000,-5.98,1.38,-7.7,1
8,111513081672000,-18.16,-4.37,-8.81,1
8,111513161567000,-1.95,-0.95,6.51,1
8,111513201637000,3.06,6.74,0.19,1
8,111513241707000,4.59,16.66,-14.56,1
8,111513281654000,8.96,19.53,-8.39,1
8,111513361580000,19.91,3.49,1.31,1
8,111513402168000,12.79,-2.22,5.9,1
8,111513442299000,3.98,-1.76,4.18,1
8,111513481666000,1.69,-2.56,0.95,1
8,111513561592000,-2.03,-1.46,-0.69,1
8,111513601722000,0.34,-0.27,-2.41,1
8,111513641609000,15.89,15.66,-3.91,1
8,111513681617000,19.42,16.51,0.19,1
8,111513761573000,2.03,0.23,-10.31,1
8,111513801643000,-5.43,-0.91,-8.43,1
8,111513841591000,-13.48,-5.94,-11.73,1
8,111513881599000,-12.83,-5.79,9.62,1
8,111513961677000,-1.99,5.41,-2.26,1
8,111514002357000,2.75,15.83,-10.8,1
8,111514041481000,10.92,20.04,-9.89,1
8,111514081459000,19.91,15.4,-12.95,1
8,111514161567000,7.25,-0.61,3.79,1
8,111514201576000,3.72,-1.46,3.06,1
8,111514241646000,2.53,-1.8,0.42,1
8,111514281624000,-0.34,-2.22,2.07,1
8,111514361610000,1.31,-1.14,-2.79,1
8,111514402534000,16.47,9.51,-2.41,1
8,111514441627000,19.91,19.08,-2.79,1
8,111514481666000,11.99,8.43,-4.75,1
8,111514561500000,-7.06,1.73,-5.52,1
8,111514611519000,-11.5,-1.92,-1.5,1
8,111514651588000,-9.04,-2.53,4.79,1
8,111514691627000,-0.61,1.8,6.21,1
8,111514731636000,-2.07,15.89,-11.96,1
8,111514813270000,9.3,19.89,-9.08,1
8,111514851692000,19.19,14.94,-11.3,1
8,111514915687000,19.91,4.4,5.98,1
8,111514954811000,4.99,-2.18,5.37,1
8,111514991920000,3.36,-1.76,1.76,1
8,111515034309000,1.18,-2.53,2.72,1
8,111515111610000,-2.49,-1.04,-1.88,1
8,111515151649000,5.05,3.76,3.17,1
8,111515191597000,19.84,18.05,-4.71,1
8,111515311409000,0.27,2.76,-11.03,1
8,111515351478000,-10.42,1.38,-6.74,1
8,111515351478000,-10.42,1.38,-6.74,1
8,111515391609000,-17.86,-2.83,-6.97,1
8,111515444923000,-5.05,-3.6,13.91,1
8,111515481575000,2.6,9.3,2.07,1
8,111515561592000,2.3,20.04,-11.73,1
8,111515601692000,16.93,19.93,-14.44,1
8,111515641578000,19.91,15.64,4.99,1
8,111515681617000,13.53,-0.04,6.36,1
8,111515761757000,1.8,-1.76,-0.99,1
8,111515801613000,-1.08,-2.87,0.69,1
8,111515841591000,-3.87,-4.71,-2.72,1
8,111515881599000,-0.89,-3.17,-3.15,1
8,111515881599000,-0.89,-3.17,-3.15,1
8,111515881599000,-0.89,-3.17,-3.15,1
8,111515881599000,-0.89,-3.17,-3.15,1
8,111515881599000,-0.89,-3.17,-3.15,1
8,111515881599000,-0.89,-3.17,-3.15,1
8,111515881599000,-0.89,-3.17,-3.15,1
8,111515881599000,-0.89,-3.17,-3.15,1
8,111516281593000,-1.23,7.89,-6.66,1
8,111516361519000,19.04,20.04,-17.39,1
8,111516401527000,19.91,17.62,7.12,1
8,111516441536000,12.64,4.25,2.68,1
8,111516481544000,0.72,-2.91,10.92,1
8,111516561500000,0.46,-1.18,-0.31,1
8,111516602424000,-0.61,-1.61,0.61,1
8,111516641517000,1.84,-1.53,-1.33,1
8,111516681465000,17.31,9.34,-3.87,1
8,111516761482000,8.12,7.46,-3.34,1
8,111516807380000,-1.04,2.22,-4.33,1
8,111516852180000,-5.41,0.76,-5.28,1
8,111516891517000,-12.79,-1.42,1.5,1
8,111516891517000,-12.79,-1.42,1.5,1
8,111516891517000,-12.79,-1.42,1.5,1
8,111516891517000,-12.79,-1.42,1.5,1
8,111516891517000,-12.79,-1.42,1.5,1
8,111516891517000,-12.79,-1.42,1.5,1
8,111516891517000,-12.79,-1.42,1.5,1
8,111516891517000,-12.79,-1.42,1.5,1
8,111517291511000,1.04,-1.84,0.5,1
8,111517331489000,-1.31,-1.8,2.37,1
8,111517411537000,1.99,-1.33,-2.56,1
8,111517452186000,19.04,13.14,-7.63,1
8,111517491554000,18.47,16.09,4.52,1
8,111517532173000,4.71,5.05,-4.82,1
8,111517611580000,-8.35,-0.84,-4.4,1
8,111517661476000,-15.28,-3.68,1.8,1
8,111517701515000,-5.24,2.03,6.78,1
8,111517741676000,-1.31,3.21,0.69,1
8,111517781532000,1.18,8.08,-9.34,1
8,111517861549000,16.17,18.43,-11.8,1
8,111517901527000,19.91,15.55,-7.08,1
8,111517941475000,16.55,-2.56,8.88,1
8,111517981636000,1.95,-2.98,7.35,1
8,111518061622000,0.46,-2.87,3.98,1
8,111518101631000,-1.12,-1.5,0.76,1
8,111518141578000,-0.76,-1.38,-2.34,1
8,111518181495000,12.98,4.21,-2.96,1
8,111518261665000,15.62,10.27,-3.95,1
8,111518301613000,1.69,5.56,-9.81,1
8,111518341530000,-5.67,2.91,-7.06,1
8,111518381630000,-17.86,-0.95,-3.91,1
8,111518461616000,-3.95,-0.61,9.49,1
8,111518503730000,0.53,3.21,-4.37,1
8,111518541511000,5.79,11.73,-8.62,1
8,111518581642000,15.24,19.95,-14.14,1
8,111518661628000,19.91,3.99,-3.11,1
8,111518701667000,14.79,-2.07,7.65,1
8,111518741584000,3.41,-2.22,6.59,1
8,111518781501000,3.17,-2.07,0.0,1
8,111518821663000,0.3,-2.14,-0.08,1
8,111518911598000,-0.34,-1.42,-2.72,1
8,111518951606000,15.79,9.51,-4.4,1
8,111519005134000,18.47,14.37,0.42,1
8,111519051643000,4.44,4.02,-8.24,1
8,111519091987000,-3.38,2.79,-11.18,1
8,111519141182000,-16.4,-1.57,-4.14,1
8,111519181617000,-13.82,-2.53,5.13,1
8,111519261635000,0.46,2.96,-1.69,1
8,111519301674000,3.15,11.75,-11.84,1
8,111519345955000,15.01,20.04,-11.92,1
8,111519383827000,19.91,19.19,-3.6,1
8,111519461616000,11.26,-3.79,9.43,1
8,111519504615000,4.44,-2.83,5.05,1
8,111519546150000,3.02,-2.03,-1.12,1
8,111519584663000,-0.15,-2.41,3.3,1
8,111519664833000,-0.42,-0.91,-2.83,1
8,111519707039000,16.63,11.96,-3.49,1
8,111519744453000,19.84,17.73,-0.53,1
8,111519781746000,10.11,6.85,-5.05,1
8,111519862159000,-11.22,1.76,-6.4,1
8,111519901588000,-18.66,-3.02,-1.61,1
8,111519941627000,-12.3,-4.59,8.27,1
8,111519981727000,-0.65,1.14,2.72,1
8,111520061683000,6.89,17.24,-17.2,1
8,111520101661000,14.52,19.8,-11.3,1
8,111520141609000,19.91,15.24,-2.83,1
8,111520181495000,19.76,-2.68,4.79,1
8,111520261665000,4.67,-2.26,0.46,1
8,111520301643000,1.04,-2.56,0.5,1
8,111520341591000,-1.73,-3.26,2.56,1
8,111520341591000,-1.73,-3.26,2.56,1
8,111520431221000,7.27,4.1,0.46,1
8,111520511604000,17.01,12.87,-0.72,1
8,111520551643000,4.75,3.91,-7.08,1
8,111520591621000,-3.79,2.37,-10.88,1
8,111520632332000,-16.82,-3.64,-3.34,1
8,111520711525000,-5.13,-0.8,8.62,1
8,111520751625000,0.42,4.14,-1.12,1
8,111520791542000,0.3,10.61,-12.6,1
8,111520831672000,12.76,20.04,-14.25,1
8,111520911537000,19.91,4.44,7.16,1
8,111520952278000,10.15,-2.56,8.01,1
8,111520991615000,3.21,-1.88,4.67,1
8,111521031593000,3.72,-2.34,-0.93,1
8,111521111610000,-2.64,-2.91,-0.11,1
8,111521151619000,-1.23,-2.3,-2.45,1
8,111521191627000,13.33,4.82,-2.49,1
8,111521231544000,19.91,19.72,0.23,1
8,111521311500000,2.3,3.64,-10.88,1
8,111521351600000,-5.52,1.31,-9.28,1
8,111521391609000,-18.12,-1.76,-4.14,1
8,111521431648000,-13.44,-1.33,6.93,1
8,111521511940000,2.41,5.75,-2.87,1
8,111521551674000,2.3,12.72,-11.45,1
8,111521592170000,8.2,20.04,-11.03,1
8,111521631569000,19.61,19.99,-10.0,1
8,111521711616000,8.08,-1.61,7.89,1
8,111521751594000,2.45,-3.72,4.59,1
8,111521791572000,1.76,-3.3,0.11,1
8,111521831581000,-0.65,-3.79,2.68,1
8,111521911720000,2.83,-0.84,-2.37,1
8,111521951637000,17.88,10.0,-2.56,1
8,111521991707000,19.91,18.73,2.14,1
8,111522031654000,14.18,4.79,-3.87,1
8,111522111580000,-5.98,3.41,-10.5,1
8,111522151588000,-18.31,-1.57,-2.76,1
8,111522311439000,1.27,13.53,-12.87,1
8,111522311439000,1.27,13.53,-12.87,1
8,111522311439000,1.27,13.53,-12.87,1
8,111522352302000,8.05,19.99,-12.83,1
8,111522391609000,18.85,17.35,-15.85,1
8,111522431587000,19.91,12.45,11.14,1
8,111522514351000,2.83,-3.02,2.22,1
8,111522551826000,1.73,-3.17,-0.27,1
8,111522591652000,-1.38,-4.37,3.41,1
8,111522631660000,-3.3,-4.75,-1.88,1
8,111522712043000,18.31,10.73,-5.75,1
8,111522752235000,19.91,19.34,0.42,1
8,111522791633000,9.89,8.81,-4.14,1
8,111522831611000,-0.76,3.87,-9.43,1
8,111522911567000,-17.5,-3.68,2.68,1
8,111522961647000,-8.62,-2.79,10.53,1
8,111523001838000,0.53,2.34,-0.93,1
8,111523041603000,-0.84,5.05,-2.53,1
8,111523084633000,5.28,18.16,-15.32,1
8,111523131630000,18.96,19.57,-13.53,1
8,111523211555000,16.93,-4.18,7.97,1
8,111523251594000,4.75,-2.64,5.86,1
8,111523291511000,2.79,-3.02,1.69,1
8,111523331611000,-0.15,-2.72,2.6,1
8,111523411598000,-1.57,-1.73,-1.99,1
8,111523451576000,12.76,4.99,-4.44,1
8,111523491584000,19.91,18.96,-0.23,1
8,111523531654000,13.48,8.89,-1.27,1
8,111523611641000,-6.44,1.61,-8.2,1
8,111523652107000,-18.28,-4.71,-1.61,1
8,111523691597000,-13.29,-2.56,5.56,1
8,111523731636000,-2.83,-0.04,3.02,1
8,111523811592000,2.96,10.99,-13.1,1
8,111523851509000,16.63,20.04,-15.55,1
8,111523891609000,19.91,16.44,-11.41,1
8,111523931556000,19.91,4.56,6.51,1
8,111524012886000,5.43,-2.07,2.75,1
8,111524053779000,2.68,-1.69,-0.15,1
8,111524091560000,-0.89,-1.57,1.76,1
8,111524131660000,-3.57,-2.6,-1.14,1
8,111524211555000,16.02,8.92,0.84,1
8,111524252754000,19.91,18.92,-3.53,1
8,111524292396000,9.89,6.24,-4.82,1
8,111524331611000,-0.61,3.49,-8.28,1
8,111524415718000,-12.83,-3.11,-2.26,1
8,111524461616000,-8.92,-2.41,3.06,1
8,111524501594000,0.27,0.04,-1.08,1
8,111524541633000,-0.19,5.52,-0.61,1
8,111524581642000,7.82,16.66,-17.97,1
8,111524661659000,19.91,11.6,-2.45,1
8,111524701606000,19.08,-1.69,0.69,1
8,111524741554000,6.97,-2.45,10.19,1
8,111524781624000,6.28,-1.69,0.04,1
8,111524861610000,-1.54,-2.79,1.95,1
8,111524901619000,-3.26,-1.53,-2.53,1
8,111524941688000,9.62,4.9,-0.95,1
8,111524992744000,19.91,18.5,-3.45,1
8,111525031685000,11.69,6.4,-4.94,1
8,111525111732000,-8.16,1.8,-9.11,1
8,111525151619000,-19.23,-3.87,-8.35,1
8,111525191597000,-15.43,-6.82,13.21,1
8,111525232002000,2.6,5.71,6.4,1
8,111525311531000,6.28,18.43,-13.25,1
8,111525351631000,15.89,19.93,-12.37,1
8,111525391639000,19.91,18.54,-8.31,1
8,111525431556000,18.39,3.38,10.42,1
8,111525515052000,2.87,-3.11,1.18,1
8,111525555061000,1.46,-3.36,4.14,1
8,111525592567000,-1.38,-2.37,0.69,1
8,111525631630000,-1.23,-2.03,-2.49,1
8,111525711525000,19.91,19.65,-2.56,1
8,111525751625000,15.13,10.19,-2.07,1
8,111525791633000,3.26,4.44,-9.62,1
8,111525831611000,-5.33,3.06,-9.7,1
8,111525871650000,-18.09,-0.72,-3.11,1
8,111525871650000,-18.09,-0.72,-3.11,1
8,111525871650000,-18.09,-0.72,-3.11,1
8,111525871650000,-18.09,-0.72,-3.11,1
8,111525871650000,-18.09,-0.72,-3.11,1
8,111525871650000,-18.09,-0.72,-3.11,1
8,111525871650000,-18.09,-0.72,-3.11,1
8,111525871650000,-18.09,-0.72,-3.11,1
8,111526311439000,0.69,-2.75,4.44,1
8,111526351539000,-0.93,-1.76,-0.19,1
8,111526391517000,5.13,-0.57,-5.01,1
8,111526431526000,19.38,13.72,-2.68,1
8,111526516578000,9.04,6.55,-4.99,1
8,111526554023000,-0.5,4.75,-9.72,1
8,111526591438000,-8.54,0.46,-4.56,1
8,111526631477000,-16.09,-3.17,-5.18,1
8,111526711494000,-1.23,-0.19,4.48,1
8,111526751503000,1.08,5.6,-1.76,1
8,111526791511000,9.85,15.89,-16.44,1
8,111526831550000,15.47,19.27,-10.19,1
8,111526911598000,19.91,1.27,2.3,1
8,111526951515000,10.8,-2.6,4.52,1
8,111526991615000,1.57,-2.56,5.98,1
8,111527031562000,1.53,-2.11,1.61,1
8,111527111580000,-1.14,-1.18,0.46,1
8,111527151436000,2.45,-0.15,-1.73,1
8,111527192390000,18.28,10.73,-5.86,1
8,111527231605000,19.84,16.93,1.99,1
8,111527311744000,0.57,3.91,-9.34,1
8,111527352180000,-9.04,1.38,-4.4,1
8,111527396309000,-16.32,-1.84,-1.5,1
8,111527435707000,-9.43,-3.36,6.82,1
8,111527517006000,-0.38,5.05,-2.41,1
8,111527554176000,11.07,18.66,-16.28,1
8,111527591591000,19.8,18.66,-11.35,1
8,111527673103000,17.92,-1.04,2.79,1
8,111527711555000,4.99,-0.57,6.05,1
8,111527751594000,4.18,-2.18,4.56,1
8,111527791542000,2.75,-2.6,2.45,1
8,111527831642000,-0.04,-1.88,2.3,1
8,111527911598000,7.35,1.23,-2.6,1
8,111527951606000,19.91,17.24,-4.63,1
8,111527991615000,16.47,13.38,0.15,1
8,111528031776000,4.02,3.99,-6.44,1
8,111528111519000,-14.82,-2.45,-4.67,1
8,111528151619000,-15.75,-3.36,1.95,1
8,111528191597000,-6.02,-1.99,9.62,1
8,111528231666000,1.46,3.38,-0.27,1
8,111528311592000,14.02,20.04,-12.07,1
8,111528351631000,19.38,16.86,-7.08,1
8,111528391548000,19.91,6.32,0.42,1
8,111528431587000,15.7,-2.34,2.22,1
8,111528511635000,2.45,-2.83,1.12,1
8,111528552162000,0.57,-2.83,4.06,1
8,111528591621000,-1.31,-1.92,0.95,1
8,111528632087000,1.99,0.15,-2.26,1
8,111528715004000,19.91,18.66,-1.57,1
8,111528754982000,11.22,3.79,-2.11,1
8,111528792549000,3.21,2.37,-9.23,1
8,111528831550000,-4.18,1.46,-6.74,1
8,111528911598000,-13.48,-4.29,3.53,1
8,111528957649000,-1.61,-0.19,4.99,1
8,111528994941000,0.5,6.78,-4.37,1
8,111529034095000,5.37,16.25,-13.82,1
8,111529111610000,19.91,16.02,-3.76,1
8,111529231392000,2.45,-2.56,4.52,1
8,111529231392000,2.45,-2.56,4.52,1
8,111529231392000,2.45,-2.56,4.52,1
8,111529311592000,-0.46,-1.53,2.18,1
8,111529311592000,-0.46,-1.53,2.18,1
8,111529404976000,10.61,2.15,-2.83,1
8,111529441597000,19.91,17.35,-6.44,1
8,111529481636000,17.35,11.07,1.31,1
8,111529561653000,-3.3,3.99,-11.41,1
8,111529602058000,-16.09,-0.46,-5.05,1
8,111529641639000,-16.7,-2.11,6.51,1
8,111529683082000,-4.37,0.8,9.7,1
8,111529761482000,2.83,13.1,-7.5,1
8,111529801674000,11.26,20.04,-11.14,1
8,111529841621000,19.57,18.66,-14.02,1
8,111529881660000,19.91,9.53,4.33,1
8,111529961647000,2.96,-4.56,6.24,1
8,111530001716000,2.18,-4.52,1.99,1
8,111530042274000,-0.5,-3.53,3.95,1
8,111530081733000,-1.88,-1.69,-0.76,1
8,111530161598000,17.46,14.29,-5.28,1
8,111530201606000,19.27,16.09,0.84,1
8,111530241615000,8.85,5.28,-3.68,1
8,111530282386000,0.23,4.86,-12.98,1
8,111530336342000,-16.55,0.57,-5.37,1
8,111530411598000,-8.39,-3.6,6.97,1
8,111530451912000,3.45,2.91,7.7,1
8,111530492073000,2.03,11.18,-17.43,1
8,111530532509000,9.77,20.04,-12.45,1
8,111530615059000,19.91,14.98,-2.3,1
8,111530652504000,17.31,-2.64,6.4,1
8,111530692115000,6.78,-3.91,6.4,1
8,111530731666000,5.56,-4.99,3.36,1
8,111530811897000,-1.42,-2.53,-0.53,1
8,111530851600000,2.03,-0.65,-3.17,1
8,111530891548000,16.44,11.18,-4.02,1
8,111530932258000,19.91,19.04,-3.76,1
8,111531011543000,2.22,5.18,-10.88,1
8,111531053016000,-10.57,1.27,-6.21,1
8,111531099495000,-18.81,-4.79,0.46,1
8,111531142219000,-9.34,-4.02,6.17,1
8,111531181862000,-0.72,3.87,2.91,1
8,111531261604000,11.6,19.99,-13.06,1
8,111531301643000,17.5,14.71,-10.88,1
8,111531341621000,19.91,11.88,-15.47,1
8,111531381691000,18.85,-4.21,9.34,1
8,111531461616000,2.49,-3.91,0.65,1
8,111531501625000,-1.08,-4.56,1.95,1
8,111531501625000,-1.08,-4.56,1.95,1
8,111531569130000,-2.64,-4.56,-2.79,1
8,111531569130000,-2.64,-4.56,-2.79,1
8,111531569130000,-2.64,-4.56,-2.79,1
8,111531569130000,-2.64,-4.56,-2.79,1
8,111531569130000,-2.64,-4.56,-2.79,1
8,111531569130000,-2.64,-4.56,-2.79,1
8,111531569130000,-2.64,-4.56,-2.79,1
8,111531569130000,-2.64,-4.56,-2.79,1
8,111532002021000,7.08,20.04,-11.84,1
8,111532046394000,19.65,18.39,-14.9,1
8,111532084022000,19.89,8.2,12.83,1
8,111532161506000,3.45,-3.06,3.26,1
8,111532201576000,1.69,-2.75,1.42,1
8,111532241523000,-1.46,-2.72,1.46,1
8,111532281593000,-1.99,-2.37,-0.8,1
8,111532361519000,19.91,18.96,-4.48,1
8,111532401497000,15.94,10.15,-3.15,1
8,111532441505000,2.41,6.36,-13.02,1
8,111532481727000,-9.85,2.96,-8.24,1
8,111532525245000,-19.27,-3.83,-1.46,1
8,111532611549000,0.04,-0.46,3.83,1
8,111532651527000,2.14,8.31,-1.12,1
8,111532692207000,8.39,19.34,-16.17,1
8,111532741554000,13.72,15.6,-8.81,1
8,111532781593000,19.91,11.5,-6.63,1
8,111532861580000,4.44,-2.96,8.05,1
8,111532901680000,2.83,-3.26,0.72,1
8,111532941658000,0.11,-2.45,2.6,1
8,111532981697000,-2.34,-2.14,1.5,1
8,111533063453000,11.75,6.44,-3.49,1
8,111533101509000,19.91,18.7,-3.21,1
8,111533157783000,10.92,5.05,-7.31,1
8,111533201637000,-1.27,5.63,-15.28,1
8,111533248726000,-15.47,2.03,-8.16,1
8,111533291603000,-16.36,-5.05,8.54,1
8,111533331642000,-3.41,3.45,10.65,1
8,111533411598000,2.75,16.7,-12.6,1
8,111533451576000,8.2,19.93,-12.15,1
8,111533491615000,19.7,19.42,-12.03,1
8,111533531685000,19.91,5.6,10.8,1
8,111533612129000,1.14,-6.13,5.05,1
8,111533654762000,1.53,-5.13,3.49,1
8,111533692115000,-0.76,-3.34,1.5,1
8,111533731666000,-0.69,-1.61,-1.54,1
8,111533811622000,19.91,18.31,-3.83,1
8,111533851631000,13.72,13.48,-1.42,1
8,111533891639000,3.26,3.99,-6.89,1
8,111533931587000,-2.83,1.54,-9.08,1
8,111534011451000,-15.24,-4.82,1.27,1
8,111534054268000,-4.1,-0.5,9.0,1
8,111534091621000,-0.31,2.37,-4.99,1
8,111534131569000,4.71,12.15,-8.35,1
8,111534217567000,17.97,15.4,-10.19,1
8,111534255439000,19.91,6.05,-3.83,1
8,111534292946000,15.7,-3.41,7.21,1
8,111534331581000,2.96,-4.14,6.17,1
8,111534411842000,-0.93,-3.15,3.34,1
8,111534451606000,-2.76,-1.61,-0.27,1
8,111534491646000,0.89,-0.3,-1.31,1
8,111534531715000,17.12,11.56,1.38,1
8,111534611671000,10.34,3.95,-4.52,1
8,111534651619000,0.76,3.91,-10.31,1
8,111534691963000,-9.34,1.23,-4.94,1
8,111534731575000,-16.78,-1.73,-4.37,1
8,111534811622000,-0.19,0.61,3.68,1
8,111534851631000,1.27,5.24,-1.5,1
8,111534891609000,6.93,15.83,-16.82,1
8,111534931617000,11.54,19.76,-9.7,1
8,111535011573000,19.91,-0.95,1.61,1
8,111535053718000,7.35,-3.64,6.47,1
8,111535091560000,2.91,-3.83,4.71,1
8,111535131630000,1.65,-2.37,1.18,1
8,111535182411000,-1.69,-2.37,1.18,1
8,111535261635000,12.07,5.09,-0.42,1
8,111535301521000,19.91,19.27,-2.87,1
8,111535342018000,13.78,7.46,-1.92,1
8,111535381538000,3.41,2.56,-8.12,1
8,111535461647000,-14.82,-2.83,-5.52,1
8,111535501655000,-14.56,-6.24,4.71,1
8,111535541664000,-2.98,1.04,6.09,1
8,111535581672000,0.84,6.47,-2.6,1
8,111535661598000,12.72,20.04,-11.11,1
8,111535701637000,19.76,16.47,-12.91,1
8,111535741737000,19.91,3.79,8.16,1
8,111535792946000,6.13,-4.59,7.74,1
8,111535831581000,3.95,-3.79,2.91,1
8,111535911567000,-0.42,-2.45,1.57,1
8,111535951606000,0.34,-1.08,-2.53,1
8,111535991615000,15.09,5.71,-3.57,1
8,111536081672000,11.18,6.28,-4.56,1
8,111536242408000,-11.8,-3.6,4.02,1
8,111536242408000,-11.8,-3.6,4.02,1
8,111536242408000,-11.8,-3.6,4.02,1
8,111536242408000,-11.8,-3.6,4.02,1
8,111536281990000,-1.46,0.15,7.44,1
8,111536361610000,3.64,16.59,-15.51,1
8,111536404701000,9.34,19.99,-8.35,1
8,111536441658000,19.53,16.4,-9.53,1
8,111536481636000,19.91,1.92,3.53,1
8,111536561714000,3.68,-3.06,2.75,1
8,111536601600000,1.88,-2.56,1.38,1
8,111536642311000,-1.12,-2.79,2.83,1
8,111536681617000,-2.68,0.31,-4.37,1
8,111536761573000,19.91,16.97,-4.99,1
8,111536801613000,18.07,13.53,0.15,1
8,111536841621000,5.86,4.99,-6.97,1
8,111536887489000,-3.38,4.1,-12.07,1
8,111536926552000,-17.73,-2.3,0.38,1
8,111537011604000,-4.33,-2.64,8.39,1
8,111537053749000,-0.19,2.64,-0.19,1
8,111537091560000,3.64,10.88,-11.37,1
8,111537131691000,14.18,20.04,-14.82,1
8,111537171730000,18.92,15.98,-5.22,1
8,111537262916000,12.76,-2.91,9.19,1
8,111537301521000,4.1,-3.11,7.46,1
8,111537341621000,3.02,-1.92,-0.76,1
8,111537381508000,-0.31,-2.45,3.83,1
8,111537461616000,2.07,-0.5,-2.96,1
8,111537501655000,17.39,11.65,-4.25,1
8,111537541694000,19.91,15.51,1.76,1
8,111537582222000,11.95,4.14,-4.71,1
8,111537661628000,-12.45,1.76,-6.4,1
8,111537701729000,-17.88,-1.88,-2.11,1
8,111537741615000,-8.66,-3.06,10.99,1
8,111537781532000,2.68,4.06,5.05,1
8,111537861610000,6.36,20.04,-13.8,1
8,111537901497000,17.5,18.2,-12.34,1
8,111537941627000,19.91,14.02,1.65,1
8,111537981575000,15.83,-0.34,5.71,1
8,111538061653000,4.06,-1.38,-0.15,1
8,111538101600000,1.5,-2.49,3.87,1
8,111538141609000,-0.72,-1.99,1.12,1
8,111538181617000,-0.69,-0.65,-2.6,1
8,111538261604000,19.91,19.5,0.3,1
8,111538301521000,12.18,9.77,-5.37,1
8,111538341591000,1.42,3.34,-8.77,1
8,111538381508000,-6.7,1.38,-7.06,1
8,111538461555000,-14.33,-5.05,3.57,1
8,111538501625000,-2.53,-2.11,9.96,1
8,111538541725000,0.57,3.26,-0.69,1
8,111538581611000,4.29,11.41,-12.83,1
8,111538661659000,18.66,14.82,-11.14,1
8,111538701606000,19.91,6.89,-0.23,1
8,111538741737000,14.21,-2.26,7.82,1
8,111538781532000,4.25,-2.45,7.78,1
8,111538861519000,1.23,-3.3,3.95,1
8,111538901588000,-1.73,-2.87,0.84,1
8,111538941627000,-0.53,-1.46,-3.49,1
8,111538981605000,14.71,8.16,-1.65,1
8,111539061836000,11.3,7.86,-3.99,1
8,111539101509000,1.95,2.87,-9.38,1
8,111539141639000,-8.01,0.31,-6.78,1
8,111539182228000,-18.31,-3.3,-3.87,1
8,111539241676000,-7.78,-1.88,12.3,1
8,111539281654000,-0.19,3.68,-0.76,1
8,111539361763000,9.23,19.93,-14.02,1
8,111539401497000,17.5,19.08,-11.26,1
8,111539441627000,19.91,12.64,-9.0,1
8,111539481636000,17.5,-0.61,8.01,1
8,111539561470000,7.08,-3.49,0.19,1
8,111539601631000,2.07,-3.57,4.48,1
8,111539641609000,-1.23,-2.26,0.42,1
8,111539681648000,-1.27,-1.38,-3.72,1
8,111539761757000,19.91,19.15,-3.6,1
8,111539801521000,13.72,6.24,-2.72,1
8,111539841591000,2.91,5.43,-13.95,1
8,111539881538000,-10.12,2.18,-6.74,1
8,111539961494000,-13.25,-3.02,2.79,1
8,111540001655000,-1.92,-2.18,8.92,1
8,111540041664000,0.5,8.47,-3.41,1
8,111540081642000,5.33,18.31,-17.69,1
8,111540161598000,19.72,14.63,-5.75,1
8,111540201698000,19.91,3.15,0.89,1
8,111540241829000,9.85,-4.67,12.37,1
8,111540281624000,4.99,-2.64,-0.57,1
8,111540361610000,-1.8,-4.63,2.34,1
8,111540401619000,-3.87,-4.02,-1.99,1
8,111540441597000,1.95,-0.84,-2.64,1
8,111540481727000,17.67,14.1,-5.33,1
8,111540561622000,8.24,2.6,-5.09,1
8,111540601631000,-0.23,2.6,-14.06,1
8,111540641639000,-12.98,0.57,-5.22,1
8,111540681648000,-18.96,-2.07,0.69,1
8,111540761696000,0.69,3.02,4.9,1
8,111540801643000,2.3,9.23,-7.74,1
8,111540841591000,11.88,20.04,-15.7,1
8,111540881691000,16.55,16.82,-10.12,1
8,111540961647000,19.27,-3.76,7.31,1
8,111541002052000,4.99,-3.95,7.35,1
8,111541041664000,4.99,-3.53,0.0,1
8,111541081611000,1.38,-3.64,3.57,1
8,111541161506000,-2.53,-1.61,-2.6,1
8,111541201576000,8.43,1.61,-1.76,1
8,111541241707000,19.91,17.43,-1.99,1
8,111541296394000,11.22,7.93,-4.1,1
8,111541334144000,1.8,3.6,-8.39,1
8,111541411598000,-16.86,-2.07,-2.98,1
8,111541451606000,-14.67,-2.64,1.73,1
8,111541491615000,-3.3,-1.76,4.37,1
8,111541531624000,0.8,5.6,0.53,1
8,111541611610000,12.56,18.5,-10.61,1
8,111541654823000,19.42,10.27,-5.56,1
8,111541692238000,19.91,0.57,-2.87,1
8,111541731544000,12.64,-3.21,7.86,1
8,111541771675000,4.82,-3.3,6.78,1
8,111541832222000,2.14,-2.75,3.06,1
8,111541911567000,-1.61,-0.76,-2.49,1
8,111541951637000,11.6,5.01,-3.21,1
8,111541992134000,19.91,19.8,-3.11,1
8,111542031624000,14.37,7.16,-3.38,1
8,111542111610000,-5.01,2.6,-9.28,1
8,111542151588000,-17.77,0.08,-4.29,1
8,111542191566000,-15.21,-1.14,4.94,1
8,111542231605000,-3.53,-0.72,10.65,1
8,111542311653000,7.59,16.21,-14.37,1
8,111542351570000,11.65,19.15,-11.3,1
8,111542391639000,19.8,14.25,-7.5,1
8,111542431617000,19.91,3.87,1.08,1
8,111542511604000,5.71,-1.42,3.87,1
8,111542551582000,3.53,-1.46,-0.11,1
8,111542593910000,-0.34,-3.21,4.02,1
8,111542632179000,-2.26,-1.53,-1.46,1
8,111542711647000,19.57,17.08,-0.53,1
8,111542751655000,18.39,15.05,-5.67,1
8,111542791603000,6.74,2.53,-6.89,1
8,111542831611000,-1.99,2.15,-11.03,1
8,111542881660000,-17.47,-1.38,-8.85,1
8,111542961616000,-2.56,0.42,14.33,1
8,111543001899000,0.19,3.87,-3.41,1
8,111543041664000,2.83,9.23,-5.63,1
8,111543161415000,19.91,9.23,-5.63,1
8,111543161415000,19.91,9.23,-5.63,1
8,111543202034000,16.55,-4.18,8.69,1
8,111543241737000,3.95,-3.76,8.08,1
8,111543281624000,3.83,-3.02,0.19,1
8,111543361763000,-2.3,-1.95,1.27,1
8,111543401588000,-0.04,-0.69,-3.68,1
8,111543441627000,14.79,7.01,1.76,1
8,111543481514000,19.91,20.04,-4.52,1
8,111543561592000,1.33,3.11,-8.24,1
8,111543601509000,-5.75,0.19,-5.79,1
8,111543641609000,-16.7,-2.45,-7.7,1
8,111543681617000,-16.86,-4.71,1.08,1
8,111543761665000,3.49,8.31,-0.53,1
8,111543801613000,4.82,13.02,-14.67,1
8,111543841591000,11.03,19.99,-13.14,1
8,111543881630000,19.23,16.7,-12.26,1
8,111543961616000,14.75,-3.95,8.35,1
8,111544001533000,4.18,-3.45,7.21,1
8,111544042244000,2.83,-2.26,0.27,1
8,111544081672000,-0.31,-2.6,3.95,1
8,111544121681000,-1.76,-1.65,-0.53,1
8,111544211586000,19.3,14.25,-2.22,1
8,111544251655000,18.81,15.85,-1.46,1
8,111544291603000,6.7,4.33,-5.9,1
8,111544331550000,-2.3,3.17,-9.77,1
8,111544411628000,-15.02,-1.73,-1.14,1
8,111544451606000,-7.78,-2.96,6.59,1
8,111544491615000,0.76,2.68,6.7,1
8,111544531593000,2.68,8.58,-10.08,1
8,111544611641000,16.74,15.98,-10.34,1
8,111544651619000,19.91,10.69,-2.76,1
8,111544691505000,16.85,-0.5,2.64,1
8,111544731575000,3.68,-1.33,9.53,1
8,111544811592000,2.6,-2.98,2.98,1
8,111544851600000,0.42,-2.6,2.64,1
8,111544891609000,0.23,-0.65,-2.87,1
8,111544931617000,13.29,5.41,-0.57,1
8,111545011604000,14.1,10.5,-6.51,1
8,111545062080000,0.65,3.99,-8.77,1
8,111545101600000,-8.62,0.99,-5.05,1
8,111545141639000,-17.92,-2.11,-6.78,1
8,111545181678000,-15.6,-4.29,5.37,1
8,111545261635000,3.15,7.35,-1.31,1
8,111545301643000,8.5,16.93,-16.59,1
8,111545341621000,10.27,18.77,-10.27,1
8,111545385933000,19.76,14.1,-5.18,1
8,111545461616000,11.65,-0.99,8.05,1
8,111545501564000,4.4,-2.79,7.82,1
8,111545541603000,4.29,-2.75,0.91,1
8,111545581642000,0.76,-2.83,3.87,1
8,111545663459000,5.75,1.27,-1.31,1
8,111545701606000,19.34,14.79,-1.88,1
8,111545741646000,17.97,15.02,-3.26,1
8,111545781593000,7.08,3.57,-4.79,1
8,111545821693000,-1.42,3.6,-10.69,1
8,111545911537000,-14.18,0.76,-0.04,1
8,111545951606000,-7.16,-2.3,6.24,1
8,111545991584000,1.5,2.91,8.73,1
8,111546037574000,4.48,11.26,-15.79,1
8,111546082222000,8.85,19.57,-11.65,1
8,111546163063000,19.91,7.5,-2.56,1
8,111546201606000,15.89,-3.83,8.2,1
8,111546241615000,3.79,-3.57,7.44,1
8,111546281715000,3.57,-2.98,-0.57,1
8,111546361580000,-2.41,-3.02,-0.34,1
8,111546401619000,1.76,-0.38,-2.6,1
8,111546446174000,18.07,14.25,-4.94,1
8,111546485054000,19.5,15.66,-0.46,1
8,111546563453000,-0.99,4.18,-13.14,1
8,111546601661000,-14.25,0.19,-4.52,1
8,111546641609000,-18.01,-2.26,0.15,1
8,111546681617000,-11.22,-3.53,8.16,1
8,111546761635000,0.89,6.74,-4.67,1
8,111546801490000,12.95,19.57,-17.31,1
8,111546841591000,16.59,18.31,-10.73,1
8,111546881630000,19.91,10.99,-3.3,1
8,111546961647000,6.05,-2.37,7.16,1
8,111547001838000,6.09,-2.72,1.08,1
8,111547041603000,1.65,-3.53,3.91,1
8,111547081672000,-1.5,-2.11,0.72,1
8,111547161720000,11.6,5.37,-2.07,1
8,111547201667000,19.91,19.38,-2.34,1
8,111547241493000,14.29,8.43,-5.33,1
8,111547282173000,3.95,3.99,-12.15,1
8,111547364784000,-18.35,-0.53,-4.82,1
8,111547412819000,-12.91,-4.06,8.92,1
8,111547452125000,0.04,2.45,7.82,1
8,111547491615000,0.23,8.43,-3.3,1
8,111547531654000,7.78,18.89,-16.36,1
8,111547611610000,19.91,14.52,-13.48,1
8,111547651619000,19.91,2.26,7.31,1
8,111547691627000,9.66,-4.63,5.48,1
8,111547731666000,2.6,-4.37,2.14,1
8,111547813911000,-1.92,-3.11,2.14,1
8,111547851661000,-2.26,-1.8,-2.6,1
8,111547891609000,8.62,2.49,0.27,1
8,111547931587000,19.91,17.92,-0.34,1
8,111548011573000,6.78,3.06,-6.89,1
8,111548053718000,-4.82,4.06,-10.8,1
8,111548091530000,-16.59,1.54,-5.63,1
8,111548131630000,-17.43,-1.69,1.27,1
8,111548171882000,-4.9,-3.34,15.28,1
8,111548261635000,7.82,15.7,-15.6,1
8,111548301643000,10.95,19.08,-10.23,1
8,111548341591000,19.72,14.29,-11.92,1
8,111548381660000,19.91,6.82,3.45,1
8,111548461555000,4.99,-2.34,5.75,1
8,111548501533000,4.33,-2.18,0.42,1
8,111548541603000,0.38,-3.02,4.06,1
8,111548581672000,-1.38,-1.69,-1.04,1
8,111548661598000,18.28,12.07,1.38,1
8,111548701637000,19.84,17.69,-3.72,1
8,111548741768000,10.27,4.37,-5.56,1
8,111548783455000,-0.04,4.25,-10.73,1
8,111548861610000,-17.82,-0.99,-5.94,1
8,111548901527000,-13.95,-6.47,8.24,1
8,111548941627000,0.38,1.99,9.19,1
8,111548981666000,4.56,10.99,-7.97,1
8,111549064888000,15.4,16.09,-9.23,1
8,111549105079000,19.91,12.15,-7.7,1
8,111549142616000,19.91,-1.46,4.82,1
8,111549181648000,9.53,-4.37,4.1,1
8,111549263282000,2.22,-4.02,2.41,1
8,111549304390000,-1.27,-2.41,1.14,1
8,111549341743000,-1.54,-1.65,-2.72,1
8,111549381599000,10.5,5.33,-0.95,1
8,111549421730000,19.91,19.19,-0.65,1
8,111549547004000,-1.61,0.38,-9.47,1
8,111549547004000,-1.61,0.38,-9.47,1
8,111549591469000,-12.53,-2.56,-10.04,1
8,111549631660000,-14.44,-5.05,-3.38,1
8,111549711616000,3.36,8.62,-0.72,1
8,111549751625000,0.3,14.48,-15.85,1
8,111549791664000,5.94,20.04,-9.66,1
8,111549831672000,18.62,17.88,-7.06,1
8,111549911476000,12.53,-1.31,6.21,1
8,111549951637000,2.96,-4.48,8.39,1
8,111549991615000,2.26,-2.45,-0.15,1
8,111550031593000,19.0,15.24,-2.96,1
8,111550191414000,19.0,15.24,-2.96,1
8,111550191414000,19.0,15.24,-2.96,1
8,111550191414000,19.0,15.24,-2.96,1
8,111550231636000,7.04,3.3,-5.79,1
8,111550311622000,-12.53,-0.34,-4.75,1
8,111550351631000,-16.17,-1.31,-1.14,1
8,111550391609000,-11.35,-3.68,7.59,1
8,111550431617000,1.73,0.69,5.18,1
8,111550511604000,6.32,17.92,-16.25,1
8,111550551613000,11.14,19.72,-9.28,1
8,111550591621000,19.91,16.25,-5.6,1
8,111550631630000,19.89,1.99,1.08,1
8,111550711677000,3.79,-1.46,1.76,1
8,111550751564000,1.99,-1.88,-0.72,1
8,111550793281000,-0.95,-3.11,4.56,1
8,111550831520000,-1.92,-2.45,-1.54,1
8,111550911598000,19.72,16.02,-4.67,1
8,111550951606000,18.28,14.67,1.95,1
8,111550991523000,6.21,4.82,-5.56,1
8,111551031654000,-0.99,2.83,-10.53,1
8,111551111580000,-18.09,-4.14,-1.88,1
8,111551151588000,-6.47,-2.22,14.52,1
8,111551191597000,1.5,2.98,-0.5,1
8,111551231575000,1.5,7.82,-7.89,1
8,111551311561000,18.81,18.62,-6.82,1
8,111551351600000,19.91,7.12,-3.99,1
8,111551391609000,18.85,-2.83,6.66,1
8,111551431617000,6.78,-4.02,8.27,1
8,111551512672000,-0.27,-3.06,2.45,1
8,111551552528000,-2.34,-2.72,1.57,1
8,111551591652000,-1.31,-1.88,-2.22,1
8,111551631630000,11.41,5.43,-1.76,1
8,111551711647000,16.47,7.7,-2.03,1
8,111551751594000,4.94,2.96,-8.96,1
8,111551791511000,-4.33,2.68,-8.69,1
8,111551835640000,-14.56,-0.04,-1.46,1
8,111551881660000,-11.88,0.38,5.24,1
8,111551961616000,3.3,4.86,-3.57,1
8,111552001503000,5.86,17.05,-12.15,1
8,111552041603000,12.53,19.04,-9.38,1
8,111552081672000,19.84,12.53,-5.24,1
8,111552161598000,7.93,-2.11,12.87,1
8,111552201637000,3.26,-1.88,3.79,1
8,111552241676000,1.8,-1.84,-0.53,1
8,111552281624000,-0.84,-2.6,3.06,1
8,111552361610000,3.17,-0.84,-3.11,1
8,111552401619000,18.39,10.61,-2.45,1
8,111552441627000,19.61,18.35,-0.11,1
8,111552481544000,7.44,5.48,-6.28,1
8,111552561470000,-12.15,0.27,-3.26,1
8,111552601661000,-15.36,-0.65,-3.21,1
8,111552641548000,-9.51,-4.75,8.54,1
8,111552681617000,-0.42,1.31,4.9,1
8,111552761604000,8.35,19.61,-15.4,1
8,111552803199000,16.13,18.58,-9.77,1
8,111552841621000,19.91,12.45,-7.78,1
8,111552881660000,19.84,-3.02,5.82,1
8,111552961616000,1.65,-3.34,2.87,1
8,111553001869000,1.65,-3.15,0.61,1
8,111553041603000,-1.12,-3.21,3.79,1
8,111553081703000,-2.07,-1.61,-1.88,1
8,111553161598000,19.89,14.67,-3.6,1
8,111553201545000,18.5,15.17,-1.5,1
8,111553242683000,5.37,5.22,-6.17,1
8,111553281532000,-1.65,3.76,-10.12,1
8,111553361580000,-17.27,1.88,-0.84,1
8,111553401588000,-9.23,-3.68,11.18,1
8,111553441597000,1.8,0.8,3.45,1
8,111553481544000,2.11,6.97,-7.78,1
8,111553573860000,18.81,19.15,-12.87,1
8,111553611519000,19.91,7.08,4.02,1
8,111553651497000,15.32,-1.92,6.36,1
8,111553691627000,5.67,-2.53,7.04,1
8,111553731544000,4.4,-2.22,-1.31,1
8,111553811683000,-2.45,-4.52,-0.65,1
8,111553851600000,0.3,-2.53,-2.79,1
8,111553891609000,14.48,7.06,-2.76,1
8,111553931526000,19.91,19.61,-2.76,1
8,111554011573000,3.57,3.6,-10.61,1
8,111554053810000,-6.09,2.22,-8.05,1
8,111554091621000,-17.54,-0.5,-0.15,1
8,111554131691000,-14.02,1.54,2.79,1
8,111554211555000,1.65,6.66,-0.31,1
8,111554251655000,7.74,15.55,-13.87,1
8,111554291694000,9.15,19.57,-9.11,1
8,111554331642000,19.42,14.18,-9.51,1
8,111554411598000,11.99,-3.17,7.65,1
8,111554451515000,0.99,-2.11,5.63,1
8,111554491646000,2.34,-2.18,-0.27,1
8,111554531654000,-0.38,-2.68,-1.46,1
8,111554611580000,2.79,-0.89,-2.22,1
8,111554651497000,17.46,9.51,-4.02,1
8,111554691536000,19.91,16.51,1.23,1
8,111554731544000,13.33,3.68,-4.06,1
8,111554813209000,-9.47,2.56,-7.7,1
8,111554851570000,-17.58,-0.5,-1.12,1
8,111554891639000,-10.88,-1.12,8.66,1
8,111554931617000,-0.5,0.04,3.79,1
8,111555011573000,4.94,17.86,-11.92,1
8,111555053718000,16.13,19.27,-10.99,1
8,111555091560000,19.91,11.88,-6.24,1
8,111555131996000,19.72,-2.07,3.98,1
8,111555171608000,7.65,-2.79,7.16,1
8,111555261604000,0.3,-2.03,3.41,1
8,111555301674000,-1.92,-1.99,1.14,1
8,111555341621000,-0.23,-1.14,-2.72,1
8,111555381660000,13.4,3.26,-4.9,1
8,111555461647000,14.44,9.04,-2.49,1
8,111555501686000,3.41,4.6,-8.2,1
8,111555541633000,-3.91,2.98,-8.28,1
8,111555581672000,-13.21,0.72,-3.3,1
8,111555631569000,-11.5,-1.8,7.12,1
8,111555712166000,2.14,8.24,-7.31,1
8,111555751625000,3.79,18.39,-11.56,1
8,111555791633000,8.35,19.93,-7.44,1
8,111555831642000,19.76,18.09,-11.56,1
8,111555911506000,10.46,-2.6,5.63,1
8,111555951637000,1.92,-3.17,4.79,1
8,111555991615000,1.76,-2.96,1.38,1
8,111556031624000,-1.27,-3.21,2.53,1
8,111556074135000,-2.03,2.18,-2.34,1
8,111556162208000,19.91,18.73,-4.75,1
8,111556201606000,17.82,9.38,3.68,1
8,111556241737000,7.97,3.21,-7.44,1
8,111556241737000,7.97,3.21,-7.44,1
8,111556361580000,-15.7,-4.67,1.65,1
8,111556404792000,-5.18,1.73,12.91,1
8,111556442848000,-0.42,1.84,-0.15,1
8,111556481666000,-1.54,7.35,-9.96,1
8,111556561989000,17.5,19.93,-13.1,1
8,111556601875000,19.91,15.13,0.99,1
8,111556642006000,16.28,-2.3,6.85,1
8,111556681770000,3.6,-4.02,8.77,1
8,111556761604000,0.19,-3.34,2.98,1
8,111556801643000,-1.61,-2.56,0.19,1
8,111556841591000,-1.08,-1.95,-2.03,1
8,111556882148000,11.56,3.15,-2.45,1
8,111556961494000,13.72,7.55,1.69,1
8,111557006630000,3.3,2.37,-7.4,1
8,111557043892000,-3.64,1.18,4.71,1
8,111557161415000,-2.64,3.41,-1.14,1
8,111557201515000,-0.19,3.41,-1.14,1
8,111557201515000,-0.19,3.41,-1.14,1
8,111557241615000,5.43,14.21,-13.59,1
8,111557281685000,12.53,19.89,-9.62,1
8,111557361641000,19.91,4.4,5.18,1
8,111557401619000,10.31,-2.75,7.63,1
8,111557441627000,2.68,-2.6,5.28,1
8,111557481636000,3.06,-2.98,1.23,1
8,111557561622000,-1.33,-1.57,-0.69,1
8,111557601661000,3.26,-0.53,-2.64,1
8,111557641700000,19.08,12.68,-4.14,1
8,111557692054000,16.04,13.21,-1.27,1
8,111557731544000,2.79,5.86,-7.46,1
8,111557812904000,-16.21,-2.11,-1.33,1
8,111557851539000,-13.95,-0.76,1.73,1
8,111557891639000,-5.86,-3.36,7.74,1
8,111557931617000,0.57,0.46,-0.84,1
8,111558011543000,13.91,19.76,-16.97,1
8,111558053749000,19.57,16.66,-9.72,1
8,111558093513000,19.91,7.4,-2.45,1
8,111558131538000,18.96,-3.45,4.06,1
8,111558211586000,3.95,-1.99,2.72,1
8,111558251655000,3.17,-2.45,0.61,1
8,111558291572000,0.04,-3.36,3.95,1
8,111558331642000,-1.54,-1.33,-2.03,1
8,111558411598000,19.91,17.16,-1.95,1
8,111558451606000,17.05,9.47,-1.38,1
8,111558491646000,5.6,4.1,-8.16,1
8,111558531624000,-2.26,3.91,-11.03,1
8,111558611610000,-17.24,0.61,0.61,1
8,111558651588000,-7.31,-2.49,11.03,1
8,111558691627000,1.53,2.03,5.05,1
8,111558731605000,0.69,10.27,-11.54,1
8,111558811561000,16.24,16.36,-10.27,1
8,111558851539000,19.91,11.6,-6.21,1
8,111558891578000,16.59,-2.3,11.18,1
8,111558931617000,2.18,-2.07,9.43,1
8,111559011451000,2.91,-3.49,4.48,1
8,111559053779000,-0.61,-2.68,0.8,1
8,111559091560000,-2.56,-1.92,-2.72,1
8,111559131599000,7.82,2.03,-1.69,1
8,111559211555000,15.83,10.84,-1.69,1
8,111559251594000,4.86,3.57,-8.81,1
8,111559291542000,-2.49,2.15,-10.69,1
8,111559331642000,-15.32,-0.91,-4.82,1
8,111559411598000,-3.38,-1.31,14.63,1
8,111559451637000,1.5,7.25,2.07,1
8,111559491646000,1.76,11.96,-15.36,1
8,111559531624000,9.47,20.04,-14.1,1
8,111559611610000,19.91,10.95,-0.23,1
8,111559651588000,13.38,-3.41,10.8,1
8,111559710334000,3.91,-3.41,5.71,1
8,111559752266000,2.72,-3.17,1.53,1
8,111559791633000,-0.8,-4.02,3.26,1
8,111559831550000,-2.6,-2.49,-1.12,1
8,111559911689000,19.72,15.43,-5.13,1
8,111559955238000,17.16,14.25,1.04,1
8,111559992561000,5.75,3.64,-5.43,1
8,111560031654000,-0.38,1.61,-10.73,1
8,111560111641000,-16.97,-4.82,-3.83,1
8,111560151619000,-8.12,-3.11,14.37,1
8,111560191597000,2.14,5.56,6.55,1
8,111560231636000,0.23,7.59,-11.65,1
8,111560311592000,15.98,19.15,-11.99,1
8,111560351600000,19.91,13.48,0.19,1
8,111560391578000,18.16,-0.95,2.96,1
8,111560431495000,6.05,-4.18,10.72,1
8,111560511573000,1.5,-2.45,2.14,1
8,111560551613000,-0.69,-2.72,2.14,1
8,111560591621000,-1.12,-2.07,-2.91,1
8,111560631599000,10.23,4.25,0.46,1
8,111560671760000,19.91,18.7,-0.53,1
8,111560742897000,10.65,2.15,-7.27,1
8,111560782295000,-1.84,4.25,-12.98,1
8,111560861641000,-18.39,0.11,-4.21,1
8,111560901588000,-7.93,-4.14,11.18,1
8,111560941627000,1.31,2.15,4.71,1
8,111560981697000,-1.12,7.12,-5.05,1
8,111561061622000,12.6,19.15,-9.19,1
8,111561101631000,19.91,14.33,-9.3,1
8,111561141670000,19.91,-4.02,6.82,1
8,111561181648000,8.24,-3.3,4.99,1
8,111561262123000,0.69,-2.56,1.99,1
8,111561301643000,-1.38,-2.14,2.37,1
8,111561341499000,-2.03,-1.04,-1.33,1
8,111561381660000,5.09,1.54,-0.38,1
8,111561461708000,18.07,11.26,-0.93,1
8,111561501594000,8.08,2.18,-6.09,1
8,111561541603000,-0.53,3.49,-11.65,1
8,111561583290000,-13.53,1.33,-5.05,1
8,111561661628000,-9.92,-3.6,12.07,1
8,111561701606000,2.3,5.22,9.7,1
8,111561759224000,6.09,13.95,-13.4,1
8,111561802253000,10.88,19.72,-10.99,1
8,111561841621000,19.72,15.98,-12.03,1
8,111561881660000,19.91,8.16,3.3,1
8,111561961616000,2.53,-4.33,7.65,1
8,111562001564000,4.29,-3.06,0.0,1
8,111562041603000,0.95,-3.15,3.57,1
8,111562083473000,-0.99,-2.07,-0.53,1
8,111562161628000,16.7,7.01,-7.78,1
8,111562201881000,19.91,17.39,1.33,1
8,111562242897000,14.48,5.09,-1.38,1
8,111562281990000,3.26,5.56,-14.06,1
8,111562361641000,-19.08,1.33,0.46,1
8,111562401588000,-14.29,-1.92,8.77,1
8,111562441658000,-2.87,-2.22,6.4,1
8,111562481788000,-0.61,2.6,-2.96,1
8,111562561500000,17.46,19.99,-15.4,1
8,111562601661000,19.91,17.24,2.41,1
8,111562641670000,19.91,2.91,-5.41,1
8,111562681648000,12.15,-3.98,10.15,1
8,111562761848000,2.87,-3.64,1.18,1
8,111562801613000,0.19,-4.18,3.68,1
8,111562841591000,-1.31,-3.3,-0.69,1
8,111562881630000,0.65,-2.14,-2.34,1
8,111562961647000,19.91,19.93,3.02,1
8,111563004829000,7.04,9.0,-1.08,1
8,111563042274000,1.33,2.56,-7.55,1
8,111563084602000,-6.17,-0.72,-4.25,1
8,111563163490000,-11.14,-2.75,2.75,1
8,111563201545000,-4.56,-0.65,-0.31,1
8,111563241615000,-0.95,1.46,-1.23,1
8,111563281624000,7.55,11.3,-12.3,1
8,111563361610000,19.91,14.86,0.53,1
8,111563401558000,19.91,-2.75,-2.3,1
8,111563441536000,11.41,-4.14,9.81,1
8,111563481514000,4.52,-3.26,4.33,1
8,111563561500000,0.11,-2.53,3.98,1
8,111563601722000,-1.73,-0.65,-1.18,1
8,111563641670000,4.29,1.18,-1.84,1
8,111563681648000,19.65,15.47,-1.04,1
8,111563761604000,4.1,3.87,-7.12,1
8,111563811622000,-4.25,2.64,-9.47,1
8,111563851600000,-18.24,-0.57,-6.44,1
8,111563891578000,-15.79,-2.79,5.82,1
8,111563931617000,-4.29,-0.99,8.35,1
8,111564011543000,4.82,12.41,-14.02,1
8,111564053688000,18.31,-5.05,9.23,1
8,111564171425000,14.94,-5.05,9.23,1
8,111564171425000,14.94,-5.05,9.23,1
8,111564211433000,4.37,-2.79,4.52,1
8,111564251594000,4.56,-3.11,-0.46,1
8,111564291511000,0.34,-3.26,4.37,1
8,111564331642000,-2.26,-2.34,-1.08,1
8,111564411628000,14.79,8.85,0.42,1
8,111564464485000,18.89,14.33,-2.64,1
8,111564512001000,6.4,3.83,-6.89,1
8,111564551704000,-2.11,3.76,-11.69,1
8,111564591621000,-15.09,-0.34,-3.95,1
8,111564641761000,-15.51,-2.6,5.9,1
8,111564681648000,-4.67,-1.69,6.47,1
8,111564761635000,5.28,13.02,-12.26,1
8,111564801643000,16.36,19.8,-14.82,1
8,111564841621000,19.91,14.9,-7.59,1
8,111564881691000,19.91,0.95,0.53,1
8,111564961525000,6.09,-3.34,5.94,1
8,111565001899000,4.82,-2.68,0.95,1
8,111565041603000,0.8,-3.21,4.18,1
8,111565081703000,-1.14,-0.95,-1.57,1
8,111565161506000,19.89,17.05,-3.64,1
8,111565201759000,16.85,13.21,-4.4,1
8,111565242897000,3.98,4.75,-9.0,1
8,111565318153000,-17.12,-1.57,-2.22,1
8,111565361549000,-14.44,-1.33,3.98,1
8,111565401527000,-5.56,-3.49,10.15,1
8,111565442085000,-2.15,2.26,-2.79,1
8,111565481666000,-1.65,9.15,-9.58,1
8,111565562385000,18.73,17.31,-11.37,1
8,111565601448000,19.91,6.32,-6.17,1
8,111565642067000,15.47,-7.5,12.79,1
8,111565704658000,5.48,-2.91,1.61,1
8,111565741554000,3.02,-2.83,1.18,1
8,111565781410000,-0.27,-3.06,3.15,1
8,111565827003000,-2.34,-1.57,-2.07,1
8,111565911415000,19.91,19.0,-3.02,1
8,111565951423000,12.53,9.38,-4.21,1
8,111565991401000,2.37,6.78,-13.67,1
8,111566031410000,-10.76,2.64,-10.19,1
8,111566111519000,-16.17,-3.6,8.16,1
8,111566151436000,-2.07,-1.46,5.48,1
8,111566191414000,-0.57,5.83,-3.41,1
8,111566231422000,7.12,16.89,-18.12,1
8,111566311470000,19.91,15.98,-7.55,1
8,111566351387000,19.38,-3.26,4.56,1
8,111566391395000,7.55,-3.17,8.39,1
8,111566431404000,6.7,-3.06,1.04,1
8,111566511421000,-0.19,-2.3,1.65,1
8,111566551399000,-2.91,-1.95,-1.38,1
8,111566595649000,4.99,2.15,0.65,1
8,111566633796000,19.91,16.63,-5.75,1
8,111566711433000,6.47,5.86,-9.11,1
8,111566751503000,-2.18,4.33,-14.9,1
8,111566791877000,-16.93,-2.11,-5.05,1
8,111566831855000,-17.62,-4.67,4.33,1
8,111566911812000,0.27,1.84,-4.06,1
8,111566951454000,0.23,6.74,-5.41,1
8,111566994880000,13.21,20.04,-17.24,1
8,111566994880000,13.21,20.04,-17.24,1
8,111567101509000,19.91,-3.95,2.56,1
8,111567151436000,6.28,-4.79,5.82,1
8,111567191505000,3.98,-3.34,-0.61,1
8,111567236213000,0.34,-3.17,4.02,1
8,111567312935000,-2.07,-1.5,-2.56,1
8,111567352485000,11.18,6.32,-1.69,1
8,111567391975000,19.91,18.28,-3.91,1
8,111567433876000,17.86,3.91,-0.19,1
8,111567511421000,-5.41,5.01,-15.43,1
8,111567551429000,-18.81,-3.3,-0.15,1
8,111567591407000,-15.24,-4.14,6.36,1
8,111567631508000,-2.83,-0.57,9.72,1
8,111567711403000,-1.5,10.57,-16.32,1
8,111567751442000,10.92,20.04,-16.28,1
8,111567791389000,17.05,18.62,-13.1,1
8,111567831398000,19.91,8.08,0.34,1
8,111567882332000,10.04,-2.83,6.85,1
8,111567961494000,2.18,-2.96,0.57,1
8,111568001381000,-0.42,-3.49,3.34,1
8,111568041481000,-2.87,-3.26,-1.27,1
8,111568081459000,1.46,-0.46,-0.61,1
8,111568162056000,19.53,16.32,-0.8,1
8,111568201667000,8.2,6.28,-4.6,1
8,111568241615000,-0.99,4.99,-13.25,1
8,111568293556000,-15.94,-1.95,-2.22,1
8,111568332313000,-17.12,-1.8,4.52,1
8,111568411964000,1.5,2.07,3.87,1
8,111568451637000,0.27,9.58,-14.71,1
8,111568491584000,11.56,20.04,-16.59,1
8,111568531624000,17.73,19.23,-5.18,1
8,111568611610000,17.62,-3.98,9.92,1
8,111568651649000,6.97,-3.3,5.56,1
8,111568691597000,3.79,-3.83,0.27,1
8,111568731666000,-0.23,-4.52,4.21,1
8,111568823707000,2.49,-1.04,-2.26,1
8,111568861641000,17.54,11.8,-8.58,1
8,111568901771000,19.84,17.69,1.53,1
8,111568951606000,6.43,8.62,-9.28,1
8,111568991584000,-2.72,4.56,-14.29,1
8,111569031501000,-17.82,-3.21,-2.79,1
8,111569082557000,-16.13,-5.05,8.39,1
8,111569161659000,1.84,2.72,1.12,1
8,111569202736000,-2.76,12.03,-16.04,1
8,111569242286000,13.1,20.04,-16.47,1
8,111569281562000,18.62,18.5,-6.02,1
8,111569362373000,14.63,-5.48,8.62,1
8,111569401680000,5.28,-3.72,5.37,1
8,111569441475000,3.41,-3.36,-0.08,1
8,111569481636000,0.08,-3.76,4.33,1
8,111569561622000,-0.31,-1.18,-3.15,1
8,111569601661000,16.13,9.15,-2.68,1
8,111569641700000,19.91,18.01,-2.45,1
8,111569715309000,2.56,5.33,-10.92,1
8,111569754890000,-8.85,1.54,-11.3,1
8,111569801643000,-19.27,-8.54,-1.23,1
8,111569841713000,-11.45,-2.72,11.56,1
8,111569881721000,0.46,4.21,1.42,1
8,111569935798000,1.31,7.82,-4.29,1
8,111570011543000,19.23,16.51,-3.91,1
8,111570053749000,19.91,3.49,-13.95,1
8,111570091469000,19.34,-6.05,11.18,1
8,111570131447000,8.12,-4.02,3.72,1
8,111570211647000,-0.5,-3.64,3.34,1
8,111570251564000,-3.17,-3.72,-0.31,1
8,111570291603000,-2.34,-2.96,-3.17,1
8,111570331794000,11.56,7.21,-1.73,1
8,111570371528000,19.91,18.73,-6.44,1
8,111570461586000,3.34,5.67,-13.44,1
8,111570501655000,-10.57,1.69,-9.11,1
8,111570541755000,-19.19,-3.57,1.08,1
8,111570581672000,-12.98,-2.37,8.66,1
8,111570661628000,-0.42,4.33,-1.95,1
8,111570701576000,6.78,15.89,-17.12,1
8,111570741676000,16.04,19.8,-12.91,1
8,111570781654000,19.91,14.48,-9.0,1
8,111570861641000,10.57,-5.37,5.67,1
8,111570901588000,5.98,-3.87,-0.69,1
8,111570941566000,0.65,-4.75,2.26,1
8,111570981575000,-1.84,-4.44,1.42,1
8,111571141334000,19.42,15.66,-0.27,1
8,111571141334000,19.42,15.66,-0.27,1
8,111571141334000,19.42,15.66,-0.27,1
8,111571182045000,6.78,5.86,-6.59,1
8,111571261604000,-15.05,-0.34,-3.91,1
8,111571301521000,-18.81,-1.92,3.91,1
8,111571341865000,-8.12,-1.31,8.85,1
8,111571381630000,1.92,1.92,0.04,1
8,111571461525000,8.85,18.09,-18.35,1
8,111571501594000,17.46,19.61,-13.57,1
8,111571541633000,19.91,12.64,-4.25,1
8,111571581642000,16.93,-3.17,9.34,1
8,111571661567000,4.56,-2.26,-2.49,1
8,111571701637000,0.46,-4.14,4.33,1
8,111571741584000,-2.6,-4.4,0.23,1
8,111571781654000,-1.65,-3.49,-2.91,1
8,111571861641000,19.91,18.66,-5.67,1
8,111571901680000,15.24,10.08,-1.54,1
8,111571941627000,3.36,4.67,-9.66,1
8,111571983650000,-8.2,1.69,-8.85,1
8,111572062141000,-15.55,-3.26,7.27,1
8,111572101570000,-1.92,1.31,6.43,1
8,111572144172000,1.88,3.6,-3.06,1
8,111572181678000,3.64,12.98,-12.15,1
8,111572261573000,19.84,14.71,-4.94,1
8,111572301765000,19.91,0.65,-3.99,1
8,111572341652000,11.95,-4.67,12.3,1
8,111572381630000,5.2,-3.06,3.95,1
8,111572461616000,-0.57,-3.11,3.87,1
8,111572501686000,-2.98,-2.75,-0.31,1
8,111572541664000,1.12,-0.72,-1.61,1
8,111572581642000,17.86,12.26,-5.75,1
8,111572631691000,17.46,13.59,-0.84,1
8,111572711616000,-3.72,3.11,-11.03,1
8,111572751594000,-16.55,-2.6,-3.06,1
8,111572791755000,-17.24,-3.02,2.72,1
8,111572831642000,-6.97,-1.53,10.8,1
8,111572911598000,0.04,9.66,-12.98,1
8,111572961860000,12.15,19.95,-14.48,1
8,111573001686000,19.3,15.75,-14.18,1
8,111573041572000,19.91,5.43,4.29,1
8,111573081672000,11.56,-3.68,9.81,1
8,111573161628000,2.64,-1.95,-0.42,1
8,111573201667000,-0.27,-3.21,5.56,1
8,111573241676000,-2.22,-1.92,-1.57,1
8,111573281593000,4.71,0.46,-1.76,1
8,111573362190000,18.92,13.59,-1.8,1
8,111573401619000,7.93,5.79,-9.08,1
8,111573442604000,-1.92,4.6,-12.45,1
8,111573481666000,-15.28,0.95,-3.79,1
8,111573565010000,-7.86,-3.98,7.74,1
8,111573602546000,2.34,2.26,9.53,1
8,111573641670000,2.14,8.24,-8.92,1
8,111573681648000,6.17,19.57,-16.66,1
8,111573761635000,19.91,15.79,-10.92,1
8,111573801643000,19.65,0.46,6.89,1
8,111573841621000,5.18,-3.83,10.65,1
8,111573881721000,3.95,-3.57,3.64,1
8,111573964363000,-0.61,-2.41,3.83,1
8,111574006172000,-2.41,-2.26,-2.87,1
8,111574044075000,9.38,2.37,-0.42,1
8,111574081581000,19.91,17.69,5.56,1
8,111574161628000,4.33,5.13,-5.94,1
8,111574201637000,-2.18,3.64,-8.16,1
8,111574241615000,-15.4,0.38,-5.13,1
8,111574281654000,-18.39,-4.94,-6.97,1
8,111574361580000,0.69,1.42,-4.4,1
8,111574401619000,4.4,7.16,-6.02,1
8,111574441658000,18.85,19.99,-18.28,1
8,111574481636000,18.5,17.92,1.12,1
8,111574561592000,19.91,-0.46,-3.99,1
8,111574601692000,16.32,-9.08,5.56,1
8,111574641639000,4.18,-3.17,-1.76,1
8,111574681495000,-0.38,-4.18,-0.61,1
8,111574761726000,-4.48,-5.67,-2.96,1
8,111574761726000,-4.48,-5.67,-2.96,1
8,111574761726000,-4.48,-5.67,-2.96,1
8,111574761726000,-4.48,-5.67,-2.96,1
8,111574761726000,-4.48,-5.67,-2.96,1
8,111574761726000,-4.48,-5.67,-2.96,1
8,111574761726000,-4.48,-5.67,-2.96,1
8,111574761726000,-4.48,-5.67,-2.96,1
8,111575161537000,1.27,-0.15,-3.49,1
8,111575201667000,14.18,16.25,-14.98,1
8,111575241523000,19.91,20.04,-2.22,1
8,111575281562000,19.91,11.8,-9.62,1
8,111575361519000,14.29,-8.35,12.22,1
8,111575401497000,4.33,-3.11,0.8,1
8,111575441536000,1.33,-3.79,-0.23,1
8,111575481544000,-1.46,-3.41,3.72,1
8,111575561500000,-0.95,-1.84,-2.56,1
8,111575601570000,12.34,2.76,-3.83,1
8,111575641578000,19.91,18.24,-2.72,1
8,111575681526000,14.56,9.19,0.65,1
8,111575761512000,-4.56,1.61,-8.89,1
8,111575801582000,-15.85,-3.72,-1.14,1
8,111575841591000,-14.98,-1.23,3.57,1
8,111575881660000,-2.79,0.19,10.19,1
8,111575961616000,0.27,7.01,-7.89,1
8,111576001686000,10.69,19.95,-16.78,1
8,111576041816000,17.58,18.77,-12.6,1
8,111576087410000,19.91,9.04,-0.46,1
8,111576131660000,13.25,-2.22,7.16,1
8,111576181678000,3.26,-1.31,7.16,1
8,111576261604000,2.18,-3.45,5.28,1
8,111576301735000,-1.42,-2.53,-0.61,1
8,111576341621000,1.31,-1.76,-3.3,1
8,111576381660000,17.08,10.57,-4.86,1
8,111576461616000,11.11,6.44,-5.83,1
8,111576501655000,1.46,4.86,-12.49,1
8,111576541603000,-9.7,1.8,-5.56,1
8,111576541603000,-9.7,1.8,-5.56,1
8,111576541603000,-9.7,1.8,-5.56,1
8,111576541603000,-9.7,1.8,-5.56,1
8,111576541603000,-9.7,1.8,-5.56,1
8,111576541603000,-9.7,1.8,-5.56,1
8,111576541603000,-9.7,1.8,-5.56,1
8,111576541603000,-9.7,1.8,-5.56,1
8,111576941536000,5.56,-4.02,6.59,1
8,111576991493000,3.17,-2.41,-0.31,1
8,111577031562000,-0.42,-3.06,5.37,1
8,111577114631000,3.15,0.95,-2.18,1
8,111577155189000,19.3,15.47,-5.22,1
8,111577192451000,19.04,15.79,-2.91,1
8,111577231544000,6.09,5.18,-5.43,1
8,111577311439000,-11.65,-0.61,-4.1,1
8,111577351570000,-16.74,-3.41,-5.63,1
8,111577400184000,-9.92,-3.91,7.44,1
8,111577441993000,2.68,2.22,4.1,1
8,111577481575000,2.26,8.96,-11.18,1
8,111577561592000,18.62,18.39,-8.31,1
8,111577601631000,19.91,10.42,-4.44,1
8,111577641609000,19.0,-2.41,4.29,1
8,111577681556000,6.09,-2.96,9.7,1
8,111577761512000,2.68,-2.37,1.08,1
8,111577801643000,-0.34,-3.41,4.67,1
8,111577841652000,-1.65,-1.8,-2.07,1
8,111577881599000,8.39,2.79,-1.18,1
8,111577961677000,16.97,11.35,-2.91,1
8,111578003761000,4.25,3.83,11.22,1
8,111578161323000,-9.85,-5.63,11.22,1
8,111578161323000,-9.85,-5.63,11.22,1
8,111578161323000,-9.85,-5.63,11.22,1
8,111578202003000,2.18,2.15,3.49,1
8,111578241646000,3.11,6.78,-5.98,1
8,111578281624000,10.08,19.42,-14.94,1
8,111578361610000,19.91,13.95,-7.74,1
8,111578401588000,19.53,1.54,4.06,1
8,111578441505000,7.5,-0.95,6.47,1
8,111578481575000,1.84,-2.03,6.43,1
8,111578561531000,1.73,-4.21,6.63,1
8,111578601814000,-0.38,-1.95,-1.61,1
8,111578641639000,9.11,0.8,-4.63,1
8,111578681617000,19.91,16.04,1.08,1
8,111578761604000,7.12,5.01,-5.67,1
8,111578801643000,0.08,3.87,-8.62,1
8,111578841682000,-7.89,1.99,-4.44,1
8,111578881630000,-15.09,0.27,-6.21,1
8,111578961616000,-1.99,-2.53,10.38,1
8,111579001869000,3.83,4.4,-3.11,1
8,111579041572000,6.78,14.37,-12.95,1
8,111579081550000,10.27,20.04,-10.95,1
8,111579161628000,19.91,10.15,-10.92,1
8,111579201698000,18.77,-0.57,7.08,1
8,111579201698000,18.77,-0.57,7.08,1
8,111579332710000,1.92,-3.17,3.17,1
8,111579332710000,1.92,-3.17,3.17,1
8,111579411598000,1.42,-1.8,-3.68,1
8,111579451576000,15.85,3.6,-4.52,1
8,111579491646000,19.91,19.76,-3.3,1
8,111579531624000,12.98,12.72,-4.4,1
8,111579611519000,-3.49,2.37,-9.43,1
8,111579652260000,-15.17,0.0,-0.93,1
8,111579691505000,-13.06,0.72,0.27,1
8,111579731636000,-8.96,-6.78,12.11,1
8,111579811592000,1.14,10.5,-14.52,1
8,111579851783000,1.53,20.04,-14.63,1
8,111579891517000,16.28,20.04,-12.72,1
8,111579931617000,19.91,16.51,-3.57,1
8,111580011543000,5.24,-0.3,6.24,1
8,111580053840000,1.84,-3.11,5.9,1
8,111580091530000,2.91,-2.56,-0.89,1
8,111580134437000,3.06,-5.86,3.72,1
8,111580211525000,18.2,6.02,-3.6,1
8,111580251777000,19.91,19.15,0.84,1
8,111580291603000,16.17,19.23,-9.51,1
8,111580331672000,2.56,7.82,-5.67,1
8,111580411506000,-6.85,0.42,-2.11,1
8,111580451606000,-8.39,-0.91,-1.76,1
8,111580491646000,-6.55,-4.21,4.4,1
8,111580531593000,0.53,-5.28,7.86,1
8,111580611641000,0.99,16.55,-18.58,1
8,111580652229000,10.57,20.04,-10.99,1
8,111580691627000,19.91,19.34,-6.17,1
8,111580731575000,19.91,6.93,-0.31,1
8,111580811592000,4.37,-1.88,12.18,1
8,111580851600000,1.76,0.34,-2.41,1
8,111580891609000,0.89,-1.8,3.49,1
8,111580931617000,-1.99,-1.46,3.49,1
8,111581011635000,19.8,15.05,-1.73,1
8,111581053718000,18.73,18.12,-3.53,1
8,111581091530000,5.18,7.31,-5.28,1
8,111581131782000,-0.69,3.53,-6.55,1
8,111581171699000,-8.96,0.69,-3.72,1
8,111581171699000,-8.96,0.69,-3.72,1
8,111581171699000,-8.96,0.69,-3.72,1
8,111581171699000,-8.96,0.69,-3.72,1
8,111581171699000,-8.96,0.69,-3.72,1
8,111581171699000,-8.96,0.69,-3.72,1
8,111581171699000,-8.96,0.69,-3.72,1
8,111581171699000,-8.96,0.69,-3.72,1
8,111581611519000,2.34,-1.88,1.38,1
8,111581651863000,0.76,-3.17,4.44,1
8,111581692207000,-1.54,-1.04,1.12,1
8,111581731544000,0.15,0.38,-1.18,1
8,111581811500000,19.91,19.08,-1.33,1
8,111581851539000,12.07,7.25,-3.34,1
8,111581891548000,3.21,4.29,-8.89,1
8,111581931495000,-4.6,2.72,-7.97,1
8,111582011512000,-16.02,-3.3,3.83,1
8,111582053688000,-3.76,-1.46,6.24,1
8,111582091438000,0.84,1.73,-0.93,1
8,111582131538000,1.5,8.92,-15.36,1
8,111582179908000,17.86,20.04,-15.36,1
8,111582261573000,19.91,2.37,-3.17,1
8,111582301521000,15.66,-3.02,8.66,1
8,111582341591000,2.68,-2.22,5.24,1
8,111582381630000,2.26,-1.69,0.15,1
8,111582461677000,-0.95,-0.61,0.76,1
8,111582501594000,0.91,-0.3,-2.3,1
8,111582541603000,14.29,5.24,0.19,1
8,111582622871000,15.55,9.66,-1.54,1
8,111582661567000,6.36,3.26,-5.05,1
8,111582701606000,-1.14,3.53,-10.08,1
8,111582741768000,-11.65,0.08,-4.1,1
8,111582781532000,-16.55,-2.07,-0.38,1
8,111582861610000,0.23,1.65,1.8,1
8,111582901619000,-0.93,6.24,-7.35,1
8,111582941597000,8.96,19.31,-17.58,1
8,111582981544000,17.27,19.95,-6.66,1
8,111583061622000,19.84,-4.4,6.43,1
8,111583101509000,10.42,-5.52,7.63,1
8,111583141609000,2.18,-2.68,1.8,1
8,111583183387000,-0.34,-2.56,1.76,1
8,111583261665000,-2.96,-1.84,-1.23,1
8,111583301674000,5.41,2.68,-0.53,1
8,111583341621000,19.91,15.13,-5.24,1
8,111583381569000,18.47,14.21,2.79,1
8,111583461616000,-0.95,3.53,-12.11,1
8,111583501594000,-13.57,-3.26,-7.63,1
8,111583541633000,-18.81,-10.23,1.42,1
8,111583581642000,-9.51,-2.11,-1.54,1
8,111583661750000,0.15,4.06,-5.79,1
8,111583701637000,7.27,16.28,-16.7,1
8,111583741615000,15.43,20.04,-12.15,1
8,111583781624000,19.91,14.98,-5.09,1
8,111583861610000,9.89,-3.6,8.81,1
8,111583901619000,3.36,-2.53,3.98,1
8,111583941505000,2.07,-2.26,0.61,1
8,111583981636000,-0.65,-1.18,-1.38,1
8,111584061653000,4.59,1.76,-0.5,1
8,111584103798000,19.8,13.67,-2.64,1
8,111584141639000,19.15,14.21,0.89,1
8,111584181587000,9.19,4.37,-5.28,1
8,111584225898000,0.76,3.53,-12.11,1
8,111584311317000,-17.39,-1.84,0.72,1
8,111584351387000,-7.27,-0.38,9.0,1
8,111584391609000,1.27,1.84,2.3,1
8,111584431648000,1.53,7.35,-7.7,1
8,111584511635000,13.25,19.0,-10.08,1
8,111584551613000,19.91,12.49,-8.47,1
8,111584591499000,19.19,-2.87,8.05,1
8,111584631660000,6.28,-3.36,7.31,1
8,111584711464000,0.23,-3.3,2.22,1
8,111584751564000,-1.73,-1.84,1.61,1
8,111584791664000,-2.49,-1.18,-1.95,1
8,111584831642000,8.96,3.15,-1.18,1
8,111584911598000,16.85,9.3,0.0,1
8,111584951637000,7.35,3.15,-6.47,1
8,111584991584000,-1.99,4.52,6.43,1
8,111585151375000,2.14,4.52,6.43,1
8,111585151375000,2.14,4.52,6.43,1
8,111585151375000,2.14,4.52,6.43,1
8,111585193275000,0.53,9.08,-12.98,1
8,111585231636000,6.28,20.04,-16.09,1
8,111585311592000,19.91,11.41,-2.53,1
8,111585351600000,16.32,-2.18,7.74,1
8,111585391609000,4.29,-3.26,7.82,1
8,111585431587000,3.95,-2.96,0.04,1
8,111585511604000,-1.27,-2.53,0.42,1
8,111585551613000,-0.72,-2.18,-2.83,1
8,111585591499000,13.44,2.07,-5.83,1
8,111585631660000,19.91,18.89,-2.96,1
8,111585711586000,1.88,5.9,-7.4,1
8,111585751594000,-3.79,2.79,-7.55,1
8,111585791725000,-15.98,-2.26,0.11,1
8,111585831642000,-13.91,-1.95,5.48,1
8,111585911598000,-0.53,2.34,0.27,1
8,111585951667000,6.32,12.49,-12.95,1
8,111585991615000,19.46,19.72,-13.91,1
8,111586031593000,19.84,12.07,2.14,1
8,111586111580000,15.51,-3.53,9.72,1
8,111586151497000,1.92,-2.45,7.16,1
8,111586191597000,3.34,-2.56,-0.65,1
8,111586231575000,0.34,-3.64,3.34,1
8,111586311805000,1.27,-0.91,-2.6,1
8,111586352272000,16.28,8.12,-1.33,1
8,111586391609000,19.91,19.15,-1.65,1
8,111586431617000,12.22,5.63,-1.88,1
8,111586511635000,-3.91,1.88,-6.78,1
8,111586551643000,-14.14,-0.42,-2.37,1
8,111586604438000,-11.26,0.53,2.41,1
8,111586641578000,-2.98,-1.73,4.21,1
8,111586681648000,-1.23,2.64,-2.41,1
8,111586761635000,15.79,19.99,-13.53,1
8,111586801674000,19.91,12.68,-1.92,1
8,111586841591000,19.91,-2.03,-0.15,1
8,111586881599000,12.68,-0.84,6.43,1
8,111586961494000,3.57,-1.92,-0.89,1
8,111587001869000,0.61,-2.18,3.36,1
8,111587041755000,-1.5,-1.57,0.53,1
8,111587081642000,1.69,-0.15,-3.3,1
8,111587124580000,16.93,8.35,-5.67,1
8,111587211555000,9.47,3.99,-5.94,1
8,111587251594000,1.8,4.56,-11.56,1
8,111587291603000,-8.24,3.49,-5.52,1
8,111587331672000,-16.74,2.34,-0.65,1
8,111587384376000,-4.94,-1.73,10.95,1
8,111587461616000,0.0,7.08,-5.01,1
8,111587501625000,7.44,19.5,-13.44,1
8,111587541633000,17.67,19.8,-13.38,1
8,111587581703000,19.91,14.48,0.46,1
8,111587664039000,6.17,-2.34,10.0,1
8,111587701545000,4.48,-1.08,1.12,1
8,111587744423000,2.34,-2.6,1.18,1
8,111587786598000,-0.84,-3.83,3.36,1
8,111587862281000,7.65,0.5,-1.38,1
8,111587905555000,19.91,16.17,-3.26,1
8,111587945869000,17.88,12.03,-3.11,1
8,111587984718000,7.82,3.53,-6.36,1
8,111588062996000,-13.95,2.53,-6.89,1
8,111588101631000,-18.01,0.76,2.72,1
8,111588142708000,-7.89,-2.68,14.44,1
8,111588183021000,1.42,4.99,8.39,1
8,111588261665000,3.95,19.72,-16.4,1
8,111588261665000,3.95,19.72,-16.4,1
8,111588361610000,19.91,11.88,2.87,1
8,111588401588000,15.94,-1.92,6.47,1
8,111588441536000,5.37,-3.06,7.25,1
8,111588481514000,4.4,-2.49,0.23,1
8,111588561592000,-1.42,-2.26,-0.11,1
8,111588601783000,0.89,-1.46,-2.41,1
8,111588641975000,15.83,7.93,-3.72,1
8,111588681495000,19.91,19.38,-0.5,1
8,111588761604000,2.79,4.18,-8.31,1
8,111588802864000,-5.05,1.95,-7.63,1
8,111588842201000,-17.35,-3.91,3.3,1
8,111588881599000,-12.6,-0.15,3.72,1
8,111588961616000,-0.76,3.6,-1.46,1
8,111588961616000,-0.76,3.6,-1.46,1
8,111588961616000,-0.76,3.6,-1.46,1
8,111588961616000,-0.76,3.6,-1.46,1
8,111588961616000,-0.76,3.6,-1.46,1
8,111588961616000,-0.76,3.6,-1.46,1
8,111588961616000,-0.76,3.6,-1.46,1
8,111588961616000,-0.76,3.6,-1.46,1
8,111589361519000,3.87,0.5,-2.53,1
8,111589401893000,18.66,12.79,-5.9,1
8,111589441566000,19.42,15.47,0.04,1
8,111589481544000,8.85,4.29,-4.9,1
8,111589561500000,-12.26,1.31,-6.36,1
8,111589601600000,-18.7,0.19,1.33,1
8,111589641578000,-10.65,-2.68,14.67,1
8,111589681526000,-1.42,2.11,-3.02,1
8,111589761482000,10.19,19.04,-16.4,1
8,111589801521000,19.19,19.34,-14.41,1
8,111589841499000,19.91,11.75,-5.37,1
8,111589881508000,19.91,-6.21,4.33,1
8,111589961525000,1.73,-3.76,1.73,1
8,111590001655000,0.91,-3.26,0.57,1
8,111590041603000,-2.18,-3.45,3.64,1
8,111590081703000,-2.76,-1.57,-3.06,1
8,111590162666000,19.91,16.63,-5.67,1
8,111590202278000,18.24,9.23,-0.31,1
8,111590243477000,7.82,2.15,-7.46,1
8,111590282051000,-0.69,4.48,-13.14,1
8,111590361702000,-17.5,-0.42,1.69,1
8,111590401497000,-8.39,-2.14,12.37,1
8,111590441597000,-0.04,1.38,4.33,1
8,111590481666000,1.14,7.01,-7.97,1
8,111590561470000,16.24,17.24,-10.57,1
8,111590601814000,19.91,10.53,-2.72,1
8,111590641670000,19.08,-4.25,5.28,1
8,111590681648000,8.24,-3.57,8.12,1
8,111590761604000,2.3,-3.83,3.11,1
8,111590801613000,-1.14,-2.26,0.23,1
8,111590841743000,-1.42,-0.57,-1.92,1
8,111590881660000,12.95,8.47,-2.07,1
8,111590961616000,15.47,5.18,-1.42,1
8,111591001899000,4.48,3.99,-11.88,1
8,111591041603000,-6.51,2.41,-9.89,1
8,111591081642000,-18.43,-3.49,-1.46,1
8,111591161598000,-3.72,0.76,9.47,1
8,111591201667000,-0.53,4.25,-3.45,1
8,111591241646000,2.3,11.14,-13.44,1
8,111591281593000,13.76,20.04,-15.32,1
8,111591361793000,19.91,3.34,2.03,1
8,111591401619000,13.95,-5.37,5.9,1
8,111591441627000,3.45,-3.87,6.13,1
8,111591481544000,4.21,-3.15,-0.5,1
8,111591561500000,-2.45,-2.49,-0.46,1
8,111591601600000,0.11,-1.69,-2.72,1
8,111591641670000,15.89,7.4,-2.41,1
8,111591681617000,19.91,19.38,-0.84,1
8,111591761604000,0.89,4.86,-8.39,1
8,111591801613000,-8.62,0.72,-4.99,1
8,111591841591000,-17.43,-2.91,-0.42,1
8,111591881599000,-12.53,-2.14,5.43,1
8,111591961616000,0.53,2.49,-1.18,1
8,111592121376000,19.91,2.07,-4.82,1
8,111592121376000,19.91,2.07,-4.82,1
8,111592121376000,19.91,2.07,-4.82,1
8,111592161964000,12.76,-4.37,12.26,1
8,111592201545000,4.67,-2.41,3.45,1
8,111592241615000,3.68,-3.21,0.53,1
8,111592281532000,0.04,-3.64,4.14,1
8,111592362465000,1.99,-0.89,-2.49,1
8,111592408058000,19.53,13.67,-1.88,1
8,111592451606000,17.73,16.04,-4.79,1
8,111592491615000,5.43,4.9,-5.52,1
8,111592531593000,-1.18,2.6,-9.77,1
8,111592611580000,-18.96,-2.49,2.14,1
8,111592651588000,-9.96,-1.99,14.37,1
8,111592691597000,0.5,2.83,-3.3,1
8,111592731575000,-0.04,5.71,-4.37,1
8,111592811744000,17.54,19.5,-14.1,1
8,111592860542000,19.91,10.27,-8.66,1
8,111592901375000,18.2,-8.66,9.38,1
8,111592941383000,5.37,-3.79,6.32,1
8,111592981392000,5.41,-2.45,-0.99,1
8,111593061622000,-1.69,-1.88,0.23,1
8,111593101570000,-2.56,-2.11,-2.11,1
8,111593141639000,10.23,3.38,-1.69,1
8,111593181648000,19.91,17.27,-3.99,1
8,111593261573000,5.05,5.28,-7.25,1
8,111593302009000,-5.6,3.02,-8.73,1
8,111593347236000,-18.77,-2.98,2.98,1
8,111593401954000,-11.8,-4.44,4.82,1
8,111593442360000,-1.8,-1.38,1.12,1
8,111593481636000,1.92,4.94,0.3,1
8,111593561592000,12.83,17.92,-12.07,1
8,111593601600000,19.3,12.18,-1.65,1
8,111593641823000,19.91,2.15,-7.21,1
8,111593681617000,14.6,-2.37,11.03,1
8,111593761451000,4.06,-2.87,-0.27,1
8,111593801613000,-0.15,-2.91,3.98,1
8,111593841621000,-2.11,-1.61,-0.99,1
8,111593881599000,2.64,-0.15,-1.54,1
8,111593961586000,19.42,16.78,0.72,1
8,111594001655000,9.28,4.67,-4.21,1
8,111594041572000,0.8,2.53,-9.92,1
8,111594081520000,-11.75,-1.33,-6.55,1
8,111594161628000,-11.07,-1.73,11.88,1
8,111594201637000,-3.11,5.48,-0.89,1
8,111594241615000,-2.68,8.35,-4.4,1
8,111594281593000,3.45,17.35,-16.93,1
8,111594361610000,19.91,12.95,-7.21,1
8,111594401497000,17.88,-5.98,9.0,1
8,111594451454000,2.64,-3.45,6.93,1
8,111594491584000,3.83,-2.83,0.76,1
8,111594531501000,0.08,-3.15,4.79,1
8,111594611610000,1.84,0.38,-1.27,1
8,111594651619000,17.82,10.95,-1.76,1
8,111594692604000,19.53,16.02,-2.45,1
8,111594731636000,10.72,3.91,-4.9,1
8,111594811561000,-12.87,1.18,-5.71,1
8,111594851570000,-18.47,-2.41,-0.19,1
8,111594891517000,-12.11,-3.98,7.27,1
8,111594931526000,-0.19,0.23,2.22,1
8,111595011543000,7.59,15.43,-16.66,1
8,111595053718000,17.16,19.34,-13.4,1
8,111595091560000,19.91,12.03,-3.17,1
8,111595134102000,19.91,-4.37,-0.8,1
8,111595211525000,3.76,-2.6,3.57,1
8,111595251869000,3.49,-3.3,1.31,1
8,111595291572000,-0.31,-2.68,3.34,1
8,111595344490000,-1.14,-1.42,-2.91,1
8,111595382179000,12.22,4.33,-3.99,1
8,111595461616000,16.28,9.08,-1.65,1
8,111595501594000,6.51,3.45,-8.96,1
8,111595541481000,-2.96,2.34,-10.31,1
8,111595581611000,-17.54,-3.11,-4.4,1
8,111595661537000,-4.33,0.38,14.33,1
8,111595701606000,-0.31,2.11,-2.41,1
8,111595741737000,-1.5,8.35,-10.8,1
8,111595781624000,10.23,19.95,-16.47,1
8,111595861580000,19.91,7.25,-2.72,1
8,111595901588000,15.98,-5.18,8.2,1
8,111595941597000,4.63,-3.15,8.96,1
8,111595981514000,5.79,-1.8,0.23,1
8,111596061622000,-1.31,-1.27,0.08,1
8,111596101600000,-0.61,-0.84,-2.41,1
8,111596141670000,14.29,5.24,-1.73,1
8,111596181648000,19.91,18.96,-1.69,1
8,111596261696000,3.02,3.76,-10.31,1
8,111596301613000,-7.08,1.18,-7.55,1
8,111596341591000,-18.7,-2.22,-0.8,1
8,111596381630000,-13.02,0.11,4.06,1
8,111596470222000,2.75,7.08,-4.14,1
8,111596512245000,8.35,18.92,-18.05,1
8,111596551613000,13.78,18.12,-11.73,1
8,111596591591000,19.91,15.28,-7.21,1
8,111596631660000,19.46,-0.65,4.99,1
8,111596711494000,6.17,-2.11,1.04,1
8,111596751472000,2.87,-2.22,0.46,1
8,111596791603000,-0.61,-3.68,3.36,1
8,111596831611000,-1.88,-2.87,-1.76,1
8,111596881630000,11.92,4.52,1.61,1
8,111596961616000,14.44,12.53,-4.75,1
8,111597001930000,2.83,2.96,-5.33,1
8,111597046241000,-4.9,0.93,-7.16,1
8,111597083564000,-15.47,-3.06,-3.11,1
8,111597162117000,-4.82,-2.72,9.15,1
8,111597201576000,0.65,3.64,-0.38,1
8,111597241615000,1.38,9.47,-14.86,1
8,111597281562000,13.57,20.04,-15.28,1
8,111597361641000,19.91,2.91,-3.15,1
8,111597402321000,14.94,-5.13,9.19,1
8,111597442085000,5.05,-2.34,6.59,1
8,111597482185000,4.29,-1.95,-1.18,1
8,111597561531000,-2.53,-1.92,-0.38,1
8,111597601600000,-0.61,-0.89,-2.53,1
8,111597661934000,19.91,17.05,-3.72,1
8,111597701576000,17.77,11.3,-2.6,1
8,111597751564000,3.06,4.06,-10.15,1
8,111597791481000,-5.41,1.69,-9.47,1
8,111597831550000,-17.97,-3.15,-2.22,1
8,111597881447000,-13.76,-4.4,7.63,1
8,111597961616000,0.0,3.06,-4.75,1
8,111598001747000,1.27,11.69,-13.1,1
8,111598041938000,12.26,20.04,-14.75,1
8,111598081642000,19.7,18.92,-5.43,1
8,111598162269000,14.18,-6.28,11.14,1
8,111598201515000,5.28,-3.72,6.21,1
8,111598242836000,3.21,-2.68,-0.65,1
8,111598281654000,0.27,-3.57,4.21,1
8,111598361641000,-0.53,-1.38,-2.41,1
8,111598411476000,17.69,11.84,-0.61,1
8,111598451637000,19.65,16.97,-2.53,1
8,111598491584000,9.0,3.6,-3.83,1
8,111598532997000,-0.04,2.53,-10.65,1
8,111598611702000,-17.92,-3.45,-0.84,1
8,111598653511000,-9.77,-4.14,8.54,1
8,111598691566000,-0.95,2.11,1.99,1
8,111598731605000,0.53,5.9,-4.75,1
8,111598811500000,16.02,18.89,-10.23,1
8,111598851570000,19.91,10.19,-5.63,1
8,111598891609000,19.84,-4.02,5.2,1
8,111598931617000,8.62,-3.68,8.31,1
8,111599091438000,-2.49,-1.08,-2.07,1
8,111599091438000,-2.49,-1.08,-2.07,1
8,111599091438000,-2.49,-1.08,-2.07,1
8,111599131599000,5.18,1.18,-1.84,1
8,111599211494000,17.92,10.42,-0.72,1
8,111599251625000,6.89,2.91,-7.67,1
8,111599291572000,-1.46,3.72,-12.11,1
8,111599331581000,-16.36,0.04,-6.09,1
8,111599411567000,-7.74,-1.46,13.33,1
8,111599451576000,1.38,3.95,3.83,1
8,111599491554000,1.65,9.62,-12.15,1
8,111599531562000,13.14,20.04,-17.27,1
8,111599611580000,19.91,8.43,-6.32,1
8,111599651558000,18.85,-4.52,8.01,1
8,111599691627000,5.24,-3.98,7.25,1
8,111599731544000,4.63,-2.26,0.38,1
8,111599811775000,-1.46,-2.49,1.69,1
8,111599851539000,-2.68,-1.5,-1.95,1
8,111599891578000,7.44,1.65,0.3,1
8,111599931556000,19.91,16.4,-2.96,1
8,111600011543000,4.71,4.63,-7.21,1
8,111600053718000,-3.02,2.72,-9.11,1
8,111600091560000,-16.04,-2.56,-4.1,1
8,111600131569000,-17.67,-2.68,1.57,1
8,111600211586000,2.56,4.52,4.86,1
8,111600252052000,4.82,11.11,-15.4,1
8,111600291572000,14.18,19.99,-15.47,1
8,111600331703000,18.89,14.67,-3.6,1
8,111600411567000,17.24,-3.95,12.95,1
8,111600451454000,6.97,-2.56,6.63,1
8,111600491493000,5.13,-1.53,-0.95,1
8,111600531624000,0.42,-2.6,2.34,1
8,111600611641000,-2.87,-2.37,-2.34,1
8,111600611641000,-2.87,-2.37,-2.34,1
8,111600711403000,19.91,17.27,-2.76,1
8,111600751747000,9.53,5.28,-3.3,1
8,111600791542000,-0.04,3.49,-11.26,1
8,111600831642000,-11.99,-0.8,-5.33,1
8,111600911476000,-11.54,-4.02,8.05,1
8,111600951606000,0.42,1.95,3.06,1
8,111600992683000,0.72,6.63,-3.15,1
8,111601031624000,5.94,17.39,-18.12,1
8,111601081672000,17.27,9.85,-4.79,1
8,111601161476000,18.5,-5.52,8.66,1
8,111601201545000,5.6,-2.03,7.12,1
8,111601243049000,6.66,-1.92,-1.14,1
8,111601281624000,1.27,-2.83,3.57,1
8,111601361610000,-3.64,-2.56,-2.98,1
8,111601401558000,6.28,1.08,-2.07,1
8,111601441627000,19.91,16.86,-5.01,1
8,111601481666000,17.73,12.6,-2.15,1
8,111601521675000,5.05,5.13,-7.67,1
8,111601611488000,-17.01,-2.72,-0.72,1
8,111601651497000,-13.53,-4.48,5.9,1
8,111601692268000,-3.41,-1.27,3.79,1
8,111601731453000,1.76,4.6,-2.45,1
8,111601814705000,14.52,19.8,-13.48,1
8,111601854225000,19.91,13.82,-7.08,1
8,111601891639000,19.91,0.34,-0.95,1
8,111601931587000,10.08,-3.41,11.6,1
8,111602011543000,4.48,-1.73,-0.8,1
8,111602053779000,0.27,-3.06,4.44,1
8,111602091530000,-2.45,-1.46,-1.23,1
8,111602131599000,0.69,-0.38,-3.15,1
8,111602211433000,19.53,16.82,-6.24,1
8,111602251564000,7.46,4.21,-5.6,1
8,111602291511000,-1.31,3.38,-12.07,1
8,111602331642000,-14.86,-0.19,-6.7,1
8,111602412971000,-8.89,-4.48,12.3,1
8,111602451606000,1.88,2.49,0.69,1
8,111602491615000,1.88,5.37,-3.83,1
8,111602531624000,10.76,18.66,-17.54,1
8,111602571510000,17.86,18.43,-11.54,1
8,111602661628000,17.82,-5.05,9.15,1
8,111602701606000,4.06,-3.15,9.11,1
8,111602741554000,5.94,-1.57,-0.31,1
8,111602781624000,2.68,-2.49,3.3,1
8,111602861610000,-1.38,-0.72,-2.91,1
8,111602901588000,10.61,2.68,-1.42,1
8,111602941627000,19.91,19.04,-4.82,1
8,111602981605000,14.63,10.73,-5.22,1
8,111603061622000,-6.28,2.07,-9.47,1
8,111603101570000,-18.92,-1.33,-4.94,1
8,111603144661000,-17.01,-4.1,7.16,1
8,111603181984000,-2.83,0.61,9.28,1
8,111603261635000,7.46,14.6,-15.47,1
8,111603301643000,17.39,19.8,-14.37,1
8,111603341621000,19.91,15.4,-4.29,1
8,111603381538000,19.91,-0.95,-6.47,1
8,111603461647000,3.95,-3.41,5.01,1
8,111603501533000,4.63,-2.6,-1.54,1
8,111603541511000,0.19,-3.21,5.18,1
8,111603581581000,-2.56,-1.95,-0.46,1
8,111603661598000,15.83,9.28,-2.79,1
8,111603704414000,19.76,17.27,-4.4,1
8,111603745399000,7.78,8.12,-7.08,1
8,111603782722000,-0.53,5.79,-12.26,1
8,111603861641000,-19.27,-2.3,1.42,1
8,111603901619000,-13.25,-4.9,8.66,1
8,111603941597000,-0.04,0.8,1.95,1
8,111603981666000,0.19,3.83,-3.38,1
8,111604061561000,19.38,17.39,-7.21,1
8,111604102302000,19.91,11.18,-6.09,1
8,111604142311000,19.91,1.54,-7.63,1
8,111604182655000,11.95,-4.02,10.92,1
8,111604262245000,4.02,-2.11,-1.92,1
8,111604304329000,0.11,-3.06,4.06,1
8,111604341835000,-3.34,-2.34,-1.04,1
8,111604381660000,0.23,-0.91,-2.76,1
8,111604461525000,19.8,18.12,-5.13,1
8,111604501625000,7.46,6.66,-5.71,1
8,111604541633000,0.04,3.6,-10.04,1
8,111604581550000,-11.37,-0.15,-4.4,1
8,111604664375000,-12.87,-5.82,8.35,1
8,111604701851000,-0.72,1.23,5.37,1
8,111604741615000,2.49,5.94,-3.53,1
8,111604781593000,9.72,17.69,-16.55,1
8,111604861641000,19.91,13.99,-5.94,1
8,111604901619000,19.91,1.12,-5.48,1
8,111604941597000,12.56,-5.05,11.41,1
8,111604981666000,2.91,-3.83,5.2,1
8,111605061622000,0.42,-2.98,4.9,1
8,111605101600000,-2.49,-2.07,-0.04,1
8,111605142311000,-0.89,-1.14,-2.96,1
8,111605191627000,17.97,11.11,-1.84,1
8,111605231514000,19.61,17.67,-2.37,1
8,111605312233000,-0.76,3.87,-9.62,1
8,111605351600000,-12.95,-0.19,-3.72,1
8,111605391639000,-17.24,-3.57,-2.68,1
8,111605431648000,-11.45,-4.4,6.55,1
8,111605511696000,0.27,3.6,-2.03,1
8,111605551643000,10.11,15.89,-16.02,1
8,111605591621000,18.24,18.96,-11.11,1
8,111605631630000,19.91,12.95,-2.56,1
8,111605711647000,13.38,-6.24,9.81,1
8,111605751564000,2.18,-3.41,3.79,1
8,111605791633000,3.45,-3.02,-0.99,1
8,111605831733000,0.0,-3.34,4.99,1
8,111605911598000,-0.61,-0.89,-2.91,1
8,111605951667000,15.55,5.52,-12.49,1
8,111606071418000,2.6,5.52,-12.49,1
8,111606071418000,2.6,5.52,-12.49,1
8,111606111610000,-10.15,2.64,-7.86,1
8,111606152595000,-19.0,-1.57,-1.42,1
8,111606191566000,-13.8,-2.45,4.86,1
8,111606233253000,-2.15,-2.37,8.2,1
8,111606311531000,1.61,14.9,-18.5,1
8,111606351997000,8.81,19.99,-13.1,1
8,111606391639000,18.12,17.67,-13.59,1
8,111606431617000,19.91,9.15,-1.38,1
8,111606511512000,4.18,-3.79,5.33,1
8,111606551643000,4.99,-3.3,-0.8,1
8,111606591591000,0.61,-4.02,4.75,1
8,111606631752000,-2.87,-1.99,-2.91,1
8,111606711647000,14.67,10.12,1.65,1
8,111606751625000,19.91,18.89,-5.94,1
8,111606791633000,10.92,7.08,-4.4,1
8,111606831642000,1.53,4.94,-10.08,1
8,111606911567000,-19.08,-4.06,-1.57,1
8,111606951637000,-12.68,-5.01,5.18,1
8,111606991584000,-1.18,-1.38,0.65,1
8,111607031715000,0.15,1.65,0.95,1
8,111607111580000,17.69,20.04,-14.56,1
8,111607153328000,19.91,16.89,-0.46,1
8,111607191597000,19.91,0.53,-10.76,1
8,111607231666000,14.48,-6.74,12.79,1
8,111607311500000,3.49,-2.91,-1.31,1
8,111607351600000,-0.5,-3.15,4.4,1
8,111607391548000,-3.15,-2.37,-0.57,1
8,111607431587000,1.18,-0.27,-2.15,1
8,111607511573000,19.7,15.6,0.65,1
8,111607551582000,8.62,6.7,-5.05,1
8,111607591591000,0.04,5.41,-12.07,1
8,111607631721000,-12.45,0.65,-5.6,1
8,111607711677000,-11.45,-2.68,6.7,1
8,111607751594000,-0.93,0.69,5.63,1
8,111607791633000,-0.46,7.44,-5.22,1
8,111607832039000,7.21,18.62,-18.39,1
8,111607911598000,19.91,12.26,-7.86,1
8,111607951637000,19.53,-3.95,7.5,1
8,111607991584000,5.79,-4.37,6.7,1
8,111608031532000,4.71,-3.21,-0.15,1
8,111608114235000,-2.34,-2.22,1.12,1
8,111608153022000,-4.06,-1.99,-2.3,1
8,111608192054000,5.52,3.02,1.31,1
8,111608234321000,19.91,17.97,-10.27,1
8,111608311500000,6.43,4.86,-9.81,1
8,111608357887000,-5.67,4.94,-11.69,1
8,111608395271000,-18.39,0.46,-3.17,1
8,111608432747000,-17.43,-1.92,5.41,1
8,111608472694000,-5.56,-0.84,13.53,1
8,111608561989000,7.16,15.24,-15.55,1
8,111608601631000,10.88,19.42,-12.22,1
8,111608641639000,19.08,13.82,-11.92,1
8,111608681617000,19.91,7.27,-4.29,1
8,111608731910000,9.89,-3.6,7.65,1
8,111608811592000,3.3,-3.11,1.04,1
8,111608851600000,-1.08,-2.79,1.99,1
8,111608892280000,-3.72,-3.15,-2.37,1
8,111608931617000,6.09,3.11,-0.65,1
8,111609011482000,18.5,12.98,-1.88,1
8,111609053810000,6.63,5.13,-9.62,1
8,111609091926000,-3.68,4.82,-11.45,1
8,111609131630000,-16.25,-1.53,-2.37,1
8,111609181923000,-15.05,-1.42,3.17,1
8,111609261604000,1.5,5.05,2.07,1
8,111609301643000,0.65,11.5,-13.38,1
8,111609341621000,5.82,20.04,-13.91,1
8,111609381660000,17.01,18.24,-11.56,1
8,111609461616000,14.98,-3.36,10.0,1
8,111609501594000,2.64,-4.18,7.35,1
8,111609541572000,4.29,-3.15,0.23,1
8,111609581672000,0.46,-3.34,4.63,1
8,111609661689000,1.33,-0.57,-3.06,1
8,111609701637000,17.43,11.41,-3.6,1
8,111609741737000,19.84,17.05,-0.84,1
8,111609781654000,9.66,6.21,-4.56,1
8,111609861702000,-8.73,1.31,-7.31,1
8,111609901619000,-19.0,-3.53,-3.79,1
8,111609941505000,-12.45,-5.13,9.0,1
8,111609981666000,-1.92,0.31,6.21,1
8,111610061653000,3.98,14.56,-13.63,1
8,111610101600000,12.68,20.04,-13.21,1
8,111610141670000,19.89,16.93,-8.31,1
8,111610181678000,19.91,0.65,-7.63,1
8,111610262733000,3.17,-3.95,3.83,1
8,111610301490000,1.08,-3.26,0.04,1
8,111610341652000,-1.61,-2.56,4.44,1
8,111610381660000,-3.02,-1.46,-0.46,1
8,111610461616000,16.63,10.42,-3.91,1
8,111610501594000,19.91,16.36,-1.46,1
8,111610541694000,13.17,3.38,-1.84,1
8,111610581672000,3.11,3.64,-9.04,1
8,111610661689000,-18.05,-3.49,-4.06,1
8,111610701729000,-13.87,-5.13,7.97,1
8,111610755043000,0.72,2.87,1.33,1
8,111610794746000,2.3,4.52,-4.75,1
8,111610832100000,7.97,17.43,-14.18,1
8,111610911567000,19.91,16.86,-4.33,1
8,111610951576000,19.91,-0.46,0.91,1
8,111610991584000,11.75,-4.29,6.05,1
8,111611031501000,3.95,-4.18,3.6,1
8,111611111549000,-1.42,-2.91,2.98,1
8,111611154121000,-1.65,-0.61,-1.69,1
8,111611201698000,12.41,4.71,-1.23,1
8,111611241707000,19.91,18.16,-3.38,1
8,111611281624000,17.12,8.43,-0.84,1
8,111611361610000,-1.65,4.99,-11.14,1
8,111611401588000,-15.51,-1.33,-5.22,1
8,111611441627000,-16.7,-6.7,3.17,1
8,111611481636000,-6.21,-4.21,5.43,1
8,111611561592000,2.98,14.02,-12.83,1
8,111611601631000,11.75,19.99,-15.21,1
8,111611641609000,18.24,18.31,-5.43,1
8,111611681617000,19.91,5.71,-4.06,1
8,111611761604000,4.21,-3.45,4.25,1
8,111611801490000,2.53,-2.53,0.0,1
8,111611841591000,-0.89,-2.37,3.06,1
8,111611881599000,-3.11,-2.34,-0.65,1
8,111611962684000,16.32,10.15,-0.8,1
8,111612001533000,19.91,18.12,-4.63,1
8,111612041572000,11.99,5.01,-2.11,1
8,111612081672000,2.37,4.18,-9.89,1
8,111612161689000,-18.62,-4.25,-1.18,1
8,111612201698000,-12.18,-1.27,5.63,1
8,111612241768000,-0.8,2.83,7.86,1
8,111612287788000,2.49,5.52,-4.67,1
8,111612331611000,5.6,19.15,-14.71,1
8,111612411567000,19.91,14.63,-5.09,1
8,111612451606000,18.81,-2.14,4.86,1
8,111612491615000,5.2,-3.26,8.16,1
8,111612531532000,2.68,-3.3,3.6,1
8,111612611610000,-1.31,-2.07,1.76,1
8,111612651588000,1.23,0.99,-2.03,1
8,111612692512000,16.51,8.96,-3.87,1
8,111612731636000,19.91,18.39,-2.18,1
8,111612811622000,3.76,4.52,-10.69,1
8,111612851600000,-4.29,2.41,-9.19,1
8,111612891609000,-18.16,-3.79,-3.72,1
8,111613011299000,1.04,2.49,-3.45,1
8,111613011299000,1.04,2.49,-3.45,1
8,111613051552000,3.6,12.76,-11.6,1
8,111613091530000,12.98,20.04,-14.25,1
8,111613131569000,19.38,19.19,-4.52,1
8,111613211494000,13.4,-3.64,8.62,1
8,111613251625000,5.18,-3.87,4.37,1
8,111613291603000,3.45,-3.95,0.61,1
8,111613331581000,-0.15,-3.21,3.72,1
8,111613411537000,2.34,0.57,-1.33,1
8,111613451606000,18.73,13.82,-6.51,1
8,111613491615000,18.62,15.98,-0.93,1
8,111613531593000,7.12,4.9,-3.68,1
8,111613611580000,-12.15,-0.53,-4.71,1
8,111613651588000,-18.66,-2.34,2.64,1
8,111613691505000,-11.54,-1.61,5.63,1
8,111613731636000,-1.84,-0.04,0.19,1
8,111613811561000,13.14,17.73,-16.86,1
8,111613851600000,17.43,18.12,-9.89,1
8,111613891639000,19.91,13.1,-4.75,1
8,111613931587000,19.8,-0.69,2.3,1
8,111614011543000,3.11,-2.14,5.75,1
8,111614053596000,4.29,-2.45,0.0,1
8,111614091407000,1.08,-3.17,5.2,1
8,111614131599000,-0.11,-0.84,-1.92,1
8,111614211555000,19.91,15.24,-1.18,1
8,111614252968000,17.77,14.41,-1.76,1
8,111614291572000,7.25,3.91,-5.75,1
8,111614331550000,-0.34,4.21,-10.31,1
8,111614411567000,-15.85,0.93,0.27,1
8,111614451606000,-9.51,-4.1,7.5,1
8,111614491646000,-2.49,-1.12,1.61,1
8,111614531593000,-0.19,5.05,-3.95,1
8,111614611610000,13.29,19.53,-9.81,1
8,111614651588000,19.91,15.09,-9.28,1
8,111614691993000,19.91,-0.65,5.43,1
8,111614731544000,7.55,-2.22,5.75,1
8,111614811470000,4.48,-2.34,-0.93,1
8,111614851570000,0.84,-3.53,5.18,1
8,111614891609000,-1.84,-2.34,-0.99,1
8,111614931617000,2.53,-1.42,-3.53,1
8,111615011543000,19.91,18.2,-0.34,1
8,111615053810000,9.11,7.86,-5.75,1
8,111615091530000,0.27,4.86,-9.66,1
8,111615131599000,-9.53,1.61,-4.02,1
8,111615211616000,-14.29,-7.55,9.11,1
8,111615251655000,-3.49,0.89,4.25,1
8,111615291572000,0.5,7.5,-2.96,1
8,111615331611000,7.25,18.12,-16.51,1
8,111615411598000,19.91,14.14,-10.27,1
8,111615451606000,19.91,1.92,0.23,1
8,111615491615000,13.14,-4.67,7.35,1
8,111615531593000,2.53,-3.3,4.75,1
8,111615611610000,1.27,-3.17,4.37,1
8,111615651619000,-2.03,-2.45,0.15,1
8,111615692054000,-0.72,-1.84,-2.79,1
8,111615731605000,14.25,8.08,-1.14,1
8,111615811531000,11.99,6.51,-3.68,1
8,111615851753000,2.96,4.48,-9.77,1
8,111615891609000,-5.79,1.69,-7.82,1
8,111615931587000,-18.85,-3.15,-4.25,1
8,111616011512000,-1.5,3.57,14.18,1
8,111616053718000,1.57,7.35,-10.8,1
8,111616091530000,0.5,17.39,-14.63,1
8,111616131599000,8.54,19.99,-9.89,1
8,111616211616000,19.8,4.21,2.64,1
8,111616251533000,8.27,-3.76,10.57,1
8,111616291572000,4.94,-4.18,4.52,1
8,111616331611000,2.91,-2.56,0.38,1
8,111616411567000,-1.84,-0.91,-2.03,1
8,111616451606000,7.21,2.18,0.11,1
