user-id,timestamp,accX,accY,accZ,ActivityEncoded
21,119204001807000,0.72,13.82,3.36,4
21,119204041480000,-0.46,7.12,2.41,4
21,119204081549000,-0.57,4.21,2.37,4
21,119204163000000,1.95,3.21,-0.19,4
21,119204201636000,-2.15,1.31,2.26,4
21,119204241522000,-2.22,14.9,4.06,4
21,119204281714000,4.59,16.63,12.72,4
21,119204324255000,1.12,16.63,12.72,4
21,119204415381000,1.46,2.37,1.95,4
21,119204453253000,-0.93,-3.72,-0.08,4
21,119204491522000,-1.88,-6.63,-0.99,4
21,119204531561000,0.15,-2.14,-1.61,4
21,119204611853000,-0.5,16.44,0.46,4
21,119204651648000,0.57,6.97,3.87,4
21,119204691534000,3.11,13.91,1.92,4
21,119204731482000,1.8,17.92,5.13,4
21,119204811499000,1.33,14.94,1.88,4
21,119204851630000,0.46,7.93,1.73,4
21,119204891669000,0.27,1.46,3.76,4
21,119204931433000,4.56,1.61,3.91,4
21,119205011328000,-0.23,3.99,-1.8,4
21,119205051550000,-3.79,15.05,3.72,4
21,119205091620000,-5.22,16.66,1.76,4
21,119205133032000,1.27,14.79,6.51,4
21,119205211615000,1.23,13.91,8.69,4
21,119205251624000,0.42,5.6,4.29,4
21,119205291724000,0.72,-1.61,1.33,4
21,119205331549000,0.8,-7.82,-1.57,4
21,119205411627000,-0.89,14.6,5.28,4
21,119205451636000,3.72,7.93,4.02,4
21,119205491553000,4.44,5.56,2.79,4
21,119205531531000,2.6,19.23,5.43,4
21,119205611487000,0.84,13.02,0.76,4
21,119205651709000,0.69,9.66,1.08,4
21,119205700232000,0.76,0.61,2.03,4
21,119205742163000,2.03,2.45,2.87,4
21,119205781561000,2.26,7.12,0.08,4
21,119205861517000,-6.21,16.93,2.87,4
21,119205901617000,-0.89,13.59,2.87,4
21,119205941504000,4.25,17.39,7.16,4
21,119205981604000,0.3,15.66,8.88,4
21,119206061469000,-1.12,2.6,1.65,4
21,119206101508000,0.69,-4.21,2.14,4
21,119206143286000,1.27,-6.97,-0.46,4
21,119206181647000,-1.08,2.26,-3.11,4
21,119206261542000,0.27,5.05,1.73,4
21,119206301550000,2.11,6.05,0.89,4
21,119206341498000,3.36,12.49,2.91,4
21,119206381689000,4.82,14.1,4.29,4
21,119206461798000,1.27,13.59,1.61,4
21,119206503577000,0.42,8.31,-0.34,4
21,119206541480000,0.8,3.76,1.12,4
21,119206581519000,0.46,3.57,3.26,4
21,119206661566000,3.95,10.99,-1.84,4
21,119206701544000,-8.08,14.06,-3.45,4
21,119206741614000,-0.93,9.0,-1.27,4
21,119206781683000,1.57,10.88,-0.89,4
21,119206861517000,-1.42,9.81,1.65,4
21,119206901587000,-1.12,8.28,3.36,4
21,119206941504000,-0.72,6.89,2.56,4
21,119207022589000,-1.57,4.52,2.6,4
21,119207062262000,-0.89,4.56,3.02,4
21,119207101508000,-1.04,5.75,3.83,4
21,119207142950000,-1.33,7.86,4.94,4
21,119207183386000,-2.34,10.53,5.33,4
21,119207261511000,0.89,10.88,3.98,4
21,119207301520000,2.41,1.95,-0.19,4
21,119207341498000,3.83,8.47,0.46,4
21,119207381537000,1.12,11.88,1.84,4
21,119207461554000,-0.65,8.81,1.14,4
21,119207501501000,0.46,9.23,-0.57,4
21,119207541480000,0.46,8.43,-0.95,4
21,119207581580000,0.27,9.04,-0.15,4
21,119207661505000,0.8,9.77,0.38,4
21,119207701514000,1.92,9.72,0.72,4
21,119207741522000,1.08,10.0,1.53,4
21,119207781531000,2.26,9.53,1.08,4
21,119207861517000,0.89,12.76,-0.38,4
21,119207901556000,0.84,9.15,-1.18,4
21,119207941534000,0.23,10.53,0.27,4
21,119207981543000,0.76,11.92,3.26,4
21,119208061499000,0.08,8.5,1.84,4
21,119208101630000,-0.95,7.35,3.21,4
21,119208141516000,0.0,7.21,2.6,4
21,119208181738000,-0.95,6.13,1.88,4
21,119208261664000,-0.27,6.28,4.67,4
21,119208301550000,1.33,8.2,5.2,4
21,119208341467000,-0.11,10.38,6.09,4
21,119208381537000,2.34,11.18,6.7,4
21,119208461493000,-0.84,9.92,0.61,4
21,119208507330000,-0.93,4.6,4.48,4
21,119208544928000,1.8,3.6,1.84,4
21,119208591498000,1.65,17.54,2.6,4
21,119208631537000,-0.93,12.95,1.92,4
21,119208711951000,4.18,16.04,3.34,4
21,119208751654000,2.87,9.66,2.96,4
21,119208791541000,-1.57,3.45,2.37,4
21,119208951453000,1.08,5.24,0.53,4
21,119208951453000,1.08,5.24,0.53,4
21,119208951453000,1.08,5.24,0.53,4
21,119208991675000,-2.68,19.42,3.64,4
21,119209031561000,-1.5,17.62,7.16,4
21,119209111792000,1.31,13.76,9.58,4
21,119209158850000,0.76,8.58,6.32,4
21,119209194525000,-0.84,1.46,0.65,4
21,119209231818000,0.11,-6.32,-1.61,4
21,119209311530000,-1.76,1.46,-1.92,4
21,119209351660000,-1.46,16.86,4.44,4
21,119209391547000,1.61,8.31,-1.57,4
21,119209431586000,1.57,7.46,0.76,4
21,119209511603000,6.66,18.58,6.66,4
21,119209551642000,3.91,15.21,4.29,4
21,119209591528000,0.72,14.1,2.96,4
21,119209631628000,-0.04,3.87,2.49,4
21,119209713873000,4.37,3.64,-0.04,4
21,119209751776000,-0.69,1.65,-0.19,4
21,119209791541000,-2.64,9.89,1.23,4
21,119209831580000,-1.99,16.17,-0.53,4
21,119209912787000,5.6,14.41,12.26,4
21,119209951453000,1.8,12.22,13.48,4
21,119209991370000,1.53,8.39,11.3,4
21,119210031409000,0.61,6.09,6.24,4
21,119210081580000,-0.38,-3.83,0.46,4
21,119210170721000,-5.71,4.63,-1.27,4
21,119210211462000,5.43,15.85,1.92,4
21,119210251654000,-0.34,0.31,1.61,4
21,119210291724000,0.19,9.92,3.3,4
21,119210331580000,3.17,19.76,5.2,4
21,119210411627000,0.5,13.4,2.34,4
21,119210451636000,-0.65,6.97,0.84,4
21,119210491522000,-1.92,3.21,1.8,4
21,119210532751000,2.6,5.79,5.9,4
21,119210582251000,3.26,1.14,-3.45,4
21,119210661658000,-5.43,18.05,4.82,4
21,119210701636000,0.42,13.91,5.05,4
21,119210741827000,7.08,18.2,10.69,4
21,119210781561000,1.38,17.5,10.88,4
21,119210861487000,-0.84,1.65,0.72,4
21,119210901495000,-0.46,-4.52,-0.38,4
21,119210941657000,-0.61,-7.12,-0.42,4
21,119210981604000,-1.04,1.42,-1.84,4
21,119211062598000,3.36,7.67,0.23,4
21,119211062598000,3.36,7.67,4.06,4
21,119211131842000,-0.61,14.82,4.06,4
21,119211172400000,3.87,16.86,4.56,4
21,119211254126000,1.12,12.53,2.6,4
21,119211291571000,0.99,6.13,2.18,4
21,119211331580000,0.69,3.26,2.98,4
21,119211411505000,0.65,2.83,-1.69,4
21,119211451788000,1.23,4.06,1.27,4
21,119211491492000,-5.41,17.01,2.72,4
21,119211531622000,-0.89,16.82,6.4,4
21,119211611639000,2.3,14.06,11.75,4
21,119211651648000,-0.31,8.85,7.55,4
21,119211693335000,-0.34,4.75,2.14,4
21,119211732428000,-1.08,-1.46,-1.23,4
21,119211811438000,-2.22,-3.45,-1.08,4
21,119211851752000,-2.26,5.28,0.34,4
21,119211891852000,-2.15,17.16,0.91,4
21,119211931555000,5.2,11.03,3.83,4
21,119212012457000,4.25,19.08,7.65,4
21,119212051642000,4.25,16.4,5.52,4
21,119212091498000,1.57,12.83,1.95,4
21,119212131537000,0.61,12.72,0.72,4
21,119212171637000,2.56,8.2,3.17,4
21,119212261481000,0.91,1.73,2.91,4
21,119212301550000,2.87,2.11,1.65,4
21,119212341498000,3.53,3.53,-2.96,4
21,119212381659000,-2.11,14.48,0.84,4
21,119212461646000,3.02,13.67,5.05,4
21,119212501501000,3.11,15.55,6.93,4
21,119212541510000,2.07,18.89,11.8,4
21,119212581641000,0.76,13.1,10.0,4
21,119212661658000,-0.08,-0.3,0.19,4
21,119212701514000,-0.19,-7.44,-0.23,4
21,119212741614000,-0.04,-7.46,-0.84,4
21,119212781500000,-1.12,6.36,3.21,4
21,119212861639000,3.76,11.03,5.56,4
21,119212901495000,2.68,11.88,0.89,4
21,119212941473000,0.46,18.62,3.87,4
21,119212981573000,2.91,15.17,2.75,4
21,119213061469000,-1.18,3.91,3.3,4
21,119213101630000,0.27,2.98,2.41,4
21,119213141486000,2.49,1.14,0.84,4
21,119213187506000,-1.61,8.12,1.73,4
21,119213263709000,1.31,16.86,8.16,4
21,119213303320000,1.18,14.33,11.65,4
21,119213341467000,-2.07,13.02,11.26,4
21,119213381537000,-0.76,6.66,6.05,4
21,119213461676000,-1.61,-4.1,0.42,4
21,119213501593000,-1.31,-7.7,-0.08,4
21,119213541480000,-0.31,6.66,1.76,4
21,119213581488000,4.67,16.82,4.21,4
21,119213661536000,1.42,11.14,2.22,4
21,119213701575000,0.5,12.18,3.36,4
21,119213741492000,1.18,10.88,3.45,4
21,119213781622000,0.57,9.28,2.3,4
21,119213861639000,0.99,6.02,1.12,4
21,119213901495000,1.61,7.35,2.07,4
21,119213941534000,2.98,6.89,3.15,4
21,119213991492000,5.13,8.77,2.18,4
21,119214031683000,2.83,10.61,2.96,4
21,119214111731000,0.65,11.6,-3.45,4
21,119214151617000,-3.34,13.18,0.0,4
21,119214191412000,0.11,12.11,0.5,4
21,119214231482000,3.79,8.89,0.91,4
21,119214311499000,-0.61,8.85,2.03,4
21,119214351508000,-0.5,7.74,0.61,4
21,119214391547000,-1.76,7.08,1.73,4
21,119214431555000,-2.37,5.98,2.83,4
21,119214511603000,0.34,7.31,5.13,4
21,119214551550000,1.95,9.08,6.51,4
21,119214591528000,1.73,10.57,7.16,4
21,119214641913000,2.68,17.39,2.14,4
21,119214684393000,-1.76,6.21,2.49,4
21,119214761481000,4.9,12.57,1.04,4
21,119214801642000,0.0,8.92,1.57,4
21,119214841528000,-2.6,6.36,1.08,4
21,119214881506000,0.08,8.5,0.57,4
21,119214961676000,0.99,8.89,1.61,4
21,119215001532000,1.38,7.97,1.18,4
21,119215041510000,2.22,8.89,0.65,4
21,119215081580000,0.5,10.15,1.38,4
21,119215162146000,4.63,11.8,1.27,4
21,119215202887000,0.34,13.99,-0.27,4
21,119215241553000,0.53,9.11,-1.8,4
21,119215281531000,0.27,11.41,0.53,4
21,119215361487000,1.99,10.34,-0.38,4
21,119215401526000,-0.38,8.2,1.92,4
21,119215441473000,0.04,7.93,1.42,4
21,119215483008000,-0.72,7.59,0.65,4
21,119215561469000,-1.5,4.4,2.79,4
21,119215601508000,-0.38,5.6,3.83,4
21,119215641760000,0.61,7.31,5.18,4
21,119215683478000,3.49,12.53,6.17,4
21,119215761481000,6.47,3.57,6.09,4
21,119215801520000,2.03,8.47,2.68,4
21,119215961798000,1.33,16.86,2.34,4
21,119215961798000,1.33,16.86,2.34,4
21,119215961798000,1.33,16.86,2.34,4
21,119216001685000,-1.04,11.3,0.76,4
21,119216041541000,3.21,18.16,5.05,4
21,119216081549000,8.43,16.13,5.09,4
21,119216161597000,-3.68,5.79,3.11,4
21,119216202216000,1.73,5.48,3.83,4
21,119216241522000,3.64,0.27,-1.5,4
21,119216281531000,-1.31,-3.98,0.42,4
21,119216361578000,3.6,19.31,3.79,4
21,119216401495000,3.34,18.28,10.08,4
21,119216441595000,6.47,18.39,13.38,4
21,119216484930000,-2.87,11.96,4.9,4
21,119216561591000,-0.38,-2.37,-1.61,4
21,119216601508000,-2.98,-8.62,-2.18,4
21,119216641638000,-1.27,-3.83,-1.08,4
21,119216691901000,0.0,12.15,3.11,4
21,119216732184000,2.72,14.86,1.23,4
21,119216811469000,1.23,16.59,4.71,4
21,119216851630000,8.12,16.7,4.59,4
21,119216891913000,3.79,14.94,2.18,4
21,119216931555000,-1.42,10.34,1.8,4
21,119217011511000,1.99,3.06,2.98,4
21,119217051520000,3.91,1.92,-0.72,4
21,119217091467000,-2.6,-0.89,0.27,4
21,119217131659000,-1.65,12.18,5.56,4
21,119217213568000,4.33,16.82,11.56,4
21,119217251410000,0.99,16.02,11.99,4
21,119217291296000,-0.69,10.04,6.78,4
21,119217331519000,-0.89,2.41,1.69,4
21,119217411505000,-1.57,-8.16,-2.49,4
21,119217451636000,-1.23,0.89,-0.53,4
21,119217491492000,-0.23,18.39,2.41,4
21,119217531531000,2.91,8.69,3.68,4
21,119217611517000,7.12,19.11,5.67,4
21,119217651495000,2.14,12.83,3.45,4
21,119217691992000,-1.69,8.08,3.17,4
21,119217731543000,-0.99,2.79,1.84,4
21,119217811530000,2.91,4.06,-1.14,4
21,119217851630000,-0.19,0.5,-1.73,4
21,119217891577000,-1.31,10.57,4.4,4
21,119217931555000,0.0,15.89,4.25,4
21,119218011511000,4.94,14.82,12.91,4
21,119218051520000,-1.5,9.28,9.34,4
21,119218091650000,-4.48,6.47,4.94,4
21,119218131537000,-2.68,-0.19,-1.65,4
21,119218171698000,-2.64,-5.52,-1.8,4
21,119218262732000,4.99,18.47,4.48,4
21,119218301672000,2.83,2.45,2.41,4
21,119218341498000,2.45,14.06,4.14,4
21,119218381537000,4.21,19.23,4.9,4
21,119218461493000,1.18,8.01,1.84,4
21,119218501501000,-1.12,2.98,1.5,4
21,119218541541000,2.3,4.94,1.12,4
21,119218581549000,1.31,2.49,1.27,4
21,119218661597000,-0.99,15.98,4.9,4
21,119218701605000,2.68,18.58,9.49,4
21,119218750342000,3.15,14.14,10.92,4
21,119218791510000,0.5,12.22,8.69,4
21,119218831519000,-0.23,1.57,1.18,4
21,119218911688000,-2.45,-6.66,-1.27,4
21,119218951758000,0.46,-0.91,-1.31,4
21,119218991644000,-1.8,11.92,1.57,4
21,119219031531000,4.4,18.39,4.71,4
21,119219111609000,4.67,15.21,4.44,4
21,119219151495000,3.6,16.93,4.75,4
21,119219192725000,1.88,14.79,2.07,4
21,119219231512000,0.57,10.31,0.99,4
21,119219311530000,1.12,1.88,0.8,4
21,119219351508000,4.33,4.4,1.27,4
21,119219391547000,-0.89,2.6,-1.42,4
21,119219431586000,-1.88,10.61,2.79,4
21,119219511450000,3.57,14.9,9.08,4
21,119219551642000,2.56,17.43,10.57,4
21,119219591498000,-0.69,12.72,8.77,4
21,119219631537000,-0.46,5.22,2.56,4
21,119219711554000,0.15,-4.71,0.19,4
21,119219751685000,-1.99,-5.98,-3.79,4
21,119219791632000,-4.99,8.39,1.88,4
21,119219831549000,4.33,15.13,4.02,4
21,119219911536000,3.72,15.28,3.34,4
21,119219951819000,2.64,18.24,5.09,4
21,119219991461000,1.65,11.6,2.49,4
21,119220031470000,1.53,6.28,2.83,4
21,119220103796000,1.5,4.18,1.27,4
21,119220141455000,1.33,7.08,0.89,4
21,119220181555000,2.45,5.98,1.46,4
21,119220261511000,-2.45,15.66,4.25,4
21,119220301611000,3.15,17.43,10.11,4
21,119220341620000,1.76,15.24,6.36,4
21,119220381598000,-2.11,2.18,-0.46,4
21,119220461493000,-2.34,-5.48,-0.5,4
21,119220501471000,-0.99,-5.52,-4.25,4
21,119220541541000,-0.27,12.41,5.9,4
21,119220581610000,5.63,9.96,2.75,4
21,119220661627000,-0.76,12.98,0.89,4
21,119220701605000,0.15,12.72,3.79,4
21,119220741522000,-0.11,4.9,-1.33,4
21,119220791480000,-0.11,8.31,2.22,4
21,119220832007000,0.5,6.13,1.27,4
21,119220911505000,2.11,10.38,1.5,4
21,119220951849000,2.6,9.66,4.52,4
21,119221012793000,4.9,9.23,0.99,4
21,119221051428000,6.24,10.84,-1.14,4
21,119221092047000,-1.88,13.82,-0.84,4
21,119221131628000,-1.65,12.79,-1.38,4
21,119221211584000,-1.8,9.34,1.73,4
21,119221251440000,1.18,11.3,1.04,4
21,119221291510000,3.26,11.07,2.53,4
21,119221331519000,-0.61,9.3,3.21,4
21,119221411505000,-0.5,6.74,2.79,4
21,119221451758000,-0.11,6.05,2.64,4
21,119221491522000,-0.27,5.63,3.95,4
21,119221531561000,0.3,6.24,4.48,4
21,119221611517000,1.46,6.97,5.33,4
21,119221651526000,0.15,9.92,5.86,4
21,119221691473000,1.76,14.06,8.31,4
21,119221734473000,1.42,13.72,3.06,4
21,119221811530000,-0.38,3.3,1.33,4
21,119221851508000,5.28,9.34,0.27,4
21,119221891425000,1.84,10.42,0.23,4
21,119221931525000,-3.15,8.35,1.18,4
21,119222011603000,0.3,8.92,0.95,4
21,119222051520000,1.5,8.47,0.95,4
21,119222091498000,0.65,8.5,0.72,4
21,119222131506000,-0.53,8.77,0.57,4
21,119222211951000,0.65,8.81,0.89,4
21,119222251501000,2.41,9.23,0.19,4
21,119222291510000,2.96,10.38,0.8,4
21,119222331488000,3.49,10.15,0.5,4
21,119222412268000,0.95,11.73,0.27,4
21,119222451544000,0.84,9.15,-0.31,4
21,119222491492000,0.57,8.92,1.65,4
21,119222531683000,0.04,10.27,1.8,4
21,119222611639000,0.65,14.48,3.79,4
21,119222651678000,3.95,16.63,6.4,4
21,119222691595000,2.96,18.92,8.88,4
21,119222731604000,-1.12,11.92,8.31,4
21,119222771643000,-1.23,4.25,1.88,4
21,119222951300000,3.45,17.88,0.27,4
21,119222951300000,3.45,17.88,0.27,4
21,119222951300000,3.45,17.88,0.27,4
21,119222991522000,3.02,10.08,4.4,4
21,119223031500000,-3.11,6.24,-0.72,4
21,119223111670000,5.01,13.72,4.94,4
21,119223151465000,3.91,15.13,2.41,4
21,119223191473000,2.3,9.85,2.45,4
21,119223231512000,-1.33,4.18,4.21,4
21,119223312109000,5.75,5.9,-3.21,4
21,119223351508000,-1.92,7.89,2.56,4
21,119223391425000,-6.4,13.29,0.95,4
21,119223432013000,-1.18,8.47,2.87,4
21,119223511481000,1.12,12.26,11.26,4
21,119223551520000,-0.38,9.53,10.08,4
21,119223591620000,-1.54,6.17,7.93,4
21,119223631506000,1.04,-0.65,2.87,4
21,119223711615000,-4.1,5.75,0.11,4
21,119223751501000,3.06,14.9,4.59,4
21,119223791510000,0.91,-0.76,-0.93,4
21,119223831702000,0.65,5.86,0.08,4
21,119223911536000,2.45,9.66,3.21,4
21,119223951514000,4.1,12.49,4.94,4
21,119223992834000,3.26,13.25,3.83,4
21,119224031531000,2.56,11.56,2.6,4
21,119224111670000,0.0,7.16,2.68,4
21,119224151526000,1.84,10.34,-0.15,4
21,119224191504000,1.31,8.47,0.65,4
21,119224231512000,-2.96,8.2,2.75,4
21,119224311499000,0.53,8.69,1.53,4
21,119224351538000,0.99,8.5,4.82,4
21,119224391699000,0.27,7.63,6.82,4
21,119224431555000,-0.5,5.94,6.93,4
21,119224511481000,-0.27,6.44,8.85,4
21,119224551520000,-0.95,6.44,9.3,4
21,119224591467000,-0.57,6.28,9.85,4
21,119224631506000,-2.22,5.22,4.52,4
21,119224711554000,-4.14,4.63,2.07,4
21,119224751624000,-0.65,5.94,0.08,4
21,119224791510000,3.21,11.6,1.33,4
21,119224831610000,0.65,5.37,2.22,4
21,119224881537000,0.89,7.89,2.03,4
21,119224961554000,1.76,9.08,2.96,4
21,119225001624000,3.68,10.8,2.96,4
21,119225041510000,2.41,11.73,2.91,4
21,119225081488000,2.26,12.76,2.26,4
21,119225161475000,2.34,9.04,3.15,4
21,119225202521000,0.95,8.43,-1.18,4
21,119225241644000,0.27,10.0,-0.65,4
21,119225281561000,-3.45,9.62,1.8,4
21,119225361609000,-0.23,5.83,-0.42,4
21,119225401495000,1.84,10.5,5.52,4
21,119225441565000,0.99,8.16,7.93,4
21,119225484290000,1.14,7.89,8.96,4
21,119225561591000,-0.72,6.02,9.15,4
21,119225601508000,0.76,1.57,5.41,4
21,119225641516000,-1.27,-1.12,-4.02,4
21,119225681647000,-4.86,12.83,1.99,4
21,119225761481000,2.83,3.21,-0.38,4
21,119225801550000,1.8,6.51,-0.53,4
21,119225841467000,0.04,11.14,2.49,4
21,119225881506000,1.42,8.69,3.34,4
21,119225961615000,3.45,13.4,4.18,4
21,119226001807000,2.34,13.99,2.87,4
21,119226041510000,2.07,12.37,2.22,4
21,119226081610000,1.42,8.31,3.36,4
21,119226161475000,1.61,9.51,-1.46,4
21,119226203375000,-1.33,8.58,0.69,4
21,119226241522000,-3.76,9.0,1.69,4
21,119226281653000,-1.08,8.05,0.42,4
21,119226361517000,0.23,9.51,7.04,4
21,119226401495000,-0.76,8.58,9.7,4
21,119226441687000,-0.5,9.53,11.56,4
21,119226482947000,0.0,7.97,9.19,4
21,119226561469000,2.79,-1.18,3.57,4
21,119226601508000,-2.11,-1.38,-4.48,4
21,119226641516000,-4.99,12.79,4.02,4
21,119226681677000,1.33,10.31,2.79,4
21,119226761450000,0.04,10.88,0.53,4
21,119226801489000,1.61,12.15,3.45,4
21,119226841315000,3.21,11.14,3.79,4
21,119226894415000,1.18,14.44,2.68,4
21,119226931860000,1.23,10.88,1.76,4
21,119227011481000,2.11,5.09,4.71,4
21,119227051520000,2.53,4.48,1.27,4
21,119227091498000,5.37,7.74,-1.23,4
21,119227131689000,-4.29,12.95,1.57,4
21,119227211523000,2.53,8.81,1.18,4
21,119227251624000,0.34,9.92,4.59,4
21,119227291663000,-0.69,9.89,7.25,4
21,119227331580000,1.42,8.73,9.08,4
21,119227411505000,1.12,5.28,7.97,4
21,119227451666000,1.95,-2.3,3.02,4
21,119227491522000,-1.38,-2.87,-3.3,4
21,119227531653000,-4.82,13.33,4.44,4
21,119227582800000,2.11,5.43,2.34,4
21,119227621527000,2.41,3.68,-0.57,4
21,119227711554000,0.91,9.04,2.26,4
21,119227751501000,3.06,9.3,1.33,4
21,119227791510000,1.23,11.75,2.96,4
21,119227831580000,1.42,10.27,2.41,4
21,119227911627000,1.18,8.69,1.73,4
21,119227991492000,5.43,9.43,-0.57,4
21,119227991492000,5.43,9.43,-0.57,4
21,119228031531000,-0.42,12.15,1.38,4
21,119228111517000,-1.08,10.23,-0.46,4
21,119228151617000,-1.95,9.89,1.38,4
21,119228191626000,-0.89,8.47,0.95,4
21,119228241980000,0.95,10.88,3.49,4
21,119228281622000,-0.53,7.59,2.79,4
21,119228361609000,0.46,6.78,2.72,4
21,119228401556000,-0.42,4.82,2.49,4
21,119228441504000,-1.18,4.4,2.6,4
21,119228481604000,-0.46,5.05,3.49,4
21,119228561560000,0.8,8.39,6.47,4
21,119228601508000,0.19,11.14,5.71,4
21,119228641547000,-1.08,10.88,5.05,4
21,119228682440000,-2.26,13.29,4.75,4
21,119228761481000,2.14,8.05,1.08,4
21,119228801733000,2.26,7.12,-0.5,4
21,119228841498000,-0.15,9.3,1.12,4
21,119228881659000,-1.38,9.66,1.12,4
21,119228937811000,0.3,8.69,1.12,4
21,119229011633000,1.18,8.96,1.99,4
21,119229051520000,1.23,8.89,1.18,4
21,119229091528000,0.08,8.5,0.46,4
21,119229131506000,0.08,9.04,0.61,4
21,119229211676000,0.57,8.16,-0.46,4
21,119229261481000,-0.31,10.27,1.38,4
21,119229301550000,2.64,9.89,0.5,4
21,119229341498000,3.68,12.6,1.23,4
21,119229381476000,-0.69,13.76,-0.57,4
21,119229461493000,-2.07,7.59,-0.19,4
21,119229501501000,-1.46,12.3,2.96,4
21,119229541510000,1.69,11.88,0.72,4
21,119229581610000,1.53,8.96,1.73,4
21,119229661444000,0.0,8.81,2.03,4
21,119229701483000,-1.69,7.46,1.38,4
21,119229741522000,-2.56,5.09,2.26,4
21,119229781500000,-1.92,4.67,3.11,4
21,119229941321000,4.21,10.8,7.97,4
21,119229941321000,4.21,10.8,7.97,4
21,119229941321000,4.21,10.8,7.97,4
21,119229981940000,-0.5,13.02,1.42,4
21,119230061469000,-0.42,3.21,0.99,4
21,119230101569000,5.09,10.19,0.5,4
21,119230141608000,0.42,10.46,2.75,4
21,119230181494000,-1.95,6.51,0.89,4
21,119230261572000,-0.04,8.62,0.65,4
21,119230301611000,-0.19,8.54,1.04,4
21,119230341467000,0.11,8.54,1.38,4
21,119230381537000,0.61,8.43,0.89,4
21,119230461615000,2.79,8.69,1.88,4
21,119230501563000,2.22,10.76,2.72,4
21,119230541480000,4.79,12.41,1.5,4
21,119230581641000,1.42,15.36,-1.14,4
21,119230661597000,-1.76,11.8,0.42,4
21,119230701636000,-0.95,13.8,4.99,4
21,119230741492000,2.75,11.65,0.8,4
21,119230781470000,-0.89,7.5,2.49,4
21,119230861456000,-5.48,4.71,4.71,4
21,119230901495000,-2.18,4.1,6.89,4
21,119230941534000,1.5,4.4,7.93,4
21,119230988562000,2.79,4.86,9.92,4
21,119231031500000,-2.6,11.69,7.31,4
21,119231111609000,-3.76,4.1,0.99,4
21,119231151495000,0.89,9.58,1.23,4
21,119231191595000,-2.18,11.37,3.17,4
21,119231231512000,1.38,7.27,2.22,4
21,119231311438000,1.73,8.92,2.34,4
21,119231351599000,1.88,8.5,2.11,4
21,119231391913000,1.88,7.5,1.76,4
21,119231431555000,2.64,8.77,2.41,4
21,119231511511000,3.34,13.38,0.5,4
21,119231551489000,-0.04,14.48,-1.61,4
21,119231591406000,-5.48,13.1,0.69,4
21,119231631628000,-0.89,11.03,2.53,4
21,119231713873000,-1.69,6.97,0.27,4
21,119231751501000,-0.23,9.72,3.72,4
21,119231791480000,-0.76,6.17,4.86,4
21,119231831641000,0.34,5.33,4.48,4
21,119231921179000,0.34,5.24,5.98,4
21,119231962286000,-0.38,4.37,8.31,4
21,119232001837000,-0.19,5.56,5.33,4
21,119232041510000,-1.84,14.86,3.98,4
21,119232081580000,-0.19,7.01,3.79,4
21,119232161505000,0.23,10.57,2.49,4
21,119232201605000,-0.93,7.21,2.56,4
21,119232241522000,0.76,7.16,2.07,4
21,119232281683000,1.76,8.16,1.08,4
21,119232361609000,2.03,8.5,2.07,4
21,119232401526000,1.23,8.12,2.11,4
21,119232441626000,1.95,9.11,1.04,4
21,119232481604000,2.34,10.04,1.33,4
21,119232521613000,3.36,12.72,1.99,4
21,119232603064000,-0.61,12.83,-1.61,4
21,119232652411000,-4.79,12.49,1.57,4
21,119232691718000,0.65,11.35,0.8,4
21,119232731482000,1.42,9.58,1.27,4
21,119232811835000,-0.19,7.44,3.57,4
21,119232851569000,-0.84,5.79,4.48,4
21,119232891669000,-0.27,5.24,4.79,4
21,119232931525000,0.04,4.37,4.86,4
21,119233014380000,-0.5,4.56,7.31,4
21,119233053137000,1.18,7.01,9.04,4
21,119233091528000,-1.57,9.34,7.63,4
21,119233131537000,-2.6,16.02,6.51,4
21,119233214423000,-0.46,3.99,0.46,4
21,119233253943000,0.57,10.08,3.26,4
21,119233291541000,0.04,10.65,3.76,4
21,119233331641000,0.34,6.93,1.84,4
21,119233411627000,1.73,8.39,1.5,4
21,119233451544000,1.53,8.16,2.34,4
21,119233494208000,1.5,8.24,2.56,4
21,119233531500000,2.22,8.43,1.8,4
21,119233571692000,2.41,8.73,2.6,4
21,119233641486000,2.64,11.69,0.57,4
21,119233681494000,1.57,16.36,-0.8,4
21,119233761450000,-3.68,11.3,2.98,4
21,119233810309000,3.53,11.41,0.69,4
21,119233851508000,1.38,8.5,1.14,4
21,119233891516000,-2.34,9.51,2.6,4
21,119233931952000,-0.46,7.59,1.76,4
21,119234011389000,0.27,5.43,4.9,4
21,119234051306000,1.04,4.56,5.33,4
21,119234091376000,0.23,3.6,5.33,4
21,119234131262000,-0.04,3.72,7.21,4
21,119234211310000,-0.57,7.44,7.31,4
21,119234251288000,-4.99,15.7,6.43,4
21,119234291480000,-1.04,9.0,6.74,4
21,119234341864000,1.12,3.15,1.73,4
21,119234383459000,1.46,9.53,2.75,4
21,119234461462000,-0.15,7.31,1.33,4
21,119234507513000,0.61,7.7,0.72,4
21,119234543646000,0.69,7.21,0.27,4
21,119234581396000,1.08,8.62,0.53,4
21,119234661505000,1.12,8.96,0.89,4
21,119234702032000,2.79,8.85,0.46,4
21,119234741644000,1.69,10.95,-0.08,4
21,119234781531000,0.15,13.25,-0.69,4
21,119234861517000,-0.38,12.03,-0.04,4
21,119234901556000,-3.53,11.73,2.75,4
21,119234941534000,1.18,12.49,1.27,4
21,119234991644000,2.18,9.15,1.33,4
21,119235031531000,-0.89,7.35,2.87,4
21,119235091650000,0.27,8.35,3.6,4
21,119235131537000,-0.04,6.17,4.21,4
21,119235211615000,0.5,4.67,4.59,4
21,119235251501000,-0.53,4.25,4.67,4
21,119235291510000,0.0,5.24,6.05,4
21,119235331519000,0.72,7.25,8.2,4
21,119235411536000,-1.54,17.01,7.16,4
21,119235451605000,-0.93,7.5,5.82,4
21,119235493964000,-0.11,3.11,1.8,4
21,119235531622000,-0.11,8.66,2.98,4
21,119235611609000,0.23,6.97,1.38,4
21,119235651495000,0.57,6.63,0.89,4
21,119235691534000,0.15,8.85,1.14,4
21,119235731635000,0.99,8.62,0.8,4
21,119235811499000,1.57,9.53,1.73,4
21,119235851630000,2.18,8.69,1.65,4
21,119235891516000,3.83,8.69,1.5,4
21,119235931586000,3.76,10.61,0.15,4
21,119236011450000,0.34,16.02,-0.72,4
21,119236051794000,-5.05,11.8,0.34,4
21,119236051794000,-5.05,11.8,0.34,4
21,119236146002000,1.5,8.43,0.95,4
21,119236221442000,-2.87,6.78,0.84,4
21,119236261908000,-2.79,7.01,2.49,4
21,119236301672000,-0.76,5.86,2.49,4
21,119236341467000,0.3,5.98,4.9,4
21,119236381659000,0.19,5.41,5.37,4
21,119236461829000,0.53,6.44,9.49,4
21,119236501654000,-0.5,6.05,6.55,4
21,119236541541000,-2.07,13.14,5.9,4
21,119236581519000,-0.04,7.46,4.99,4
21,119236661505000,1.53,10.53,3.76,4
21,119236701666000,2.49,8.28,2.64,4
21,119236741644000,0.19,7.21,1.88,4
21,119236781653000,0.34,7.78,1.8,4
21,119236941321000,-0.27,9.19,0.46,4
21,119236941321000,-0.27,9.19,0.46,4
21,119236941321000,-0.27,9.19,0.46,4
21,119236982001000,0.42,9.0,0.19,4
21,119237061499000,3.98,9.92,1.42,4
21,119237104102000,1.57,13.29,-0.93,4
21,119237141547000,0.23,14.14,-1.61,4
21,119237181677000,-1.27,10.84,-1.95,4
21,119237261511000,0.0,11.99,2.07,4
21,119237301520000,0.15,9.66,2.22,4
21,119237341528000,-0.31,8.12,1.61,4
21,119237381537000,-0.42,8.5,0.5,4
21,119237461768000,-1.08,7.25,2.75,4
21,119237501685000,0.72,8.05,3.26,4
21,119237541480000,1.18,7.25,2.98,4
21,119237621802000,-0.08,5.33,2.91,4
21,119237621802000,-0.08,5.33,2.91,4
21,119237671606000,0.08,4.99,3.06,4
21,119237730414000,0.95,5.37,3.95,4
21,119237781470000,1.61,9.77,5.28,4
21,119237823157000,0.34,17.2,5.33,4
21,119237902136000,0.69,12.98,-0.69,4
21,119237941626000,-0.8,6.78,3.17,4
21,119237981421000,2.14,4.06,-0.93,4
21,119238050452000,0.8,12.57,2.26,4
21,119238091864000,-1.14,6.66,0.95,4
21,119238141516000,0.99,9.85,0.53,4
21,119238186255000,0.34,9.04,1.76,4
21,119238186255000,0.34,9.04,1.76,4
21,119238186255000,0.34,9.04,1.76,4
21,119238321661000,0.72,9.47,1.27,4
21,119238392188000,1.73,9.51,1.5,4
21,119238431494000,0.91,9.43,0.57,4
21,119238511389000,0.27,12.83,-0.8,4
21,119238551428000,-0.84,8.47,-1.57,4
21,119238592078000,-0.23,12.07,3.6,4
21,119238631476000,0.89,12.22,3.45,4
21,119238711554000,-0.65,6.89,3.11,4
21,119238751563000,0.65,7.55,2.11,4
21,119238791510000,-0.72,7.82,2.07,4
21,119238831641000,-2.49,5.9,2.64,4
21,119238911658000,1.57,8.05,4.71,4
21,119238951575000,1.99,9.0,6.43,4
21,119238991644000,1.46,9.72,6.74,4
21,119239032996000,4.33,11.26,7.93,4
21,119239111639000,-3.3,6.7,4.06,4
21,119239111639000,-3.3,6.7,4.06,4
21,119239204535000,3.02,12.34,2.03,4
21,119239241888000,-1.38,7.7,2.18,4
21,119239281683000,-0.61,8.08,0.91,4
21,119239361517000,0.89,8.05,0.99,4
21,119239401526000,0.23,8.01,0.76,4
21,119239441626000,-0.04,8.35,0.53,4
21,119239481543000,0.46,9.58,1.31,4
21,119239561499000,1.5,10.27,1.33,4
21,119239601599000,3.79,10.65,1.04,4
21,119239641577000,2.07,14.56,0.27,4
21,119239681525000,0.0,10.76,-2.07,4
21,119239761633000,-1.31,12.87,3.72,4
21,119239801642000,1.88,12.68,1.57,4
21,119239841620000,1.65,9.72,1.88,4
21,119239881537000,-1.46,7.63,2.83,4
21,119239961554000,-2.26,4.94,4.99,4
21,119240001898000,-0.57,5.18,6.47,4
21,119240041541000,0.8,5.01,7.97,4
21,119240081549000,1.69,5.83,9.11,4
21,119240161658000,-2.68,13.33,7.63,4
21,119240201605000,-1.12,5.24,3.36,4
21,119240241644000,-0.5,7.44,1.84,4
21,119240281500000,0.19,9.66,2.53,4
21,119240361517000,0.11,8.2,2.14,4
21,119240401648000,2.18,7.59,1.5,4
21,119240441504000,1.5,8.43,0.89,4
21,119240481451000,0.84,8.77,1.84,4
21,119240561621000,2.56,8.31,1.57,4
21,119240601691000,3.79,8.58,1.73,4
21,119240641669000,4.9,11.75,-0.19,4
21,119240681525000,-0.31,15.13,-1.69,4
21,119240761511000,-2.53,11.5,3.34,4
21,119240801520000,3.87,10.69,2.72,4
21,119240841772000,3.95,9.0,0.99,4
21,119240881537000,-1.57,6.85,2.6,4
21,119240961615000,-0.72,6.97,3.76,4
21,119241001563000,0.11,5.6,4.14,4
21,119241041510000,0.46,5.09,5.33,4
21,119241081976000,0.27,4.6,5.33,4
21,119241161566000,1.08,6.93,9.15,4
21,119241202704000,-1.65,8.08,6.32,4
21,119241251624000,-0.38,13.87,6.74,4
21,119241291663000,-0.93,3.91,2.45,4
21,119241331549000,-0.23,8.08,1.95,4
21,119241411475000,-0.23,6.74,1.8,4
21,119241451514000,0.34,5.9,0.34,4
21,119241494299000,1.38,8.47,0.84,4
21,119241531500000,0.99,8.69,0.89,4
21,119241611700000,1.73,8.77,1.42,4
21,119241651526000,1.69,8.77,1.31,4
21,119241691565000,2.41,9.04,1.65,4
21,119241731512000,3.6,9.34,2.03,4
21,119241811530000,1.69,14.86,-0.38,4
21,119241851569000,2.22,14.56,-0.31,4
21,119241891547000,-1.38,12.34,1.53,4
21,119241931677000,-1.27,11.65,2.18,4
21,119241981635000,1.04,10.0,-0.08,4
21,119242061530000,-2.22,7.74,0.76,4
21,119242101752000,-0.84,6.66,2.11,4
21,119242141516000,-1.04,5.86,3.34,4
21,119242181555000,-1.14,5.56,4.4,4
21,119242261511000,-0.57,4.33,5.52,4
21,119242301520000,0.23,5.67,6.93,4
21,119242341620000,0.65,6.63,8.77,4
21,119242381567000,0.38,7.44,8.2,4
21,119242461523000,0.3,7.59,6.43,4
21,119242501654000,-0.23,2.64,1.18,4
21,119242541510000,-0.65,7.89,2.72,4
21,119242581580000,1.76,9.77,2.53,4
21,119242661505000,-0.34,6.13,1.08,4
21,119242701544000,0.61,6.93,0.69,4
21,119242741644000,1.12,9.77,0.53,4
21,119242781531000,0.84,8.58,0.72,4
21,119242861548000,1.8,8.39,0.76,4
21,119242902106000,2.72,8.31,1.33,4
21,119242941504000,3.45,10.12,0.8,4
21,119242981543000,1.33,14.48,0.19,4
21,119243061591000,-0.42,13.14,0.69,4
21,119243101508000,-3.3,10.08,1.14,4
21,119243141516000,1.92,12.83,1.57,4
21,119243181708000,-0.11,9.28,1.18,4
21,119243261755000,-1.42,6.09,-0.5,4
21,119243302100000,-1.38,6.82,2.91,4
21,119243341528000,-0.65,5.63,3.64,4
21,119243381598000,1.12,5.86,4.82,4
21,119243461371000,-0.08,5.98,6.7,4
21,119243501440000,0.15,6.78,8.05,4
21,119243541937000,-0.53,6.24,7.65,4
21,119243581702000,-3.76,14.06,5.56,4
21,119243661505000,-1.8,-0.15,1.23,4
21,119243701636000,0.89,6.51,1.5,4
21,119243741553000,1.08,11.84,3.15,4
21,119243781683000,0.53,6.17,1.31,4
21,119243941290000,0.95,8.47,0.99,4
21,119243941290000,0.95,8.47,0.99,4
21,119243941290000,0.95,8.47,0.99,4
21,119243981696000,1.57,8.85,1.31,4
21,119244061499000,2.03,9.28,1.31,4
21,119244101508000,2.68,8.62,2.03,4
21,119244141547000,3.41,10.27,0.61,4
21,119244181616000,1.23,16.02,-0.23,4
21,119244261511000,-3.83,11.26,0.84,4
21,119244301978000,-1.31,12.26,0.95,4
21,119244341467000,2.6,12.79,0.42,4
21,119244381567000,0.42,8.16,0.8,4
21,119244461523000,-1.54,4.94,0.84,4
21,119244501654000,-0.53,5.94,3.68,4
21,119244541510000,0.65,6.47,4.02,4
21,119244581580000,0.19,5.37,4.44,4
21,119244661536000,-0.8,5.22,6.09,4
21,119244701849000,-0.08,6.02,8.24,4
21,119244741522000,1.95,8.54,9.62,4
21,119244781561000,0.3,12.22,6.43,4
21,119244861639000,-1.84,5.01,2.3,4
21,119244901526000,-1.23,6.93,2.49,4
21,119244941534000,0.46,9.58,4.4,4
21,119244981543000,1.5,7.4,3.3,4
21,119245061530000,1.73,8.16,2.34,4
21,119245101538000,0.89,7.89,1.33,4
21,119245141516000,0.53,8.96,0.72,4
21,119245181586000,0.42,8.85,1.14,4
21,119245261694000,1.46,9.11,0.91,4
21,119245301550000,2.11,8.73,1.53,4
21,119245351599000,1.95,10.99,0.8,4
21,119245391547000,3.34,14.63,0.15,4
21,119245431586000,3.21,14.29,-0.57,4
21,119245511450000,-2.34,12.45,2.03,4
21,119245551520000,1.53,12.22,0.65,4
21,119245591559000,0.15,7.86,0.95,4
21,119245631598000,-1.54,8.5,1.27,4
21,119245711523000,-0.46,5.98,2.83,4
21,119245751532000,-0.19,4.06,2.41,4
21,119245791541000,-0.31,5.43,5.13,4
21,119245831671000,-0.72,4.6,4.94,4
21,119245911566000,-1.18,4.71,8.24,4
21,119245951544000,2.26,6.36,10.23,4
21,119245991522000,-0.08,8.66,8.31,4
21,119246031683000,-0.95,17.88,10.27,4
21,119246071570000,-0.93,4.21,5.52,4
21,119246153662000,0.34,11.14,3.17,4
21,119246191504000,2.14,12.03,4.21,4
21,119246231543000,-0.31,5.05,1.76,4
21,119246311621000,1.69,9.7,2.45,4
21,119246351721000,0.3,8.39,1.12,4
21,119246391516000,0.8,8.92,0.5,4
21,119246431555000,0.91,8.24,0.34,4
21,119246511450000,0.42,9.7,0.27,4
21,119246551520000,2.72,8.81,1.31,4
21,119246592078000,3.17,10.27,0.72,4
21,119246631689000,1.8,13.48,-1.38,4
21,119246711584000,-1.27,12.07,0.76,4
21,119246751532000,1.46,10.53,2.91,4
21,119246791663000,3.36,9.08,1.46,4
21,119246831580000,0.89,7.5,0.65,4
21,119246911566000,-0.5,8.85,0.27,4
21,119246951514000,-1.27,8.5,2.34,4
21,119246991644000,-0.95,8.58,3.15,4
21,119247031531000,-0.61,6.97,3.11,4
21,119247111670000,-0.76,4.37,3.15,4
21,119247151495000,-0.53,3.95,3.06,4
21,119247191504000,0.0,4.82,4.02,4
21,119247231482000,0.0,7.06,5.79,4
21,119247311621000,-2.07,11.88,5.52,4
21,119247351569000,-1.18,10.38,6.32,4
21,119247398261000,-2.03,13.25,2.41,4
21,119247435278000,-1.08,9.96,2.68,4
21,119247511450000,3.3,7.67,-0.76,4
21,119247551520000,0.0,11.65,2.18,4
21,119247591559000,-1.14,7.74,1.76,4
21,119247631537000,0.04,8.08,0.8,4
21,119247711523000,0.5,8.31,1.84,4
21,119247711523000,0.5,8.31,1.84,4
21,119247822089000,0.69,9.0,0.53,4
21,119247861884000,0.42,9.85,0.76,4
21,119247901343000,0.38,9.51,1.53,4
21,119247941412000,3.11,10.19,0.65,4
21,119247981543000,3.06,12.95,-0.31,4
21,119248028296000,0.34,12.26,-2.18,4
21,119248103613000,-0.76,12.3,2.45,4
21,119248141577000,1.99,10.12,1.65,4
21,119248181586000,1.73,9.19,1.99,4
21,119248261633000,0.69,7.46,1.88,4
21,119248301520000,-0.15,6.59,1.12,4
21,119248341528000,-1.92,5.56,2.6,4
21,119248381628000,-1.54,5.52,3.45,4
21,119248461768000,2.91,9.34,6.4,4
21,119248501501000,2.41,11.22,7.55,4
21,119248542639000,3.79,12.41,7.63,4
21,119248582098000,-0.95,15.13,-0.5,4
21,119248661627000,2.49,5.37,0.69,4
21,119248701636000,5.52,13.48,1.65,4
21,119248741522000,-1.33,7.5,1.65,4
21,119248781653000,-1.69,6.78,1.04,4
21,119248861517000,0.69,7.82,0.27,4
21,119248901495000,-0.08,8.77,0.61,4
21,119248981940000,1.12,8.62,0.69,4
21,119248981940000,1.12,8.62,0.69,4
21,119249061621000,3.45,9.38,1.38,4
21,119249101477000,5.18,13.76,1.5,4
21,119249141516000,0.57,12.95,-1.23,4
21,119249181677000,-0.84,10.34,-0.84,4
21,119249261511000,-0.95,14.21,2.56,4
21,119249301520000,1.08,11.5,1.73,4
21,119249341528000,0.61,8.31,3.41,4
21,119249381659000,-1.04,7.12,3.26,4
21,119249461554000,-1.73,4.1,4.82,4
21,119249501593000,-2.07,2.64,6.02,4
21,119249541510000,0.04,2.34,8.16,4
21,119249581702000,3.87,4.86,9.28,4
21,119249661627000,-0.76,11.07,8.39,4
21,119249701544000,-1.92,14.18,10.23,4
21,119249741644000,-2.64,1.69,0.72,4
21,119249781531000,-1.5,6.63,1.88,4
21,119249861487000,0.19,7.35,1.92,4
21,119249901617000,1.14,6.7,0.91,4
21,119249941626000,2.49,8.77,2.18,4
21,119249981543000,1.31,8.69,1.57,4
21,119250061621000,0.95,8.81,0.72,4
21,119250101508000,0.76,8.5,1.42,4
21,119250141608000,3.26,8.39,2.22,4
21,119250181525000,3.83,8.39,0.65,4
21,119250261511000,2.91,16.74,-2.03,4
21,119250301550000,-2.49,14.29,-0.38,4
21,119250341528000,-4.21,11.99,1.84,4
21,119250381720000,2.14,11.88,0.38,4
21,119250461829000,-0.95,7.44,1.33,4
21,119250501685000,-0.04,6.74,1.8,4
21,119250541480000,-0.69,5.6,3.21,4
21,119250581946000,0.72,5.56,4.48,4
21,119250661475000,-0.11,5.43,6.85,4
21,119250701514000,-0.19,6.02,8.01,4
21,119250741522000,0.11,5.52,8.12,4
21,119250781622000,-1.54,10.34,2.72,4
21,119250941290000,1.69,11.22,2.72,4
21,119250941290000,1.69,11.22,2.72,4
21,119250941290000,1.69,11.22,2.72,4
21,119250982001000,-0.46,6.17,1.84,4
21,119251061469000,1.53,9.04,1.5,4
21,119251101508000,0.8,8.05,0.23,4
21,119251141486000,0.69,7.89,0.23,4
21,119251181525000,0.76,9.3,0.46,4
21,119251261481000,1.73,8.77,0.53,4
21,119251301489000,3.06,9.96,0.76,4
21,119251341498000,3.15,13.67,-1.95,4
21,119251381506000,0.3,14.6,-1.76,4
21,119251461615000,-0.11,11.22,1.76,4
21,119251461615000,-0.11,11.22,1.76,4
21,119251554205000,0.5,8.31,0.46,4
21,119251591681000,-0.65,9.7,1.84,4
21,119251631506000,-2.11,8.77,1.08,4
21,119251711493000,-0.65,7.82,3.45,4
21,119251751593000,0.53,6.97,3.95,4
21,119251791510000,0.42,6.05,4.71,4
21,119251831488000,0.08,5.22,4.75,4
21,119251911536000,-0.99,5.22,5.98,4
21,119251951636000,-1.27,5.28,6.97,4
21,119251991492000,-0.38,6.85,8.5,4
21,119252031500000,0.34,8.62,9.28,4
21,119252111853000,-1.42,9.53,7.59,4
21,119252151495000,-0.42,3.57,1.95,4
21,119252191443000,-0.04,9.11,2.49,4
21,119252231451000,0.08,8.81,3.06,4
21,119252311469000,0.61,7.74,1.95,4
21,119252351508000,1.12,7.78,1.46,4
21,119252391638000,1.12,7.59,1.31,4
21,119252431525000,0.8,8.24,0.42,4
21,119252511420000,0.5,9.51,0.5,4
21,119252551489000,0.89,9.3,-0.42,4
21,119252591528000,1.88,8.92,0.95,4
21,119252631506000,2.11,8.92,0.72,4
21,119252711829000,0.69,9.51,0.5,4
21,119252751471000,0.95,9.7,0.46,4
21,119252791510000,2.22,10.61,-0.95,4
21,119252831519000,2.03,12.68,-1.84,4
21,119252911475000,-0.72,12.26,-1.27,4
21,119252952734000,2.22,10.46,1.23,4
21,119252991492000,1.61,12.18,3.41,4
21,119253035010000,1.31,9.19,1.12,4
21,119253111548000,-1.33,8.58,2.49,4
21,119253151495000,-1.69,7.44,1.18,4
21,119253191473000,-0.95,8.31,2.56,4
21,119253231451000,-0.04,8.54,3.87,4
21,119253311469000,0.72,6.02,4.9,4
21,119253351508000,0.5,4.75,5.01,4
21,119253391638000,-0.08,4.71,5.43,4
21,119253431433000,-0.08,4.21,6.43,4
21,119253511328000,-1.12,7.5,7.74,4
21,119253561285000,-3.11,16.66,9.0,4
21,119253601447000,-2.15,6.66,6.36,4
21,119253641486000,-0.23,4.75,2.3,4
21,119253681677000,-0.84,10.0,3.6,4
21,119253761511000,1.08,7.01,1.88,4
21,119253801520000,0.34,6.85,1.23,4
21,119253841589000,0.61,7.16,0.34,4
21,119253881537000,0.19,7.78,0.38,4
21,119253961584000,0.11,7.74,0.19,4
21,119254001837000,2.14,8.69,0.46,4
21,119254057135000,3.91,9.7,1.46,4
21,119254092810000,3.87,11.45,0.11,4
21,119254131506000,0.0,14.48,0.57,4
21,119254211401000,-2.64,11.69,1.84,4
21,119254251471000,-0.27,12.22,3.02,4
21,119254291510000,2.96,10.38,-0.27,4
21,119254331549000,0.19,8.12,0.76,4
21,119254411536000,-2.03,6.66,0.42,4
21,119254451605000,-1.18,7.27,2.45,4
21,119254492865000,0.11,6.21,3.68,4
21,119254531561000,-0.19,6.51,5.28,4
21,119254611517000,-0.27,4.71,6.43,4
21,119254651495000,-0.95,5.52,7.35,4
21,119254691504000,-1.42,6.7,7.86,4
21,119254731665000,-2.6,11.75,6.21,4
21,119254811469000,-1.8,4.6,2.98,4
21,119254851477000,-0.76,5.98,2.07,4
21,119254891608000,1.61,10.46,2.79,4
21,119254931525000,1.65,9.0,2.6,4
21,119255011450000,1.73,7.35,0.53,4
21,119255051642000,0.34,9.72,0.42,4
21,119255091589000,-0.61,9.77,0.04,4
21,119255131537000,-0.38,7.86,0.61,4
21,119255211432000,2.64,8.5,0.99,4
21,119255251471000,2.64,10.08,1.57,4
21,119255291510000,-0.42,12.34,0.34,4
21,119255331519000,-1.18,14.52,0.23,4
21,119255411658000,-1.18,12.91,1.33,4
21,119255451514000,0.11,11.92,0.11,4
21,119255494086000,1.46,9.23,0.34,4
21,119255531439000,0.5,9.04,0.89,4
21,119255612189000,0.5,8.54,2.37,4
21,119255651465000,-1.73,5.48,2.64,4
21,119255691626000,-2.68,4.86,3.36,4
21,119255733252000,-0.99,4.9,4.25,4
21,119255813452000,1.14,8.12,8.47,4
21,119255851569000,1.33,4.56,7.35,4
21,119255892523000,-2.07,10.19,4.99,4
21,119255981329000,-0.46,2.96,2.68,4
21,119255981329000,-0.46,2.96,2.68,4
21,119256062231000,0.15,9.47,2.75,4
21,119256103857000,1.04,7.01,1.46,4
21,119256141455000,2.03,7.27,0.46,4
21,119256181708000,1.14,8.39,0.23,4
21,119256261481000,-0.34,9.04,0.23,4
21,119256301520000,0.11,8.24,0.3,4
21,119256341498000,2.22,8.77,0.5,4
21,119256381659000,2.53,8.58,0.46,4
21,119256461493000,-0.11,12.45,1.46,4
21,119256501532000,3.36,12.3,-2.83,4
21,119256544073000,-3.95,11.26,0.08,4
21,119256581488000,-2.53,11.37,0.38,4
21,119256661475000,0.61,8.28,-0.04,4
21,119256701514000,-0.93,8.31,0.91,4
21,119256741644000,-1.38,9.15,1.46,4
21,119256781470000,-0.11,8.28,2.37,4
21,119256861487000,0.0,7.31,2.64,4
21,119256901495000,0.34,8.01,3.64,4
21,119256941626000,0.76,6.89,3.72,4
21,119256981543000,0.5,5.83,3.57,4
21,119257061469000,-0.38,5.79,3.57,4
21,119257101538000,-0.19,5.43,3.79,4
21,119257141516000,0.95,5.67,4.99,4
21,119257181555000,2.64,7.97,5.52,4
21,119257261481000,-1.5,12.34,6.24,4
21,119257301520000,0.84,11.88,6.55,4
21,119257341498000,1.18,7.5,4.14,4
21,119257381506000,1.57,10.92,3.49,4
21,119257461493000,2.26,7.16,1.46,4
21,119257501685000,0.72,8.43,1.57,4
21,119257541510000,-1.84,8.24,2.07,4
21,119257582617000,-0.53,9.38,2.75,4
21,119257661475000,0.19,8.16,1.33,4
21,119257701483000,0.57,9.34,1.65,4
21,119257741614000,0.0,7.59,0.76,4
21,119257781531000,-0.46,7.89,1.18,4
21,119257941290000,0.65,9.53,1.18,4
21,119257941290000,0.65,9.53,1.18,4
21,119257941290000,0.65,9.53,1.18,4
21,119257981512000,4.44,10.69,1.84,4
21,119258061469000,2.18,12.83,0.11,4
21,119258101569000,2.22,10.65,-2.41,4
21,119258141577000,-1.88,11.37,-0.46,4
21,119258181525000,-1.95,14.56,2.83,4
21,119258261603000,1.18,9.11,2.34,4
21,119258301520000,0.15,7.67,3.57,4
21,119258341467000,-0.76,6.44,3.21,4
21,119258381628000,-1.14,5.56,4.18,4
21,119258441840000,-0.61,4.48,5.94,4
21,119258481451000,0.61,2.98,7.55,4
21,119258561469000,2.87,7.27,9.11,4
21,119258602393000,-0.72,10.61,7.35,4
21,119258641913000,-1.08,14.98,10.08,4
21,119258681555000,-0.31,4.48,3.72,4
21,119258761481000,-0.76,8.58,4.48,4
21,119258811469000,1.92,8.5,2.72,4
21,119258851599000,1.04,7.59,2.6,4
21,119258891486000,1.99,7.89,1.88,4
21,119258931555000,1.53,8.01,1.04,4
21,119259011420000,1.5,7.89,1.12,4
21,119259051489000,2.37,8.58,1.12,4
21,119259092963000,2.18,8.66,1.5,4
21,119259132483000,3.64,8.58,3.17,4
21,119259211401000,4.02,10.04,0.15,4
21,119259251501000,2.45,11.73,-1.27,4
21,119259291480000,-0.5,16.28,-1.27,4
21,119259331549000,1.65,14.79,-1.04,4
21,119259411475000,2.34,11.26,2.34,4
21,119259452155000,3.6,10.08,2.18,4
21,119259493781000,2.45,8.81,2.14,4
21,119259531470000,0.19,6.85,2.03,4
21,119259611517000,0.0,5.43,2.98,4
21,119259655524000,1.42,5.63,3.49,4
21,119259692236000,1.31,5.22,4.59,4
21,119259731635000,0.57,5.09,4.86,4
21,119259811469000,0.34,5.09,7.25,4
21,119259851508000,2.22,6.4,8.16,4
21,119259891516000,2.68,10.19,8.05,4
21,119259931586000,0.3,13.53,9.28,4
21,119260011481000,1.27,7.63,3.68,4
21,119260051642000,-0.46,10.04,2.87,4
21,119260094244000,0.8,7.55,1.73,4
21,119260132574000,1.18,6.32,1.08,4
21,119260211401000,3.68,7.31,1.8,4
21,119260251471000,3.53,6.82,0.57,4
21,119260291480000,1.73,7.4,0.65,4
21,119260331549000,1.76,8.96,1.23,4
21,119260411505000,2.91,8.77,0.23,4
21,119260451636000,2.56,8.28,-0.19,4
21,119260493536000,2.98,8.69,1.23,4
21,119260531714000,4.18,9.72,1.95,4
21,119260611731000,4.29,15.05,-2.34,4
21,119260651495000,-1.14,14.63,0.19,4
21,119260691473000,0.46,12.11,2.3,4
21,119260731543000,3.57,9.53,1.08,4
21,119260811621000,2.18,9.28,2.34,4
21,119260851477000,0.72,8.24,2.83,4
21,119260891516000,0.19,6.44,1.73,4
21,119260931555000,0.34,5.05,3.26,4
21,119261011450000,1.61,5.71,4.94,4
21,119261051520000,0.76,4.82,4.82,4
21,119261094611000,0.8,4.6,5.6,4
21,119261131842000,0.76,5.13,6.82,4
21,119261211432000,2.64,9.53,8.73,4
21,119261251501000,0.91,15.09,8.81,4
21,119261291510000,0.11,7.5,6.21,4
21,119261331519000,0.0,7.16,2.87,4
21,119261411505000,2.37,7.5,3.21,4
21,119261451514000,3.06,8.28,2.07,4
21,119261494391000,1.46,6.97,2.18,4
21,119261536810000,3.02,6.66,1.12,4
21,119261613226000,2.68,8.05,1.04,4
21,119261651465000,2.64,7.97,1.46,4
21,119261702002000,4.21,8.24,1.31,4
21,119261741553000,4.21,8.05,0.95,4
21,119261781500000,4.75,8.2,1.69,4
21,119261861487000,4.63,12.45,-2.03,4
21,119261901434000,4.25,15.24,-2.18,4
21,119261951514000,-1.27,13.57,0.89,4
21,119261991492000,1.08,12.6,2.26,4
21,119262031470000,3.45,9.38,0.5,4
21,119262111548000,-1.23,8.81,2.68,4
21,119262151495000,0.38,7.35,0.76,4
21,119262191504000,0.99,4.75,2.49,4
21,119262231482000,0.65,5.79,4.21,4
21,119262311499000,1.8,4.6,5.37,4
21,119262351508000,1.46,4.44,5.75,4
21,119262391486000,1.69,5.94,7.01,4
21,119262431677000,-0.23,8.05,7.97,4
21,119262511420000,1.65,14.56,6.66,4
21,119262551581000,0.8,3.38,3.02,4
21,119262591528000,0.0,6.13,0.57,4
21,119262653387000,4.71,8.05,3.57,4
21,119262691443000,2.68,6.59,2.34,4
21,119262731573000,2.68,6.55,1.65,4
21,119262811469000,1.27,8.05,0.08,4
21,119262851508000,2.3,8.81,0.61,4
21,119262891547000,2.14,8.85,0.61,4
21,119262981451000,4.63,8.01,0.95,4
21,119262981451000,4.63,8.01,0.95,4
21,119263061469000,3.41,12.26,-2.07,4
21,119263101660000,3.41,15.94,-2.07,4
21,119263141516000,-0.5,13.25,-0.72,4
21,119263181555000,0.99,12.53,2.3,4
21,119263261603000,3.02,7.46,-0.23,4
21,119263301489000,1.12,7.16,0.91,4
21,119263341498000,-0.31,9.28,2.37,4
21,119263381506000,0.46,8.62,1.42,4
21,119263461615000,0.72,6.13,4.06,4
21,119263501563000,1.23,5.56,4.75,4
21,119263544043000,1.46,3.79,4.75,4
21,119263582159000,1.65,4.86,6.32,4
21,119263661475000,2.37,7.35,8.12,4
21,119263701514000,0.42,10.31,6.32,4
21,119263742041000,1.88,15.7,7.08,4
21,119263781622000,1.53,4.94,4.06,4
21,119263861487000,0.76,8.62,3.15,4
21,119263901465000,4.18,6.78,2.49,4
21,119263941534000,3.21,6.7,1.69,4
21,119263981512000,2.64,7.59,1.38,4
21,119264061499000,2.91,8.2,0.3,4
21,119264102759000,2.18,8.28,0.65,4
21,119264141516000,3.26,8.73,1.23,4
21,119264181555000,2.83,8.24,0.69,4
21,119264261481000,4.02,8.31,0.91,4
21,119264301520000,4.71,8.81,1.33,4
21,119264341528000,5.37,8.81,1.42,4
21,119264381537000,5.94,12.07,-0.38,4
21,119264461523000,0.53,12.76,-1.46,4
21,119264501654000,1.42,10.61,1.18,4
21,119264541480000,4.67,10.31,0.53,4
21,119264581458000,4.82,7.4,0.27,4
21,119264661505000,1.23,9.34,2.34,4
21,119264701514000,1.12,8.01,1.88,4
21,119264741736000,0.46,7.35,3.21,4
21,119264781500000,0.8,6.66,4.02,4
21,119264861639000,2.14,4.75,7.74,4
21,119264981299000,1.38,4.21,7.74,4
21,119264981299000,1.38,4.21,7.74,4
21,119264981299000,1.38,4.21,7.74,4
21,119265061591000,5.18,8.66,6.43,4
21,119265101843000,5.41,16.55,8.01,4
21,119265141516000,1.84,5.52,4.59,4
21,119265181555000,0.53,4.94,1.42,4
21,119265261664000,3.64,7.25,3.53,4
21,119265301520000,4.33,6.97,1.65,4
21,119265341498000,4.21,8.12,1.69,4
21,119265381506000,2.41,6.93,1.31,4
21,119265461615000,3.06,8.12,0.76,4
21,119265501501000,3.06,8.54,1.27,4
21,119265541602000,3.64,7.74,0.95,4
21,119265581549000,4.14,7.27,1.46,4
21,119265661658000,6.63,9.47,1.04,4
21,119265701544000,4.18,12.91,-2.72,4
21,119265741614000,1.69,14.71,-2.11,4
21,119265791418000,1.76,10.42,0.19,4
21,119265831885000,4.99,10.5,1.12,4
21,119265911475000,2.41,9.85,2.18,4
21,119265951605000,2.98,9.04,1.12,4
21,119265991492000,3.26,8.77,3.15,4
21,119266031500000,1.84,9.19,2.91,4
21,119266111548000,2.68,5.75,2.83,4
21,119266151495000,1.8,5.37,3.21,4
21,119266191565000,1.46,6.28,3.34,4
21,119266231482000,0.72,6.05,3.95,4
21,119266311591000,1.69,6.32,6.4,4
21,119266351508000,3.49,7.93,6.74,4
21,119266391516000,3.21,10.08,5.9,4
21,119266431555000,0.5,12.6,5.79,4
21,119266511542000,4.37,9.0,3.3,4
21,119266551489000,1.46,6.51,1.8,4
21,119266591406000,1.42,5.9,2.49,4
21,119266631537000,3.76,7.74,1.8,4
21,119266711493000,2.07,9.0,1.04,4
21,119266751624000,3.06,8.92,-0.04,4
21,119266791480000,2.87,8.47,-0.23,4
21,119266831519000,3.79,8.47,-0.23,4
21,119281881537000,0.84,8.81,5.52,0
21,119281921667000,0.11,5.37,3.06,0
21,119281961829000,-1.5,3.34,1.57,0
21,119282002203000,-1.57,2.53,0.99,0
21,119282082343000,0.42,6.82,2.64,0
21,119282121649000,1.04,8.2,4.67,0
21,119282163489000,2.11,7.63,2.68,0
21,119282211584000,2.07,7.5,5.6,0
21,119282251624000,1.76,17.16,2.79,0
21,119282332068000,6.24,10.31,2.41,0
21,119282371436000,2.91,14.98,2.22,0
21,119282411627000,1.95,3.83,0.99,0
21,119282451483000,2.72,8.54,0.19,0
21,119282531592000,1.53,7.82,0.69,0
21,119282571600000,0.61,6.78,1.31,0
21,119282611304000,2.3,5.01,1.04,0
21,119282651343000,3.64,3.72,1.53,0
21,119282732794000,1.73,10.15,3.53,0
21,119282772192000,1.57,7.89,2.75,0
21,119282811316000,3.21,9.43,0.69,0
21,119282855933000,0.08,15.47,5.56,0
21,119282931311000,1.65,15.6,9.7,0
21,119282971411000,0.76,10.27,6.78,0
21,119283011481000,-0.15,6.85,4.25,0
21,119283051825000,-1.92,3.64,2.83,0
21,119283131445000,0.23,2.07,1.42,0
21,119283171362000,0.65,4.02,2.11,0
21,119283211432000,1.95,12.64,3.72,0
21,119283251563000,-1.65,8.85,4.02,0
21,119283331396000,3.02,5.86,4.9,0
21,119283371375000,0.8,13.06,3.98,0
21,119283411444000,4.37,14.79,0.5,0
21,119283451422000,5.2,11.07,5.48,0
21,119283531439000,-0.19,6.51,0.38,0
21,119283571326000,-0.19,6.4,-0.57,0
21,119283611426000,1.65,9.11,-0.08,0
21,119283651312000,1.8,8.16,0.38,0
21,119283736304000,1.73,5.33,1.14,0
21,119283781409000,2.34,3.26,1.99,0
21,119283821356000,0.27,4.94,3.41,0
21,119283861365000,1.27,10.65,3.26,0
21,119283901434000,1.42,7.01,2.03,0
21,119283981512000,-3.34,17.43,7.08,0
21,119284021521000,0.5,11.45,6.78,0
21,119284061438000,4.21,12.11,9.15,0
21,119284101355000,4.75,7.89,5.05,0
21,119284181494000,-1.73,3.21,1.99,0
21,119284221533000,-0.23,2.07,1.33,0
21,119284261481000,-0.99,2.91,1.23,0
21,119284301398000,-1.23,6.74,0.5,0
21,119284381537000,2.03,6.82,2.68,0
21,119284421484000,2.53,6.21,5.33,0
21,119284461462000,-0.19,17.62,2.83,0
21,119284501410000,5.6,7.08,1.33,0
21,119284581824000,1.8,10.88,0.65,0
21,119284621466000,2.45,7.82,0.99,0
21,119284661505000,0.08,10.42,1.23,0
21,119284701483000,1.61,7.21,0.91,0
21,119284781439000,2.22,15.55,1.95,0
21,119285071326000,-0.15,15.55,1.95,0
21,119285071326000,-0.15,15.55,1.95,0
21,119285071326000,-0.15,15.55,1.95,0
21,119285071326000,-0.15,15.55,1.95,0
21,119285071326000,-0.15,15.55,1.95,0
21,119285071326000,-0.15,15.55,4.71,0
21,119285121588000,-4.21,11.96,4.71,0
21,119285163275000,3.91,12.57,5.94,0
21,119285202032000,0.89,10.57,8.77,0
21,119285281561000,-0.31,4.33,3.34,0
21,119285323706000,-1.76,3.21,1.88,0
21,119285362219000,-1.31,3.34,2.49,0
21,119285402594000,0.27,4.52,2.41,0
21,119285481512000,-1.61,7.7,3.06,0
21,119285522314000,0.72,9.7,3.17,0
21,119285561621000,1.46,6.82,4.33,0
21,119285601538000,2.83,3.57,5.71,0
21,119285681616000,3.57,11.22,3.45,0
21,119285733832000,8.27,16.02,3.49,0
21,119285775214000,0.91,7.59,3.17,0
21,119285812201000,1.27,9.96,1.76,0
21,119285851538000,1.42,9.72,-0.08,0
21,119285931464000,0.76,7.59,0.42,0
21,119285971625000,1.23,7.4,1.53,0
21,119286012000000,2.18,6.51,1.8,0
21,119286051550000,2.34,5.56,1.76,0
21,119286131506000,2.83,6.78,2.83,0
21,119286171545000,1.31,9.34,3.34,0
21,119286211432000,1.27,8.16,2.68,0
21,119286251501000,1.69,11.54,2.72,0
21,119286331854000,-1.27,13.91,5.98,0
21,119286371588000,1.53,13.8,7.55,0
21,119286411627000,2.75,6.59,6.51,0
21,119286451514000,1.61,6.17,3.6,0
21,119286531989000,-0.76,2.6,1.92,0
21,119286571600000,-0.19,2.64,1.18,0
21,119286611639000,0.46,6.97,1.53,0
21,119286651709000,-0.11,9.85,4.59,0
21,119286731848000,0.3,7.4,3.76,0
21,119286772314000,1.23,5.94,4.37,0
21,119286831488000,0.76,18.43,1.42,0
21,119286884161000,8.39,5.18,2.75,0
21,119286924261000,4.94,10.61,2.49,0
21,119286963538000,-0.89,17.62,0.99,0
21,119287001685000,0.76,8.12,-2.37,0
21,119287081915000,1.33,6.24,-0.04,0
21,119287121558000,3.02,6.78,1.53,0
21,119287163458000,4.06,5.94,3.06,0
21,119287201697000,3.41,7.16,3.68,0
21,119287242560000,2.98,7.89,2.68,0
21,119287321570000,0.15,10.53,0.8,0
21,119287361884000,2.07,16.13,-0.57,0
21,119287401587000,-6.05,14.48,-1.18,0
21,119287481665000,2.49,15.32,4.33,0
21,119287521521000,4.29,14.71,6.24,0
21,119287561621000,3.06,7.21,2.53,0
21,119287601538000,-1.38,3.99,2.26,0
21,119287681738000,-0.23,5.56,3.21,0
21,119287721503000,-0.99,5.71,4.02,0
21,119287761603000,-0.69,6.82,4.29,0
21,119287804480000,1.18,9.66,4.56,0
21,119287881689000,1.65,10.84,9.85,0
21,119287921881000,-0.08,9.08,3.36,0
21,119287961890000,-2.76,17.35,0.89,0
21,119288002234000,-1.84,6.59,2.96,0
21,119288081854000,3.41,14.94,-0.34,0
21,119288121436000,-1.61,8.39,0.76,0
21,119288165228000,0.08,9.47,-0.38,0
21,119288204688000,3.21,9.66,-0.57,0
21,119288282355000,3.83,8.2,2.11,0
21,119288321631000,3.17,8.47,2.79,0
21,119288361609000,2.14,7.86,2.75,0
21,119288401617000,0.84,7.59,3.6,0
21,119288482428000,1.53,5.01,2.64,0
21,119288521521000,2.37,4.71,2.07,0
21,119288561530000,2.41,6.21,2.11,0
21,119288601660000,1.84,8.01,2.72,0
21,119288681647000,-0.46,8.47,0.89,0
21,119288721869000,1.27,14.56,0.65,0
21,119288761511000,-1.61,15.85,4.86,0
21,119288806494000,-1.14,12.68,5.79,0
21,119288883398000,2.98,9.0,4.59,0
21,119288921545000,-1.23,6.02,4.25,0
21,119288961646000,-2.18,2.26,1.69,0
21,119289011816000,0.27,2.96,2.18,0
21,119289051581000,0.42,7.12,3.53,0
21,119289131537000,-0.57,6.55,3.49,0
21,119289171698000,0.08,5.63,2.11,0
21,119289211462000,3.83,5.52,4.44,0
21,119289251624000,2.11,5.18,4.33,0
21,119289331580000,5.98,11.73,-1.33,0
21,119289372229000,6.66,15.7,2.68,0
21,119289411627000,0.53,12.87,2.37,0
21,119289451666000,2.72,5.48,0.42,0
21,119289532507000,1.46,9.77,0.72,0
21,119289571600000,0.8,7.7,0.53,0
21,119289611517000,0.65,7.01,1.18,0
21,119289651587000,2.75,7.4,1.69,0
21,119289731573000,1.5,3.02,1.31,0
21,119289771552000,1.57,6.78,2.14,0
21,119289812415000,1.23,12.07,2.34,0
21,119289851691000,0.8,8.73,0.89,0
21,119289931616000,-2.45,13.33,3.98,0
21,119289971594000,2.79,10.84,5.56,0
21,119290011725000,5.28,10.42,9.89,0
21,119290051550000,3.06,10.8,6.59,0
21,119290151770000,-1.31,2.45,2.6,0
21,119290151770000,-1.31,2.45,2.6,0
21,119290231573000,0.76,3.45,0.65,0
21,119290271643000,1.04,9.15,2.07,0
21,119290311499000,0.65,6.85,2.72,0
21,119290361639000,1.73,9.38,7.08,0
21,119290401556000,-1.69,17.47,2.56,0
21,119290481573000,7.74,10.46,4.71,0
21,119290521613000,3.6,15.21,2.87,0
21,119290561621000,-0.34,5.86,1.33,0
21,119290601538000,1.88,8.69,0.11,0
21,119290681677000,0.57,7.27,0.5,0
21,119290721869000,0.69,5.75,0.76,0
21,119290761572000,2.18,4.4,1.46,0
21,119290801550000,1.73,3.68,2.22,0
21,119290881476000,2.45,7.86,2.22,0
21,119290921515000,2.96,10.8,2.26,0
21,119290961646000,-0.11,18.39,3.6,0
21,119291001715000,-5.43,13.99,4.06,0
21,119291085944000,1.92,14.29,8.2,0
21,119291123236000,1.65,6.13,4.29,0
21,119291161658000,0.46,4.44,3.26,0
21,119291207251000,-1.12,2.53,1.33,0
21,119291282355000,-0.89,4.21,1.61,0
21,119291321692000,-1.54,6.55,1.38,0
21,119291361548000,1.33,8.69,4.59,0
21,119291401434000,0.53,6.89,4.21,0
21,119291481451000,3.49,15.66,2.53,0
21,119291521460000,5.63,10.84,2.34,0
21,119291561530000,2.96,12.03,4.18,0
21,119291601508000,3.36,14.25,0.53,0
21,119291681708000,0.91,8.2,0.38,0
21,119291861365000,3.45,5.86,2.68,0
21,119291861365000,3.45,5.86,2.68,0
21,119291861365000,3.45,5.86,2.68,0
21,119291861365000,3.45,5.86,2.68,0
21,119291901984000,3.21,7.35,3.06,0
21,119291981696000,0.65,11.8,2.41,0
21,119292021582000,-3.91,18.43,5.52,0
21,119292061621000,-1.76,10.31,4.33,0
21,119292101538000,4.63,10.88,4.9,0
21,119292181555000,-1.04,4.86,4.37,0
21,119292221564000,0.91,2.87,2.45,0
21,119292261542000,-0.69,1.14,1.92,0
21,119292302008000,-1.31,0.84,1.04,0
21,119292349799000,-0.99,8.05,1.95,0
21,119292432074000,-0.89,11.6,3.36,0
21,119292432074000,-0.89,11.6,3.36,0
21,119292531897000,7.78,7.67,2.45,0
21,119292571478000,5.71,17.92,4.1,0
21,119292611884000,-0.69,6.55,0.42,0
21,119292651373000,0.46,4.56,0.19,0
21,119292731390000,1.76,8.05,1.31,0
21,119292771307000,1.53,5.48,1.99,0
21,119292811407000,2.87,6.93,2.72,0
21,119292851294000,2.64,7.27,3.41,0
21,119292932410000,3.15,6.89,1.76,0
21,119292975867000,3.72,13.1,2.41,0
21,119293012793000,-2.83,17.35,5.79,0
21,119293056494000,-1.92,11.8,5.98,0
21,119293132178000,1.99,8.5,6.21,0
21,119293181494000,-0.84,5.22,3.17,0
21,119293221655000,-0.95,3.53,2.26,0
21,119293261481000,0.53,0.93,1.46,0
21,119293301459000,0.23,3.41,1.61,0
21,119293345862000,1.33,9.96,4.02,0
21,119293433539000,-0.69,9.11,3.11,0
21,119293479285000,-0.34,11.84,3.76,0
21,119293525336000,4.9,12.76,1.31,0
21,119293562140000,6.4,6.44,4.9,0
21,119293601386000,3.79,16.86,2.64,0
21,119293681525000,2.49,6.55,0.53,0
21,119293721716000,2.3,10.5,0.8,0
21,119293761816000,0.23,7.63,1.8,0
21,119293802496000,0.11,6.82,2.56,0
21,119293882697000,4.25,2.87,0.11,0
21,119293921515000,5.56,4.52,1.65,0
21,119293961523000,-1.42,9.51,3.36,0
21,119294001379000,-2.49,7.06,3.76,0
21,119294081519000,-2.72,14.94,7.74,0
21,119294121405000,-3.15,13.99,9.28,0
21,119294161414000,1.27,9.28,8.85,0
21,119294202032000,3.87,4.86,3.3,0
21,119294281714000,-3.41,2.96,2.34,0
21,119294321692000,-1.73,1.8,0.46,0
21,119294361548000,0.53,4.6,2.49,0
21,119294401678000,0.5,6.74,3.95,0
21,119294461554000,0.76,13.8,3.83,0
21,119294502570000,0.5,17.97,4.71,0
21,119294581885000,2.72,18.43,0.3,0
21,119294621497000,-0.42,8.47,-2.18,0
21,119294661627000,-1.08,9.96,-3.26,0
21,119294701544000,4.02,11.69,-1.88,0
21,119294781714000,6.13,6.09,-0.76,0
21,119294821631000,5.28,5.83,0.89,0
21,119294861639000,7.21,7.97,2.45,0
21,119294901556000,6.13,8.16,3.11,0
21,119294983435000,1.53,10.15,2.49,0
21,119295021796000,-1.27,10.53,2.3,0
21,119295061560000,0.5,10.53,2.14,0
21,119295101691000,3.02,9.77,1.38,0
21,119295153326000,2.37,11.56,0.27,0
21,119295231635000,-2.68,8.89,0.23,0
21,119295271582000,-1.95,11.8,2.91,0
21,119295311499000,0.89,11.41,2.18,0
21,119295351569000,1.61,8.24,2.34,0
21,119295431616000,0.76,5.67,4.37,0
21,119295472144000,1.38,5.48,4.48,0
21,119295511481000,1.31,5.48,4.59,0
21,119295551611000,1.73,4.33,4.06,0
21,119295631537000,0.5,5.37,1.8,0
21,119295671454000,0.76,7.89,3.68,0
21,119295711554000,1.5,6.89,3.06,0
21,119295751685000,-0.72,7.16,3.41,0
21,119295831519000,5.86,10.15,0.19,0
21,119295871466000,6.59,14.21,3.02,0
21,119295911597000,0.34,16.13,3.15,0
21,119295952704000,2.96,4.18,-0.31,0
21,119296031470000,-0.31,9.43,0.04,0
21,119296071936000,1.99,7.4,0.89,0
21,119296111517000,1.5,4.52,0.8,0
21,119296151740000,1.33,4.4,1.12,0
21,119296231543000,4.86,5.79,2.72,0
21,119296271490000,3.3,8.08,3.21,0
21,119296311499000,1.5,10.08,1.65,0
21,119296351630000,1.76,13.18,2.37,0
21,119296431647000,0.89,11.84,4.71,0
21,119296471594000,2.03,15.66,8.2,0
21,119296511603000,-0.65,8.81,5.75,0
21,119296551520000,0.19,4.44,2.91,0
21,119296631628000,-1.12,1.73,2.34,0
21,119296671606000,0.11,2.34,1.42,0
21,119296711523000,0.15,8.24,1.18,0
21,119296751593000,-1.31,10.34,6.13,0
21,119296831519000,2.53,6.28,4.33,0
21,119296871619000,-1.38,13.14,2.45,0
21,119296911566000,3.34,16.02,2.34,0
21,119296954138000,6.21,7.25,3.68,0
21,119297031622000,2.03,10.42,0.04,0
21,119297075507000,1.18,4.29,0.42,0
21,119297114691000,0.46,8.73,-0.34,0
21,119297161566000,0.72,9.08,0.0,0
21,119297206976000,1.33,7.63,0.0,0
21,119297251654000,1.84,4.25,0.46,0
21,119297331488000,1.99,7.08,1.8,0
21,119297371405000,2.07,10.23,1.95,0
21,119297411536000,0.61,7.89,1.65,0
21,119297451666000,0.42,18.01,5.28,0
21,119297531561000,4.4,15.66,7.89,0
21,119297571478000,3.11,11.45,8.43,0
21,119297611670000,-0.31,7.89,3.91,0
21,119297651556000,-2.22,4.52,2.6,0
21,119297731604000,-0.76,5.28,2.49,0
21,119297772070000,-1.04,4.82,2.3,0
21,119297811621000,1.69,3.38,1.04,0
21,119297851569000,3.17,7.63,2.37,0
21,119297932196000,1.99,7.31,4.99,0
21,119297971930000,1.92,12.83,3.98,0
21,119298011511000,2.53,17.43,3.02,0
21,119298051459000,5.94,10.19,1.12,0
21,119298131598000,0.11,11.37,0.27,0
21,119298171606000,1.92,4.6,-0.76,0
21,119298211646000,0.53,10.34,0.34,0
21,119298251624000,1.42,7.63,0.57,0
21,119298331519000,1.88,5.01,1.08,0
21,119298372107000,2.98,4.37,1.99,0
21,119298411627000,1.42,4.71,2.83,0
21,119298451514000,3.3,8.01,3.34,0
21,119298531500000,1.18,14.48,3.91,0
21,119298571600000,-2.41,16.51,4.86,0
21,119298611578000,-0.69,12.3,2.22,0
21,119298771368000,0.46,2.34,2.22,0
21,119298771368000,0.46,2.34,2.22,0
21,119298771368000,0.46,2.34,2.22,0
21,119298811469000,0.0,0.0,0.89,0
21,119298851630000,-0.34,3.38,0.27,0
21,119298931555000,-0.15,7.01,0.91,0
21,119298973608000,1.12,4.44,3.15,0
21,119299011511000,-2.49,15.36,2.14,0
21,119299051550000,-0.42,14.63,2.18,0
21,119299131720000,4.48,17.86,3.15,0
21,119299172278000,1.08,6.89,1.08,0
21,119299213355000,2.03,6.51,-0.76,0
21,119299254523000,-0.42,8.47,-0.08,0
21,119299331519000,0.89,5.9,1.69,0
21,119299372076000,3.36,5.01,0.65,0
21,119299411597000,4.18,3.6,0.69,0
21,119299451514000,0.57,4.6,2.75,0
21,119299531500000,1.8,14.63,4.48,0
21,119299571600000,-1.08,17.47,5.79,0
21,119299611456000,-0.23,12.53,5.82,0
21,119299651495000,1.46,12.76,10.42,0
21,119299731482000,-0.23,4.63,4.02,0
21,119299771613000,-1.73,2.87,2.22,0
21,119299811560000,-1.14,2.15,1.38,0
21,119299851477000,0.04,3.17,1.84,0
21,119299931525000,0.72,10.88,5.33,0
21,119299972266000,2.37,6.7,2.11,0
21,119300011511000,1.23,5.63,4.75,0
21,119300051581000,0.53,10.99,4.25,0
21,119300131567000,0.3,10.27,0.91,0
21,119300171515000,3.15,10.46,5.63,0
21,119300211554000,6.28,14.9,-0.11,0
21,119300251746000,3.26,5.83,-1.31,0
21,119300331580000,0.23,8.62,0.76,0
21,119300371832000,1.53,6.66,0.46,0
21,119300411566000,1.27,4.94,0.23,0
21,119300451514000,1.08,5.22,1.33,0
21,119300531744000,2.26,6.24,2.03,0
21,119300571570000,2.37,12.11,3.02,0
21,119300611456000,-0.04,6.66,2.87,0
21,119300651617000,1.04,17.82,4.63,0
21,119300731482000,1.99,13.21,6.47,0
21,119300772131000,1.61,11.37,7.5,0
21,119300811591000,-1.27,7.27,4.67,0
21,119300851660000,-1.73,2.96,3.15,0
21,119300931494000,0.34,0.89,2.14,0
21,119300971533000,1.08,5.01,2.26,0
21,119301011511000,0.69,9.85,3.49,0
21,119301051550000,-2.49,6.47,2.22,0
21,119301131628000,1.73,7.31,6.59,0
21,119301171637000,-2.49,14.82,2.14,0
21,119301211584000,4.75,12.64,1.27,0
21,119301251563000,7.55,6.93,2.49,0
21,119301307532000,1.92,18.24,2.49,0
21,119301381476000,-1.57,5.67,-0.31,0
21,119301421606000,1.12,11.07,0.27,0
21,119301461615000,4.86,7.86,-0.76,0
21,119301501624000,2.96,5.83,0.8,0
21,119301584113000,1.46,5.24,2.14,0
21,119301621649000,3.6,6.02,1.12,0
21,119301661505000,1.92,9.38,2.18,0
21,119301701758000,-2.37,10.34,1.69,0
21,119301781683000,-6.4,17.01,-0.46,0
21,119301821478000,-3.26,17.24,1.46,0
21,119301861609000,7.16,16.59,8.2,0
21,119301901648000,3.76,9.28,3.6,0
21,119301981635000,-1.61,2.11,2.41,0
21,119302021643000,-0.46,3.57,1.76,0
21,119302061682000,0.34,4.02,1.84,0
21,119302101660000,-0.19,6.85,2.03,0
21,119302181525000,4.14,12.95,7.93,0
21,119302224188000,1.42,10.0,5.18,0
21,119302261664000,0.0,7.89,2.72,0
21,119302301733000,-1.08,16.55,-1.73,0
21,119302382605000,1.23,8.96,-2.76,0
21,119302421606000,5.05,14.37,-0.8,0
21,119302461737000,2.56,7.31,-2.72,0
21,119302542975000,5.2,7.44,0.69,0
21,119302581549000,6.63,8.05,2.11,0
21,119302621619000,5.82,6.74,4.02,0
21,119302661505000,5.56,6.28,3.06,0
21,119302701605000,2.56,8.08,2.83,0
21,119302781470000,1.69,8.81,1.38,0
21,119302821570000,0.53,11.14,1.18,0
21,119302861670000,-0.61,10.95,0.42,0
21,119302901740000,0.34,11.35,-2.11,0
21,119302981757000,-0.61,12.37,2.56,0
21,119303021643000,0.46,13.38,3.68,0
21,119303061682000,1.14,9.11,1.08,0
21,119303101660000,0.57,5.98,2.87,0
21,119303181525000,1.65,4.63,2.56,0
21,119303221655000,1.31,5.13,2.91,0
21,119303261603000,1.31,4.56,3.36,0
21,119303301764000,0.76,4.52,2.83,0
21,119303350317000,1.69,6.47,2.18,0
21,119303431525000,0.72,7.27,4.75,0
21,119303472205000,1.12,4.94,3.17,0
21,119303521429000,-2.83,17.31,2.3,0
21,119303561438000,4.86,13.14,1.84,0
21,119303601538000,8.88,16.09,2.91,0
21,119303681616000,-1.31,4.37,0.38,0
21,119303721503000,2.6,10.5,-1.08,0
21,119303761511000,0.61,9.08,-0.46,0
21,119303803442000,0.19,7.4,0.38,0
21,119303881567000,3.11,2.3,-0.04,0
21,119303921545000,-0.19,0.69,3.49,0
21,119303961707000,4.52,7.78,5.86,0
21,119304001929000,5.05,9.72,3.36,0
21,119304081519000,-3.38,17.54,7.31,0
21,119304121619000,3.26,12.76,6.63,0
21,119304182837000,-0.23,10.12,7.04,0
21,119304221686000,0.27,6.97,4.56,0
21,119304279791000,-0.38,3.64,2.37,0
21,119304321936000,0.0,1.88,1.95,0
21,119304361670000,0.3,2.56,2.11,0
21,119304401801000,-0.89,6.4,2.6,0
21,119304481604000,-0.15,5.79,1.73,0
21,119304521552000,-0.46,8.05,3.68,0
21,119304561560000,1.69,18.58,0.11,0
21,119304601782000,6.85,15.17,3.68,0
21,119304681494000,1.08,6.02,3.11,0
21,119304721594000,2.96,10.76,2.56,0
21,119304761511000,3.45,9.43,0.84,0
21,119304801581000,1.8,6.28,0.53,0
21,119304881598000,-0.31,6.05,0.84,0
21,119304921515000,-0.38,4.67,1.84,0
21,119304961768000,1.73,7.63,3.64,0
21,119305001685000,3.68,8.47,3.6,0
21,119305081641000,1.69,14.94,1.95,0
21,119305121466000,-2.56,15.7,6.24,0
21,119305161536000,0.3,12.45,5.28,0
21,119305201605000,2.34,14.29,6.89,0
21,119305281470000,-0.95,5.37,3.3,0
21,119305321600000,-1.31,3.6,2.45,0
21,119305372626000,-0.08,0.76,1.04,0
21,119305411810000,0.34,0.57,-0.27,0
21,119305451483000,-0.5,5.75,1.5,0
21,119305531470000,-0.42,8.89,4.02,0
21,119305571417000,2.11,18.01,3.68,0
21,119305691382000,2.3,18.01,3.68,0
21,119305691382000,2.3,18.01,3.68,0
21,119305731512000,1.5,7.21,-0.72,0
21,119305771490000,0.95,6.59,-0.72,0
21,119305811469000,0.46,11.03,-0.38,0
21,119305851508000,1.14,6.74,-0.11,0
21,119305931494000,-0.27,4.67,2.14,0
21,119305972296000,2.3,3.38,1.88,0
21,119306011542000,1.76,3.26,2.11,0
21,119306051489000,4.29,9.23,3.45,0
21,119306131506000,0.95,16.13,3.53,0
21,119306172308000,-3.21,18.43,5.86,0
21,119306211432000,1.18,12.83,5.86,0
21,119306251563000,2.37,12.07,7.5,0
21,119306331488000,0.19,4.9,2.79,0
21,119306371497000,-0.34,1.88,2.53,0
21,119306411597000,-0.57,-0.42,0.46,0
21,119306451666000,-0.46,3.79,-1.27,0
21,119306531561000,-2.3,7.97,0.91,0
21,119306571539000,1.12,6.4,2.53,0
21,119306611517000,-1.61,9.7,4.63,0
21,119306651617000,-0.5,17.47,-0.11,0
21,119306731604000,4.63,18.28,3.45,0
21,119306772253000,0.84,4.9,0.3,0
21,119306811560000,2.49,7.06,1.46,0
21,119306851660000,2.3,9.38,-0.11,0
21,119306931616000,0.04,5.56,0.57,0
21,119306971533000,0.61,4.33,1.33,0
21,119307011633000,0.46,4.82,1.57,0
21,119307054572000,3.45,7.21,2.34,0
21,119307131598000,1.46,8.2,1.53,0
21,119307172247000,-0.27,18.39,4.33,0
21,119307211554000,-2.83,15.09,4.21,0
21,119307251532000,2.79,10.88,4.33,0
21,119307331610000,-0.69,8.35,4.37,0
21,119307372137000,0.08,4.06,2.87,0
21,119307425055000,-1.18,3.83,2.87,0
21,119307462531000,-0.8,0.95,1.8,0
21,119307501715000,0.04,1.92,0.15,0
21,119307544928000,0.61,11.45,2.3,0
21,119307631506000,0.34,9.19,4.56,0
21,119307671606000,-1.73,17.88,0.42,0
21,119307711615000,7.12,8.43,1.99,0
21,119307751654000,9.53,14.63,5.28,0
21,119307831610000,3.68,4.18,1.61,0
21,119307871497000,0.34,10.31,-0.38,0
21,119307911597000,-1.08,8.35,0.69,0
21,119307951849000,-1.04,8.05,1.57,0
21,119308031592000,2.34,4.9,0.57,0
21,119308071661000,0.65,4.02,2.3,0
21,119308111487000,2.34,8.28,3.17,0
21,119308151495000,1.69,8.35,1.46,0
21,119308231573000,1.42,14.06,3.34,0
21,119308271643000,-3.38,15.43,4.44,0
21,119308311499000,-0.27,12.68,4.4,0
21,119308351599000,1.38,14.41,9.15,0
21,119308431586000,-0.72,5.52,3.02,0
21,119308471503000,-1.84,2.96,1.99,0
21,119308511603000,-0.5,2.68,1.84,0
21,119308551489000,-0.42,4.52,1.23,0
21,119308632178000,-0.72,6.02,1.65,0
21,119308672247000,-0.5,8.92,3.98,0
21,119308711615000,1.84,7.35,3.87,0
21,119308751593000,0.84,11.84,0.0,0
21,119308831610000,3.64,9.15,4.1,0
21,119308871649000,2.98,16.93,-0.42,0
21,119308911566000,-0.11,5.01,-2.79,0
21,119308952124000,-2.37,8.28,-1.84,0
21,119309031592000,3.72,7.06,-0.19,0
21,119309071722000,2.87,7.86,1.84,0
21,119309111670000,2.53,5.22,1.99,0
21,119309152197000,2.87,5.9,3.41,0
21,119309231573000,3.53,9.04,1.53,0
21,119309271613000,-0.5,15.79,-0.19,0
21,119309311438000,-6.97,17.2,0.8,0
21,119309351477000,-6.97,14.56,0.38,0
21,119309431586000,4.67,11.84,4.82,0
21,119309471503000,-0.84,4.82,2.6,0
21,119309511877000,-2.76,1.33,2.18,0
21,119309551642000,-3.72,0.53,2.34,0
21,119309631598000,1.12,8.58,3.95,0
21,119309671606000,-1.31,12.57,6.32,0
21,119309711523000,2.79,13.48,6.97,0
21,119309751624000,1.31,12.45,7.08,0
21,119309831519000,-4.94,5.71,-2.56,0
21,119309872137000,-1.08,8.28,-1.84,0
21,119309911475000,0.11,14.33,-2.15,0
21,119309953558000,-0.19,8.77,-3.17,0
21,119310031500000,5.41,11.11,-1.33,0
21,119310071906000,4.44,8.58,0.69,0
21,119310111639000,3.98,7.55,1.5,0
21,119310151648000,2.98,5.6,1.04,0
21,119310211249000,2.75,7.21,-0.69,0
21,119310251563000,3.64,12.83,2.56,0
21,119310331824000,1.61,7.7,1.88,0
21,119310371466000,2.41,8.24,2.53,0
21,119310413184000,2.14,9.23,2.87,0
21,119310451392000,0.42,9.66,2.11,0
21,119310531500000,0.99,10.04,-0.76,0
21,119310531500000,0.99,10.04,-0.76,0
21,119310634375000,-2.53,12.57,5.67,0
21,119310672278000,2.45,12.15,2.91,0
21,119310751440000,-1.08,5.63,3.72,0
21,119310751440000,-1.08,5.63,3.72,0
21,119310831396000,0.69,5.33,3.41,0
21,119310871466000,0.34,6.7,4.18,0
21,119310911841000,0.89,7.4,3.72,0
21,119310951697000,0.15,6.51,2.75,0
21,119311031561000,0.69,4.44,0.89,0
21,119311071600000,0.34,3.99,3.34,0
21,119311111639000,0.04,6.28,3.87,0
21,119311152045000,-1.76,12.07,0.19,0
21,119311231604000,5.43,15.51,5.6,0
21,119311271552000,1.99,12.76,2.14,0
21,119311311469000,2.41,4.48,1.46,0
21,119311351508000,3.6,8.43,-1.5,0
21,119311431525000,-0.89,9.3,0.11,0
21,119311471564000,0.61,6.4,0.89,0
21,119311522772000,0.8,4.44,1.38,0
21,119311561438000,2.53,4.48,0.69,0
21,119311601721000,2.26,3.11,1.65,0
21,119311681647000,0.53,6.02,3.45,0
21,119311721625000,2.53,13.72,2.64,0
21,119311761664000,-1.95,16.59,4.4,0
21,119311801581000,-2.26,12.91,5.28,0
21,119311881506000,-0.19,11.03,6.85,0
21,119311881506000,0.61,4.25,2.75,0
21,119311973700000,-0.27,2.68,1.88,0
21,119312011572000,-0.57,0.8,1.61,0
21,119312051520000,0.04,1.46,0.95,0
21,119312131628000,-0.04,8.24,2.6,0
21,119312171545000,0.19,6.55,0.27,0
21,119312211493000,-1.5,10.57,6.59,0
21,119312251532000,2.53,17.67,-1.42,0
21,119312331610000,3.21,12.72,6.78,0
21,119312372504000,2.45,12.3,0.91,0
21,119312411597000,1.08,6.89,0.76,0
21,119312451575000,0.42,10.95,0.76,0
21,119312741766000,1.14,9.72,0.57,0
21,119312741766000,1.14,9.72,0.57,0
21,119312741766000,1.14,9.72,0.57,0
21,119312741766000,1.14,9.72,0.57,0
21,119312741766000,1.14,9.72,0.57,0
21,119312781531000,0.95,11.56,1.18,0
21,119312821600000,-2.34,15.85,7.01,0
21,119312861609000,1.23,13.06,5.75,0
21,119312901617000,2.98,11.54,8.08,0
21,119312982489000,2.72,5.24,4.59,0
21,119313021582000,0.95,3.57,2.72,0
21,119313061682000,-0.08,1.46,1.33,0
21,119313102332000,-0.23,-0.69,0.69,0
21,119313181647000,-2.6,8.66,2.53,0
21,119313221686000,-3.68,7.12,0.34,0
21,119313261603000,0.27,11.37,2.49,0
21,119313333319000,4.25,19.5,2.56,0
21,119313392096000,3.21,3.72,2.6,0
21,119313432562000,1.38,11.92,2.75,0
21,119313471442000,2.14,10.46,1.33,0
21,119313513892000,1.8,5.33,0.34,0
21,119313573767000,-0.23,6.93,0.38,0
21,119313611975000,-0.8,6.55,1.27,0
21,119313651526000,0.11,2.64,-0.84,0
21,119313692816000,-0.38,1.95,0.19,0
21,119313782599000,2.22,9.47,1.23,0
21,119313821387000,3.79,17.86,4.29,0
21,119313881415000,-2.76,14.33,4.33,0
21,119313922491000,0.61,13.91,5.28,0
21,119313961493000,0.3,9.0,5.28,0
21,119314022559000,0.61,3.38,2.3,0
21,119314076575000,-0.65,1.08,1.88,0
21,119314076575000,-0.65,1.08,1.88,0
21,119314148291000,0.46,3.02,1.12,0
21,119314231512000,0.89,5.83,3.76,0
21,119314282324000,-1.08,17.54,2.26,0
21,119314333319000,8.77,14.33,4.02,0
21,119314333319000,8.77,14.33,4.02,0
21,119314410681000,-0.72,5.75,2.3,0
21,119314451941000,1.92,7.78,0.04,0
21,119314532599000,-0.46,5.37,0.3,0
21,119314572943000,-0.34,4.94,0.8,0
21,119314611700000,0.69,5.24,2.03,0
21,119314652045000,2.03,4.25,1.76,0
21,119314731543000,3.6,8.28,1.42,0
21,119314771490000,-0.99,18.01,5.24,0
21,119314811560000,-4.18,13.87,5.71,0
21,119314851660000,3.91,12.41,7.01,0
21,119314931555000,2.72,5.33,3.02,0
21,119314972144000,0.5,1.69,2.56,0
21,119315012366000,-1.23,0.84,2.26,0
21,119315061652000,-0.95,3.41,1.18,0
21,119315101508000,0.15,6.32,2.56,0
21,119315181525000,-2.45,11.37,-0.04,0
21,119315221686000,2.68,17.05,3.34,0
21,119315261969000,6.66,10.34,2.34,0
21,119315301611000,4.44,17.67,4.63,0
21,119315383398000,1.08,6.09,0.57,0
21,119315421545000,0.27,8.39,0.53,0
21,119315461523000,0.95,6.02,0.15,0
21,119315501990000,0.3,4.37,1.65,0
21,119315545233000,1.04,3.72,2.49,0
21,119315633978000,4.4,11.14,0.99,0
21,119315671606000,2.53,15.28,3.34,0
21,119315711493000,-6.09,18.92,6.51,0
21,119315751501000,-0.65,10.92,5.09,0
21,119315831488000,-0.61,9.43,5.79,0
21,119315871619000,0.0,2.76,2.14,0
21,119315911475000,0.53,1.14,2.45,0
21,119315952277000,-0.5,-1.12,1.08,0
21,119316031500000,0.72,8.54,3.72,0
21,119316071631000,-0.95,11.56,2.83,0
21,119316111426000,-1.95,14.02,2.07,0
21,119316151617000,3.11,15.89,1.61,0
21,119316231482000,2.98,17.31,2.45,0
21,119316271643000,-1.88,9.66,-0.65,0
21,119316311591000,-0.19,6.82,-0.11,0
21,119316351508000,0.76,5.67,-0.31,0
21,119316455695000,2.64,5.67,3.98,0
21,119316455695000,2.64,5.67,3.98,0
21,119316501471000,1.65,5.33,3.79,0
21,119316584326000,2.11,12.41,0.76,0
21,119316621558000,-5.37,19.15,1.38,0
21,119316663489000,-6.24,16.82,1.23,0
21,119316702063000,-1.08,15.66,3.49,0
21,119316781470000,1.23,7.86,3.64,0
21,119316822272000,-0.99,3.41,2.03,0
21,119316861578000,-3.6,2.96,2.79,0
21,119316902502000,-3.06,5.41,2.68,0
21,119316981604000,-0.53,9.08,3.17,0
21,119317023199000,-0.99,9.89,4.14,0
21,119317061591000,0.19,11.96,5.41,0
21,119317101660000,-0.15,13.29,3.87,0
21,119317181616000,0.0,8.85,-0.34,0
21,119317222510000,-0.95,13.48,1.27,0
21,119317261511000,1.27,10.84,-1.54,0
21,119317301642000,3.64,8.62,-0.61,0
21,119317381598000,5.37,8.81,1.27,0
21,119317421698000,4.14,7.93,2.6,0
21,119317461646000,3.72,7.97,3.72,0
21,119317501532000,3.53,7.31,3.68,0
21,119317584814000,3.26,7.74,2.3,0
21,119317636298000,1.84,9.28,1.27,0
21,119317673438000,-0.69,11.84,1.5,0
21,119317711554000,-1.08,12.22,-0.23,0
21,119317752783000,0.99,8.43,-0.95,0
21,119317831641000,2.03,15.94,7.01,0
21,119317871588000,0.99,8.62,2.64,0
21,119317911627000,-0.61,4.06,3.91,0
21,119317951514000,-0.19,4.02,3.87,0
21,119318031531000,1.12,4.94,3.76,0
21,119318071570000,0.61,6.82,3.26,0
21,119318111639000,-0.23,7.35,2.83,0
21,119318151465000,-1.95,6.13,2.68,0
21,119318231573000,2.34,6.93,3.36,0
21,119318271582000,0.89,8.2,5.79,0
21,119318311530000,-1.95,13.76,2.03,0
21,119318351691000,3.49,13.14,1.57,0
21,119318431525000,0.19,17.54,1.61,0
21,119318472266000,-0.95,6.36,-0.76,0
21,119318511450000,-0.65,11.37,0.72,0
21,119318553656000,2.98,11.37,0.72,0
21,119318591620000,4.1,8.47,0.8,0
21,119318670752000,2.07,6.66,2.91,0
21,119318712286000,1.84,5.48,1.92,0
21,119318751624000,1.84,3.79,3.21,0
21,119318831519000,4.02,10.04,2.6,0
21,119318871436000,0.27,10.08,1.53,0
21,119318911627000,-1.99,13.95,2.68,0
21,119318951697000,-4.79,15.6,7.35,0
21,119319032843000,3.15,8.01,7.78,0
21,119319081580000,-0.23,5.37,4.1,0
21,119319121466000,-1.99,2.91,3.02,0
21,119319163062000,-0.57,1.46,1.12,0
21,119319201636000,0.0,0.99,1.18,0
21,119319281897000,1.76,12.91,4.56,0
21,119319321600000,-1.18,9.3,5.56,0
21,119319361639000,-2.6,8.43,2.26,0
21,119319401892000,-0.31,17.82,1.27,0
21,119319675116000,1.5,8.08,1.27,0
21,119319675116000,1.5,8.08,1.27,0
21,119319675116000,1.5,8.08,1.27,0
21,119319675116000,1.5,8.08,1.27,0
21,119319675116000,1.5,8.08,1.27,0
21,119319711432000,0.3,5.94,0.69,0
21,119319751624000,1.18,3.76,1.14,0
21,119319831580000,3.91,9.85,3.91,0
21,119319872290000,4.56,9.53,2.3,0
21,119319911566000,2.14,8.16,1.84,0
21,119319951605000,1.46,12.79,4.63,0
21,119320031683000,1.57,11.88,5.33,0
21,119320071661000,-1.04,11.88,9.62,0
21,119320111456000,1.5,7.35,5.2,0
21,119320151556000,0.0,3.83,3.49,0
21,119320231604000,0.72,1.38,2.07,0
21,119320271582000,0.76,4.48,1.42,0
21,119320311530000,-0.38,9.92,3.79,0
21,119320351630000,-0.89,8.96,3.3,0
21,119320431616000,-0.65,9.23,1.88,0
21,119320471625000,0.27,19.38,0.84,0
21,119320511542000,4.94,8.08,3.11,0
21,119320554846000,6.66,15.09,3.83,0
21,119320631567000,1.31,5.09,0.76,0
21,119320671881000,-0.93,7.89,0.89,0
21,119320711462000,-0.15,5.41,0.15,0
21,119320751563000,-0.69,5.79,0.8,0
21,119320831549000,1.46,2.03,0.27,0
21,119320871497000,0.69,0.53,3.26,0
21,119320911627000,5.48,13.18,3.45,0
21,119320951483000,0.19,12.83,2.53,0
21,119321032202000,-2.22,10.38,6.28,0
21,119321071326000,2.03,13.82,6.7,0
21,119321111578000,-2.53,11.54,8.08,0
21,119321151648000,0.15,4.99,3.11,0
21,119321231635000,-2.03,0.93,2.18,0
21,119321271490000,0.15,-1.08,1.12,0
21,119321311652000,1.61,5.13,1.73,0
21,119321351660000,-0.38,12.6,6.05,0
21,119321431555000,-1.99,11.37,3.87,0
21,119321471564000,-0.27,17.67,1.23,0
21,119321511664000,6.28,10.46,1.04,0
21,119321554938000,6.13,16.78,4.02,0
21,119321631415000,2.49,5.98,1.04,0
21,119321679816000,0.95,10.92,0.3,0
21,119321721716000,-0.08,7.21,0.76,0
21,119321761633000,-0.61,5.9,1.8,0
21,119321801520000,1.65,5.24,1.84,0
21,119321881598000,5.79,6.74,2.53,0
21,119321921667000,2.45,7.35,0.38,0
21,119321962073000,-0.31,11.56,2.83,0
21,119322001990000,-1.88,16.74,4.86,0
21,119322081610000,4.67,10.84,4.48,0
21,119322121710000,-1.69,14.75,8.58,0
21,119322161963000,-2.11,4.79,2.91,0
21,119322201727000,0.5,0.99,1.84,0
21,119322281439000,-0.08,1.31,1.46,0
21,119322321539000,-0.61,7.08,1.27,0
21,119322362006000,-0.84,12.15,4.48,0
21,119322401526000,-2.83,11.56,1.5,0
21,119322481665000,4.79,14.29,1.57,0
21,119322521613000,9.08,6.82,3.91,0
21,119322562140000,3.98,18.01,3.57,0
21,119322601630000,1.33,11.37,0.04,0
21,119322681769000,-1.88,7.86,-0.15,0
21,119322721686000,0.57,7.67,0.27,0
21,119322761603000,0.42,6.05,0.57,0
21,119322801520000,1.57,2.22,3.11,0
21,119322881476000,5.52,8.5,1.08,0
21,119322921606000,0.8,10.42,1.76,0
21,119322963110000,-1.04,14.37,3.83,0
21,119323001929000,-1.04,13.8,5.48,0
21,119323081396000,0.38,12.03,7.25,0
21,119323121619000,-0.08,8.43,6.32,0
21,119323161719000,2.37,4.63,2.98,0
21,119323202002000,0.0,1.73,3.06,0
21,119323281958000,0.42,1.92,0.15,0
21,119323321936000,-0.72,13.38,5.52,0
21,119323361823000,-3.06,11.65,1.69,0
21,119323402655000,2.83,17.88,0.61,0
21,119323481604000,4.86,10.27,3.64,0
21,119323521582000,3.26,14.82,-0.27,0
21,119323561621000,1.95,4.63,-0.11,0
21,119323561621000,1.95,4.63,-0.11,0
21,119323672247000,1.23,6.66,-0.08,0
21,119323726386000,1.08,6.36,1.53,0
21,119323771613000,3.21,6.05,2.18,0
21,119323811743000,4.25,4.21,1.73,0
21,119323851660000,5.79,6.51,-0.5,0
21,119323932837000,-1.95,15.51,0.46,0
21,119323971747000,-1.8,16.51,3.06,0
21,119324011481000,-2.34,12.76,3.76,0
21,119324051550000,6.82,13.29,9.43,0
21,119324131567000,-2.15,4.21,2.91,0
21,119324171790000,-3.79,3.91,3.79,0
21,119324211584000,-2.87,4.48,2.64,0
21,119324251563000,0.04,5.52,3.02,0
21,119324332159000,-1.54,10.0,3.98,0
21,119324371863000,0.72,13.25,7.25,0
21,119324411566000,2.72,13.63,6.17,0
21,119324451758000,-0.53,12.45,4.9,0
21,119324501501000,-3.38,4.94,-0.61,0
21,119324553290000,-0.84,10.27,-1.73,0
21,119324631506000,-0.42,7.67,-0.89,0
21,119324671545000,0.42,7.89,-1.88,0
21,119324751440000,5.52,7.63,1.73,0
21,119324751440000,5.52,7.63,1.73,0
21,119324831732000,3.49,8.81,2.87,0
21,119324831732000,3.49,8.81,2.87,0
21,119324931464000,1.69,8.16,2.3,0
21,119324931464000,1.69,8.16,2.3,0
21,119325009619000,1.61,10.46,1.14,0
21,119325060400000,-1.65,12.03,0.19,0
21,119325101630000,-0.08,10.84,-1.33,0
21,119325181647000,-0.57,11.41,4.9,0
21,119325221442000,2.18,12.11,3.45,0
21,119325261511000,2.07,8.12,3.68,0
21,119325301520000,-0.27,3.79,4.25,0
21,119325343420000,0.76,4.14,3.02,0
21,119325432898000,-0.42,4.33,2.75,0
21,119325471564000,0.84,5.52,2.53,0
21,119325511450000,2.34,5.56,2.98,0
21,119325551428000,-0.23,5.41,2.26,0
21,119325632819000,-3.68,15.64,0.46,0
21,119325671729000,5.09,14.52,0.19,0
21,119325711493000,7.08,13.63,7.59,0
21,119325752631000,1.99,10.61,-0.11,0
21,119325832068000,-1.38,7.5,0.53,0
21,119325871405000,0.38,8.73,1.5,0
21,119325911475000,1.18,6.32,2.49,0
21,119325973364000,2.91,5.75,2.18,0
21,119326023199000,2.91,5.86,2.72,0
21,119326023199000,2.91,5.86,2.72,0
21,119326111517000,-1.08,16.78,3.21,0
21,119326111517000,-1.08,16.78,3.21,0
21,119326204749000,2.98,12.26,5.79,0
21,119326271490000,-1.23,3.53,3.21,0
21,119326311499000,2.45,0.23,2.68,0
21,119326351599000,0.91,-0.38,3.49,0
21,119326351599000,0.91,-0.38,3.49,0
21,119326351599000,0.91,-0.38,3.49,0
21,119326351599000,0.91,-0.38,3.49,0
21,119326541510000,1.61,17.12,0.53,0
21,119326611639000,2.49,16.17,3.53,0
21,119326651373000,0.11,10.61,0.89,0
21,119326731299000,1.84,8.5,0.76,0
21,119326771429000,1.99,9.89,1.08,0
21,119326811407000,0.99,6.97,1.5,0
21,119326851477000,1.53,5.52,1.57,0
21,119326931433000,0.91,4.71,3.83,0
21,119326971594000,5.67,10.12,2.75,0
21,119327011908000,2.56,9.04,0.99,0
21,119327051489000,1.04,16.55,2.79,0
21,119327131628000,0.0,10.65,3.49,0
21,119327171637000,2.41,9.7,4.44,0
21,119327211646000,-3.38,5.79,4.14,0
21,119327251501000,-1.65,3.21,3.45,0
21,119327331641000,1.27,1.84,2.6,0
21,119327372168000,0.15,3.83,2.07,0
21,119327411658000,0.19,11.8,4.18,0
21,119327451636000,-1.84,9.96,2.34,0
21,119327531592000,5.28,12.3,-0.65,0
21,119327571600000,8.54,8.05,4.18,0
21,119327631445000,1.84,14.63,2.49,0
21,119327671454000,2.03,4.86,-0.57,0
21,119327711615000,-1.31,8.62,1.23,0
21,119327751532000,0.99,9.23,0.89,0
21,119327831610000,0.61,5.18,1.69,0
21,119327871527000,2.56,5.63,2.87,0
21,119327912268000,2.22,7.12,2.11,0
21,119327952979000,3.21,9.23,1.95,0
21,119328031592000,-1.8,16.74,6.59,0
21,119328071478000,-1.57,11.6,5.37,0
21,119328111639000,3.11,10.34,3.72,0
21,119328151648000,-0.53,8.16,5.13,0
21,119328231543000,0.27,5.24,3.06,0
21,119328271582000,-0.65,2.37,1.14,0
21,119328311591000,-1.73,0.38,-0.34,0
21,119328352026000,-0.11,7.08,3.02,0
21,119328431616000,-0.38,9.58,2.96,0
21,119328472235000,-1.14,16.63,2.87,0
21,119328511969000,4.9,12.83,2.22,0
21,119328551489000,8.24,8.08,1.53,0
21,119328631598000,2.22,7.5,-0.99,0
21,119328671637000,0.91,5.52,1.42,0
21,119328711646000,0.08,7.67,1.46,0
21,119328751624000,2.3,7.21,0.99,0
21,119328831824000,0.27,4.52,2.68,0
21,119328872015000,2.37,8.16,1.95,0
21,119328911475000,3.02,8.62,1.33,0
21,119328951666000,0.5,11.65,3.72,0
21,119329031592000,0.11,10.38,5.2,0
21,119329072272000,2.98,9.85,5.48,0
21,119329111670000,-2.98,10.69,7.93,0
21,119329151678000,-0.65,6.02,3.83,0
21,119329231543000,0.19,-0.3,1.61,0
21,119329271460000,-0.34,0.57,-0.69,0
21,119329311621000,0.08,12.83,4.63,0
21,119329352515000,-1.8,12.64,4.14,0
21,119329433630000,5.43,11.88,0.95,0
21,119329472357000,5.09,10.46,3.17,0
21,119329511481000,3.41,18.16,3.3,0
21,119329551642000,2.56,7.16,-0.19,0
21,119329631445000,-0.89,8.35,1.53,0
21,119329672156000,1.5,9.0,0.8,0
21,119329711523000,0.15,4.71,1.73,0
21,119329751654000,1.84,4.1,2.68,0
21,119329832220000,2.56,8.47,2.11,0
21,119329872168000,3.64,10.42,2.07,0
21,119329911658000,1.33,13.33,6.13,0
21,119329952307000,-1.76,15.85,6.78,0
21,119330031592000,0.11,12.57,8.39,0
21,119330072241000,2.83,6.05,4.75,0
21,119330111609000,0.27,5.22,3.21,0
21,119330151556000,-2.56,4.44,2.37,0
21,119330231543000,1.84,3.83,1.5,0
21,119330271460000,0.65,7.74,3.02,0
21,119330312781000,-1.88,10.84,4.21,0
21,119330351599000,-1.14,8.28,3.36,0
21,119330431525000,0.23,14.1,0.15,0
21,119330471472000,7.12,16.86,3.45,0
21,119330511603000,2.22,12.49,2.11,0
21,119330561530000,0.69,12.11,-2.22,0
21,119330601569000,-1.92,4.9,-0.53,0
21,119330681494000,2.91,8.35,0.15,0
21,119330721594000,1.42,5.83,1.04,0
21,119330761603000,1.73,6.89,2.56,0
21,119330801550000,2.03,6.13,1.92,0
21,119330881506000,0.19,9.62,-0.08,0
21,119330921515000,-4.48,15.02,1.53,0
21,119330961615000,-5.6,15.98,1.95,0
21,119331001593000,-4.94,13.18,0.95,0
21,119331081519000,0.57,10.99,5.13,0
21,119331121588000,-0.27,6.51,1.8,0
21,119331161536000,-4.56,3.99,3.36,0
21,119331211676000,-4.86,4.14,2.53,0
21,119331251959000,-1.14,7.55,3.17,0
21,119331331488000,-3.17,8.39,4.59,0
21,119331372198000,0.8,11.75,6.21,0
21,119331411627000,1.95,10.57,7.63,0
21,119331451575000,-1.08,11.14,6.85,0
21,119331531622000,-2.98,7.74,-0.76,0
21,119331571478000,-2.22,6.74,-1.54,0
21,119331611609000,0.91,14.18,-1.88,0
21,119331651556000,-0.57,8.89,0.08,0
21,119331731635000,3.57,10.34,-0.76,0
21,119331772162000,5.24,8.39,-0.08,0
21,119331811621000,5.94,7.97,1.92,0
21,119331852911000,5.67,7.67,2.91,0
21,119331897955000,3.76,6.21,2.34,0
21,119331981604000,1.69,10.57,2.64,0
21,119332021521000,2.96,9.81,1.99,0
21,119332061499000,2.6,10.65,1.92,0
21,119332101630000,-2.87,12.26,1.76,0
21,119332181525000,-1.14,9.11,-3.06,0
21,119332221594000,-5.67,10.57,1.61,0
21,119332261633000,-0.76,12.53,2.49,0
21,119332301611000,4.18,10.27,2.45,0
21,119332381537000,-0.34,4.71,3.72,0
21,119332421606000,0.84,3.49,2.53,0
21,119332461768000,0.84,3.79,2.91,0
21,119332501501000,0.11,3.41,2.49,0
21,119332581671000,1.88,7.86,2.26,0
21,119332621619000,1.53,6.59,3.17,0
21,119332661505000,0.95,8.39,5.01,0
21,119332701575000,-1.18,7.4,3.98,0
21,119332781531000,6.63,17.24,2.37,0
21,119332821509000,5.56,10.5,2.56,0
21,119332861700000,-1.18,13.18,3.02,0
21,119332901709000,1.65,8.66,1.14,0
21,119332981665000,0.11,8.24,1.23,0
21,119333021490000,1.65,5.9,0.84,0
21,119333061591000,0.95,4.6,0.5,0
21,119333101691000,2.07,6.51,3.15,0
21,119333181647000,4.63,8.47,2.37,0
21,119333221594000,2.83,6.51,2.6,0
21,119333261603000,0.91,12.64,2.3,0
21,119333421301000,-0.65,13.76,7.25,0
21,119333421301000,-0.65,13.76,7.25,0
21,119333421301000,-0.65,13.76,7.25,0
21,119333462317000,-0.31,4.18,3.26,0
21,119333503638000,-0.61,3.6,1.42,0
21,119333581396000,-0.04,-2.37,0.19,0
21,119333621405000,0.5,0.15,-0.34,0
21,119333661536000,0.72,12.45,6.24,0
21,119333701941000,-1.5,9.77,2.96,0
21,119333781592000,6.55,13.95,0.76,0
21,119333821722000,5.52,17.69,3.98,0
21,119333861700000,-1.14,9.96,3.3,0
21,119333904028000,1.84,7.31,1.53,0
21,119333961523000,1.08,8.73,-0.23,0
21,119334001532000,0.5,5.05,0.42,0
21,119334081610000,2.11,4.94,0.76,0
21,119334121497000,1.14,3.11,3.15,0
21,119334161658000,3.72,8.62,2.18,0
21,119334201666000,0.84,8.62,1.31,0
21,119334281683000,0.76,13.59,6.21,0
21,119334339819000,0.84,15.21,7.01,0
21,119334381506000,-1.65,7.78,6.09,0
21,119334421515000,-0.15,4.25,2.49,0
21,119334461646000,-0.69,2.53,3.41,0
21,119334501532000,0.0,0.19,1.76,0
21,119334581763000,0.89,8.16,2.68,0
21,119334621588000,1.04,7.63,4.9,0
21,119334661627000,-2.07,13.48,4.75,0
21,119334706671000,1.14,15.36,0.11,0
21,119334781561000,3.34,16.89,2.11,0
21,119334821509000,-1.73,5.05,1.23,0
21,119334864050000,1.73,7.55,1.8,0
21,119334901617000,2.98,7.35,0.84,0
21,119334981543000,0.89,5.05,0.72,0
21,119335021552000,-0.19,3.79,3.36,0
21,119335061621000,0.27,3.64,2.53,0
21,119335101630000,1.42,9.66,2.41,0
21,119335181525000,-0.53,15.17,7.31,0
21,119335221686000,-0.19,15.75,6.59,0
21,119335261603000,2.11,12.34,8.62,0
21,119335301642000,-0.31,8.5,5.82,0
21,119335381689000,0.65,1.31,2.45,0
21,119335421606000,-0.11,-0.8,0.61,0
21,119335461737000,-1.8,2.07,-0.19,0
21,119335501563000,0.72,12.18,4.52,0
21,119335581580000,1.61,15.85,3.34,0
21,119335621619000,6.66,10.76,3.53,0
21,119335661627000,5.56,15.17,3.45,0
21,119335701636000,1.08,3.95,1.42,0
21,119335781470000,0.38,8.08,1.04,0
21,119335821539000,0.99,5.28,0.8,0
21,119335864478000,1.33,5.86,2.72,0
21,119335901648000,2.53,5.52,2.18,0
21,119335982336000,1.12,7.16,2.14,0
21,119336021490000,-1.14,14.67,5.05,0
21,119336061621000,0.15,15.51,7.25,0
21,119336101538000,3.26,10.95,5.63,0
21,119336181555000,1.61,5.63,4.21,0
21,119336221625000,3.21,1.76,2.53,0
21,119336261603000,-0.93,0.23,1.69,0
21,119336301550000,-3.17,-1.04,-0.04,0
21,119336381628000,0.34,10.19,4.79,0
21,119336421515000,0.0,11.56,-0.34,0
21,119336461646000,8.16,15.83,3.34,0
21,119336501532000,4.02,16.02,2.72,0
21,119336583228000,3.36,6.78,2.3,0
21,119336621497000,2.22,7.31,1.27,0
21,119336661505000,0.8,8.81,0.23,0
21,119336702277000,0.19,5.79,0.61,0
21,119336781592000,1.57,3.38,2.96,0
21,119336821509000,0.76,7.55,1.76,0
21,119336861639000,0.95,8.77,1.65,0
21,119336902563000,0.42,11.18,6.59,0
21,119336981818000,0.72,11.56,4.75,0
21,119337021521000,-3.34,12.49,7.46,0
21,119337061530000,-0.89,8.85,5.41,0
21,119337101538000,1.46,4.56,0.76,0
21,119337181616000,-3.49,1.99,1.38,0
21,119337221747000,-1.5,2.72,0.08,0
21,119337261511000,2.45,7.82,3.34,0
21,119337301703000,0.84,5.52,4.9,0
21,119337384070000,2.64,16.66,2.83,0
21,119337421606000,3.34,13.14,2.98,0
21,119337461768000,6.51,16.7,4.25,0
21,119337501563000,0.11,7.06,1.8,0
21,119337583563000,2.18,10.73,0.5,0
21,119337621619000,-0.95,5.79,-0.84,0
21,119337661597000,-0.34,6.51,0.3,0
21,119337701605000,0.15,4.44,0.99,0
21,119337781622000,1.69,2.26,-0.23,0
21,119337821509000,3.34,4.44,4.14,0
21,119337861609000,3.6,9.72,3.34,0
21,119337904639000,1.31,11.41,3.53,0
21,119337981696000,-3.17,12.95,5.33,0
21,119338043494000,-1.84,13.14,9.43,0
21,119338083380000,-0.46,6.89,5.82,0
21,119338122382000,0.76,4.06,3.02,0
21,119338161688000,-0.27,2.64,2.11,0
21,119338201666000,-0.53,-1.04,1.18,0
21,119338281622000,-1.23,4.48,2.56,0
21,119338321631000,0.19,10.46,5.67,0
21,119338361517000,-3.26,17.24,3.95,0
21,119338442145000,4.59,18.43,3.45,0
21,119338483374000,3.57,11.56,1.92,0
21,119338521521000,-2.11,9.19,0.34,0
21,119338561530000,0.11,12.79,1.31,0
21,119338601599000,1.61,7.89,-0.38,0
21,119338681860000,1.95,5.6,0.76,0
21,119338722052000,2.14,9.7,2.26,0
21,119338761633000,1.65,11.14,2.68,0
21,119338861639000,2.22,7.06,0.08,0
21,119338861639000,2.22,7.06,0.08,0
21,119338901648000,1.46,12.76,0.42,0
21,119338981543000,-2.49,9.0,0.11,0
21,119339021521000,-1.04,8.24,1.65,0
21,119339061530000,-1.04,8.47,2.96,0
21,119339101538000,1.73,11.26,4.4,0
21,119339181525000,-1.76,7.31,4.37,0
21,119339221594000,-2.79,6.74,3.45,0
21,119339261694000,0.57,6.47,1.69,0
21,119339304175000,3.68,7.44,1.5,0
21,119339381567000,0.38,14.21,1.69,0
21,119339421637000,0.0,6.51,2.45,0
21,119339461768000,3.11,7.21,1.99,0
21,119339501563000,1.76,9.11,1.33,0
21,119339541541000,2.14,9.77,1.53,0
21,119339632483000,1.33,8.47,1.65,0
21,119339671637000,1.8,9.81,0.89,0
21,119339711737000,0.72,10.53,0.8,0
21,119339751563000,1.65,9.92,0.91,0
21,119339831519000,1.61,10.12,-0.08,0
21,119339872504000,1.04,9.53,0.08,0
21,119339911749000,2.14,10.23,0.04,0
21,119339951483000,2.64,10.12,-0.23,0
21,119340032416000,1.57,9.89,-0.72,0
21,119370641547000,-0.72,4.75,10.0,4
21,119370721472000,1.14,6.89,-0.34,4
21,119370762427000,1.57,15.7,3.36,4
21,119370801520000,-3.64,6.17,2.37,4
21,119370841528000,-0.53,7.16,-0.27,4
21,119370921484000,1.38,10.08,1.14,4
21,119370961890000,1.73,8.96,1.38,4
21,119371001532000,2.41,9.28,1.53,4
21,119371041571000,1.99,6.74,2.03,4
21,119371121527000,4.44,6.85,3.76,4
21,119371161505000,3.34,8.28,2.6,4
21,119371201514000,1.12,16.02,1.04,4
21,119371241705000,4.59,13.91,-1.33,4
21,119371321478000,-2.18,10.95,1.14,4
21,119371361639000,2.45,13.72,1.95,4
21,119371401495000,1.14,8.12,0.99,4
21,119371441626000,1.69,6.44,4.25,4
21,119371521552000,0.15,4.86,4.25,4
21,119371561560000,0.38,5.01,4.18,4
21,119371601538000,0.08,3.72,5.41,4
21,119371641699000,-0.08,3.83,7.5,4
21,119371721564000,1.61,6.89,2.83,4
21,119371761542000,-2.45,15.98,4.48,4
21,119371801550000,0.34,7.46,3.41,4
21,119371841681000,2.64,8.08,-0.38,4
21,119371921484000,-0.23,9.7,1.8,4
21,119371962714000,1.38,6.97,1.76,4
21,119372001715000,3.21,8.54,2.07,4
21,119372059302000,2.53,6.85,2.14,4
21,119372102271000,3.68,8.39,2.56,4
21,119372141547000,3.95,8.5,2.03,4
21,119372221564000,2.07,12.98,-0.34,4
21,119372261511000,3.02,14.37,-1.23,4
21,119372301642000,-1.5,12.98,0.76,4
21,119372341528000,1.95,11.14,0.69,4
21,119372501318000,-0.53,6.63,4.29,4
21,119372501318000,-0.53,6.63,4.29,4
21,119372541388000,0.04,3.68,3.95,4
21,119372541388000,0.04,3.68,3.95,4
21,119372621527000,0.34,3.72,6.43,4
21,119372661627000,1.14,4.9,8.66,4
21,119372701636000,-0.72,8.96,6.63,4
21,119372746497000,4.1,14.75,5.09,4
21,119372821600000,-1.69,4.4,1.08,4
21,119372861517000,1.23,11.84,1.31,4
21,119372901862000,-0.57,8.81,2.14,4
21,119372941534000,0.19,7.27,0.89,4
21,119373021490000,1.65,8.81,1.57,4
21,119373061621000,1.04,9.11,3.83,4
21,119373101508000,4.94,10.27,3.36,4
21,119373141669000,5.41,9.15,2.14,4
21,119373221594000,-2.56,11.54,0.57,4
21,119373261603000,-1.31,12.76,-0.57,4
21,119373301611000,0.72,11.11,0.84,4
21,119373341528000,0.76,10.61,1.99,4
21,119373421484000,-0.23,8.01,3.98,4
21,119373462195000,0.46,6.55,5.94,4
21,119373501654000,1.73,6.24,6.21,4
21,119373541510000,0.34,5.6,5.94,4
21,119373621527000,0.27,4.71,8.5,4
21,119373661505000,0.61,3.91,3.57,4
21,119373701544000,0.08,11.96,1.57,4
21,119373741553000,-4.33,8.35,3.53,4
21,119373821448000,2.49,10.46,0.34,4
21,119373861517000,-0.31,9.47,0.8,4
21,119373902441000,0.5,8.54,1.42,4
21,119373941565000,1.33,8.96,2.49,4
21,119374021521000,3.36,9.28,2.6,4
21,119374061621000,3.91,10.42,2.22,4
21,119374107489000,3.95,12.83,1.88,4
21,119374146368000,1.5,11.65,1.95,4
21,119374222968000,0.19,10.73,1.76,4
21,119374261481000,1.61,11.96,1.23,4
21,119374301520000,0.3,9.11,-0.11,4
21,119374341498000,-1.27,7.78,2.45,4
21,119374421484000,1.33,9.72,5.98,4
21,119374462195000,2.03,7.16,7.4,4
21,119374501593000,0.57,5.43,7.7,4
21,119374541541000,0.3,5.6,8.16,4
21,119374621497000,0.11,4.44,6.43,4
21,119374671545000,-1.65,2.18,-0.99,4
21,119374711493000,-2.18,15.36,3.3,4
21,119374751624000,0.8,8.28,3.68,4
21,119374791510000,2.49,5.28,0.3,4
21,119374871497000,-0.57,10.57,1.8,4
21,119374911444000,1.73,9.43,1.95,4
21,119374951575000,1.99,8.73,2.14,4
21,119374991797000,2.11,9.0,2.56,4
21,119375071509000,2.75,10.8,2.53,4
21,119375111487000,2.03,10.65,2.34,4
21,119375151465000,0.84,10.23,2.11,4
21,119375191534000,-0.27,8.05,1.53,4
21,119375271521000,0.99,12.72,1.18,4
21,119375311499000,0.19,11.65,0.91,4
21,119375351477000,1.04,9.62,1.31,4
21,119375391608000,-0.46,9.38,2.49,4
21,119375471472000,-0.11,10.53,3.72,4
21,119375511481000,-2.07,7.78,4.18,4
21,119375553656000,-1.31,5.86,4.14,4
21,119375591498000,0.0,5.52,4.82,4
21,119375671454000,-0.99,3.79,4.25,4
21,119375711615000,-1.33,2.68,4.99,4
21,119375751501000,-0.8,2.41,7.08,4
21,119375791480000,-0.19,4.1,10.0,4
21,119375871527000,2.53,11.07,13.33,4
21,119375912268000,-1.46,8.12,9.72,4
21,119375954260000,1.31,6.09,4.21,4
21,119375991492000,-2.11,8.43,2.6,4
21,119376071539000,1.27,8.28,3.15,4
21,119376112463000,3.41,7.5,2.96,4
21,119376152411000,1.99,6.59,2.37,4
21,119376191565000,2.41,8.58,2.56,4
21,119376271521000,1.04,8.85,2.18,4
21,119376312079000,0.42,8.81,2.37,4
21,119376351508000,0.69,8.39,1.38,4
21,119376391547000,0.95,7.82,0.91,4
21,119376471503000,1.69,9.51,1.33,4
21,119376511572000,0.72,8.16,0.5,4
21,119376554297000,0.69,9.38,0.69,4
21,119376591589000,0.72,8.16,0.3,4
21,119376671515000,0.3,11.35,1.5,4
21,119376712103000,4.18,10.61,1.14,4
21,119376751501000,5.13,11.8,0.5,4
21,119376791510000,1.8,12.87,-0.38,4
21,119376872107000,-0.95,7.89,0.15,4
21,119376911566000,1.57,11.45,2.34,4
21,119376953009000,1.31,11.22,0.95,4
21,119376991705000,0.57,8.69,2.49,4
21,119377071509000,0.38,8.69,1.73,4
21,119377111609000,-1.99,7.31,1.95,4
21,119377151709000,-2.96,5.28,2.14,4
21,119377191504000,-1.8,4.9,3.57,4
21,119377271521000,4.1,9.0,6.43,4
21,119377311530000,3.21,9.89,6.89,4
21,119377351569000,3.36,10.42,7.86,4
21,119377391486000,-2.18,16.78,-0.46,4
21,119377471564000,1.18,3.57,0.23,4
21,119377551764000,-0.93,6.93,0.95,4
21,119377551764000,-0.93,6.93,0.95,4
21,119377591467000,-0.72,7.01,-0.42,4
21,119377671515000,0.99,8.96,1.65,4
21,119377712164000,1.61,8.54,0.65,4
21,119377751501000,0.84,7.97,1.04,4
21,119377791480000,1.31,9.0,1.57,4
21,119377871436000,3.11,10.38,1.8,4
21,119377911536000,5.2,12.26,-0.46,4
21,119377951788000,1.33,13.02,-1.23,4
21,119377991492000,-2.72,12.6,0.08,4
21,119378071509000,2.14,12.49,1.12,4
21,119378112189000,1.04,10.19,1.99,4
21,119378151648000,-2.26,7.7,3.02,4
21,119378202185000,-2.68,4.75,4.18,4
21,119378241583000,-1.61,4.25,5.75,4
21,119378321692000,1.57,5.05,9.23,4
21,119378361548000,1.27,4.37,8.47,4
21,119378401526000,-3.99,10.99,3.76,4
21,119378441534000,0.11,12.95,6.24,4
21,119378521582000,2.45,10.65,0.42,4
21,119378561530000,-1.76,9.89,2.56,4
21,119378601630000,-0.34,8.47,0.99,4
21,119378641608000,1.95,7.01,1.38,4
21,119378721594000,2.14,7.7,1.76,4
21,119378761511000,1.5,9.28,1.69,4
21,119378801520000,1.5,8.16,1.61,4
21,119378841528000,3.17,8.39,2.07,4
21,119378921545000,3.17,14.44,1.69,4
21,119378961584000,5.05,15.94,-1.57,4
21,119379001471000,-1.18,12.07,0.8,4
21,119379041541000,-4.4,12.83,3.11,4
21,119379081732000,2.91,12.64,0.08,4
21,119379143896000,0.34,5.6,1.8,4
21,119379221533000,-0.19,7.82,3.36,4
21,119379261511000,0.0,4.75,3.49,4
21,119379301855000,-0.53,3.91,4.71,4
21,119379341559000,-0.89,4.14,5.18,4
21,119379421484000,-0.53,9.0,5.67,4
21,119379541327000,-2.68,9.0,5.67,4
21,119379541327000,-2.68,9.0,5.67,4
21,119379541327000,-2.68,9.0,5.67,4
21,119379621436000,-0.89,5.52,2.37,4
21,119379661505000,0.42,8.43,3.26,4
21,119379701483000,1.5,9.38,3.36,4
21,119379741553000,0.84,7.21,1.99,4
21,119379781653000,1.84,7.25,1.18,4
21,119379841406000,0.15,7.78,0.95,4
21,119379921515000,0.19,7.4,1.27,4
21,119379961615000,1.5,8.66,2.91,4
21,119380001685000,4.44,9.51,3.21,4
21,119380041510000,5.01,9.34,3.02,4
21,119380121466000,2.79,12.68,-0.34,4
21,119380161536000,3.34,15.89,-1.99,4
21,119380219366000,-5.22,11.84,1.42,4
21,119380261847000,-1.12,10.31,3.49,4
21,119380301520000,1.42,10.27,2.22,4
21,119380341589000,-0.23,8.54,2.68,4
21,119380421484000,-1.8,5.37,3.26,4
21,119380461523000,-0.46,4.06,3.79,4
21,119380501501000,-0.15,3.49,3.87,4
21,119380541632000,-0.5,2.41,4.75,4
21,119380621466000,-0.99,6.78,8.39,4
21,119380661505000,2.26,11.54,11.26,4
21,119380701514000,-3.68,14.56,8.69,4
21,119380741522000,-3.83,8.77,5.98,4
21,119380821478000,-0.38,6.59,1.46,4
21,119380861517000,0.65,13.25,4.67,4
21,119380901617000,1.46,7.44,3.17,4
21,119380941504000,1.31,5.24,1.12,4
21,119381022101000,0.53,8.66,2.07,4
21,119381061499000,0.8,8.28,1.46,4
21,119381101630000,0.76,8.12,0.95,4
21,119381141547000,1.5,7.63,1.08,4
21,119381221716000,3.68,9.62,2.91,4
21,119381261511000,3.34,11.41,-0.04,4
21,119381301520000,1.08,15.94,-0.08,4
21,119381341467000,3.15,14.52,-0.95,4
21,119381421515000,-1.08,11.99,3.11,4
21,119381461646000,1.08,10.31,-0.57,4
21,119381501501000,-0.42,8.05,-0.89,4
21,119381541693000,-3.34,5.28,1.69,4
21,119381621466000,-0.53,7.12,2.22,4
21,119381661566000,-0.34,6.24,3.98,4
21,119381701544000,0.72,5.56,4.99,4
21,119381741522000,-0.46,5.13,5.48,4
21,119381821478000,1.57,6.55,10.04,4
21,119381861639000,-1.92,10.99,7.86,4
21,119381901495000,-0.93,14.06,6.55,4
21,119381941534000,-1.8,3.41,3.17,4
21,119382021643000,-0.38,11.73,3.49,4
21,119382061499000,-0.5,6.4,2.3,4
21,119382101660000,0.34,6.59,0.99,4
21,119382141547000,2.26,8.92,2.07,4
21,119382221564000,0.99,7.86,1.12,4
21,119382261938000,1.33,8.81,1.46,4
21,119382301489000,1.69,8.05,0.53,4
21,119382341650000,1.76,8.66,0.72,4
21,119382421515000,3.57,10.12,0.57,4
21,119382461523000,1.95,13.02,0.5,4
21,119382502020000,2.45,14.06,-0.38,4
21,119382541571000,1.23,12.57,-1.08,4
21,119382621619000,0.65,12.07,1.14,4
21,119382661505000,1.92,9.38,0.57,4
21,119382701514000,-1.31,8.08,1.8,4
21,119382741827000,-1.57,8.24,1.84,4
21,119382821509000,-1.12,6.24,3.45,4
21,119382863104000,-1.73,6.74,4.1,4
21,119382901495000,-1.08,4.56,4.37,4
21,119382941565000,-0.65,4.48,4.9,4
21,119383021521000,0.15,6.44,8.92,4
21,119383061499000,1.65,8.73,9.49,4
21,119383101508000,-2.41,11.3,5.41,4
21,119383141669000,0.65,13.76,7.01,4
21,119383221686000,0.89,7.16,1.65,4
21,119383261847000,1.08,8.92,2.64,4
21,119383301459000,1.46,7.4,2.3,4
21,119383341528000,1.5,6.05,0.61,4
21,119383421484000,0.53,8.81,1.8,4
21,119383461646000,0.23,9.72,0.84,4
21,119383502661000,1.31,8.24,-0.57,4
21,119383542578000,0.08,8.81,-0.46,4
21,119383622656000,3.36,9.81,0.27,4
21,119383661505000,3.45,11.22,0.0,4
21,119383701514000,2.49,14.14,0.76,4
21,119383741675000,4.18,14.9,-0.69,4
21,119383821509000,-4.06,11.5,0.53,4
21,119383861487000,1.57,13.02,0.57,4
21,119383901495000,-1.04,10.12,1.04,4
21,119383941687000,-1.95,7.55,1.57,4
21,119384021643000,0.53,5.94,2.56,4
21,119384061499000,0.0,5.63,3.17,4
21,119384101477000,0.0,4.56,4.48,4
21,119384141608000,-0.04,4.86,5.09,4
21,119384221564000,-0.76,6.17,9.53,4
21,119384261633000,-0.69,5.24,9.58,4
21,119384311713000,-0.72,13.76,5.43,4
21,119384351508000,-0.5,11.22,5.9,4
21,119384391486000,-0.93,2.98,1.69,4
21,119384475958000,1.33,10.46,3.26,4
21,119384512091000,0.72,6.28,2.45,4
21,119384553809000,2.45,6.44,1.14,4
21,119384601569000,1.23,8.31,1.31,4
21,119384641821000,0.72,8.54,1.08,4
21,119384722052000,1.76,8.58,0.8,4
21,119384761572000,1.5,8.96,0.53,4
21,119384801520000,1.57,8.62,0.23,4
21,119384841803000,3.02,8.69,0.72,4
21,119384921576000,1.14,14.52,-2.07,4
21,119384961707000,1.99,14.52,-1.8,4
21,119385001532000,-0.65,12.87,1.12,4
21,119385041693000,1.46,12.87,1.61,4
21,119385121619000,2.34,6.82,0.27,4
21,119385161627000,-1.04,7.44,0.34,4
21,119385201636000,-1.08,7.5,1.14,4
21,119385241705000,-0.76,8.39,3.41,4
21,119385321692000,1.42,5.94,3.72,4
21,119385361456000,0.15,5.33,3.64,4
21,119385401495000,-0.69,4.63,3.72,4
21,119385441657000,0.08,5.43,4.29,4
21,119385521643000,1.14,5.24,5.9,4
21,119385561560000,4.06,7.27,6.59,4
21,119385601630000,3.98,9.53,4.75,4
21,119385643225000,0.11,11.73,6.74,4
21,119385721472000,1.57,7.59,1.12,4
21,119385761603000,-1.38,17.27,3.21,4
21,119385801520000,0.99,4.86,1.18,4
21,119385841559000,4.33,4.14,-0.84,4
21,119385921545000,-1.12,8.08,0.84,4
21,119385961615000,-0.23,8.05,0.34,4
21,119386002478000,0.08,9.3,1.33,4
21,119386041602000,1.46,8.85,1.08,4
21,119386121466000,-0.95,9.04,0.69,4
21,119386161505000,-1.57,9.15,0.84,4
21,119386201544000,0.65,9.04,0.34,4
21,119386241675000,2.6,9.43,1.5,4
21,119386323523000,6.36,10.12,0.8,4
21,119386361548000,2.18,10.8,-0.08,4
21,119386561316000,1.65,9.11,0.91,4
21,119386561316000,1.65,9.11,0.91,4
21,119386561316000,1.65,9.11,0.91,4
21,119386561316000,1.65,9.11,0.91,4
21,119386601874000,0.69,8.43,2.75,4
21,119386641791000,0.53,8.66,3.11,4
21,119386721503000,-0.76,6.59,2.72,4
21,119386761511000,-0.04,6.66,3.53,4
21,119386801520000,1.14,7.25,4.06,4
21,119386841559000,0.11,6.78,3.98,4
21,119386921576000,-0.53,9.85,5.28,4
21,119386961707000,2.14,11.69,7.7,4
21,119387001501000,3.41,10.8,6.66,4
21,119387041663000,0.8,15.24,0.38,4
21,119387121527000,3.83,4.25,-0.38,4
21,119387161505000,5.28,13.14,1.61,4
21,119387201514000,-2.18,8.39,1.8,4
21,119387241583000,-0.76,8.16,0.19,4
21,119387321661000,1.18,9.11,1.33,4
21,119387361517000,0.95,8.69,1.33,4
21,119387401526000,1.61,8.16,0.84,4
21,119387441595000,1.53,8.62,0.15,4
21,119387521613000,4.02,10.08,1.18,4
21,119387563269000,4.79,12.6,0.8,4
21,119387601569000,4.02,15.98,-0.53,4
21,119387641608000,0.27,14.79,-1.04,4
21,119387721503000,1.8,9.85,0.0,4
21,119387761511000,0.65,9.7,0.8,4
21,119387801672000,-0.5,10.23,1.65,4
21,119387841650000,-1.69,7.01,1.95,4
21,119387921576000,0.72,4.6,2.68,4
21,119387961737000,0.84,5.41,3.95,4
21,119388001837000,-0.15,4.94,5.33,4
21,119388041663000,0.04,3.79,6.85,4
21,119388121497000,1.14,8.01,9.08,4
21,119388161566000,-1.04,12.79,7.93,4
21,119388201514000,-1.18,13.21,7.7,4
21,119388241614000,-0.65,4.86,1.31,4
21,119388321478000,0.23,10.0,3.15,4
21,119388321478000,0.23,10.0,3.15,4
21,119388421515000,1.95,6.28,1.42,4
21,119388461615000,1.65,8.28,1.46,4
21,119388501532000,0.65,8.01,1.04,4
21,119388541510000,0.5,8.54,1.27,4
21,119388621771000,3.57,7.7,2.3,4
21,119388661353000,5.63,9.28,0.95,4
21,119388701331000,3.79,11.65,-0.42,4
21,119388741644000,3.57,16.21,-0.61,4
21,119388821509000,-5.75,9.89,1.65,4
21,119388861609000,0.04,11.5,3.64,4
21,119388901495000,2.79,11.37,2.98,4
21,119388941657000,-0.99,8.69,2.79,4
21,119389021826000,-0.89,5.83,3.06,4
21,119389061499000,-1.14,3.79,3.36,4
21,119389101599000,0.76,5.28,5.05,4
21,119389141821000,0.38,4.82,5.79,4
21,119389221594000,-1.42,3.95,6.28,4
21,119389261511000,-0.04,5.56,7.5,4
21,119389301520000,1.99,7.82,8.43,4
21,119389341620000,-0.27,9.66,7.74,4
21,119389421606000,-0.57,5.48,4.4,4
21,119389461646000,1.42,6.97,1.12,4
21,119389501624000,-1.14,10.31,2.6,4
21,119389541602000,-0.27,7.67,2.75,4
21,119389621558000,2.56,7.89,1.57,4
21,119389661505000,1.42,6.93,1.14,4
21,119389701514000,1.04,8.01,1.08,4
21,119389741705000,1.12,8.08,1.65,4
21,119389821509000,2.03,9.58,1.12,4
21,119389861609000,2.26,8.66,1.5,4
21,119389901495000,3.6,8.31,2.07,4
21,119389983801000,2.07,15.55,-0.76,4
21,119390021490000,1.65,17.05,-1.95,4
21,119390061591000,-5.13,13.59,0.8,4
21,119390101538000,-0.99,11.84,2.68,4
21,119390142249000,3.98,10.57,1.61,4
21,119390221594000,-1.14,7.08,1.57,4
21,119390261481000,-0.65,7.08,2.26,4
21,119390301520000,-1.92,3.72,2.18,4
21,119390371558000,0.38,4.52,5.13,4
21,119390422827000,0.19,3.83,6.09,4
21,119390461523000,0.99,4.9,8.01,4
21,119390501532000,2.37,6.44,9.15,4
21,119390582892000,-1.88,17.69,8.54,4
21,119390622107000,-1.54,6.02,5.48,4
21,119390661505000,0.15,2.6,0.89,4
21,119390702490000,0.0,10.46,3.06,4
21,119390741644000,1.04,10.61,2.11,4
21,119390821509000,1.69,5.9,0.65,4
21,119390861517000,3.02,9.28,1.88,4
21,119390901587000,1.73,8.54,0.53,4
21,119390941504000,1.14,7.93,1.12,4
21,119391021521000,1.92,9.11,1.46,4
21,119391061621000,3.15,8.08,2.79,4
21,119391101508000,4.25,8.58,2.37,4
21,119391141516000,2.83,11.88,-0.15,4
21,119391221594000,0.46,15.75,-1.61,4
21,119391261481000,-2.49,11.18,2.34,4
21,119391301550000,2.11,11.5,3.06,4
21,119391341681000,3.26,10.38,0.8,4
21,119391421667000,-1.69,9.19,2.14,4
21,119391461646000,-2.03,6.13,0.53,4
21,119391501746000,-1.65,6.02,1.57,4
21,119391582465000,0.57,5.09,4.9,4
21,119391621985000,-0.08,5.13,6.4,4
21,119391661505000,-0.23,5.6,7.46,4
21,119391701575000,0.5,4.18,8.69,4
21,119391741522000,0.95,5.28,9.34,4
21,119391821509000,-1.23,13.14,5.86,4
21,119391861639000,-2.07,3.87,2.3,4
21,119391901831000,0.42,6.13,2.18,4
21,119391941565000,1.46,10.04,3.3,4
21,119392023444000,0.61,7.63,0.95,4
21,119392061652000,1.18,7.59,1.5,4
21,119392101508000,0.0,8.08,1.57,4
21,119392141516000,0.69,8.2,1.61,4
21,119392221594000,2.64,8.16,1.33,4
21,119392261511000,3.06,8.54,1.92,4
21,119392301520000,4.25,9.0,1.76,4
21,119392341528000,3.68,12.83,-1.27,4
21,119392421515000,-2.45,15.83,0.5,4
21,119392473090000,-2.72,11.3,1.5,4
21,119392511389000,2.37,11.35,1.31,4
21,119392553717000,3.64,7.67,1.23,4
21,119392592841000,-0.95,7.93,1.65,4
21,119392671515000,-0.34,5.01,3.34,4
21,119392711523000,0.91,5.41,4.37,4
21,119392751624000,0.23,3.87,4.9,4
21,119392791693000,0.15,3.53,5.41,4
21,119392871497000,0.84,5.6,7.7,4
21,119392912054000,2.72,8.31,8.47,4
21,119392951758000,-0.08,12.41,7.46,4
21,119392992255000,-1.61,12.11,6.93,4
21,119393071478000,0.61,9.28,2.72,4
21,119393071478000,0.61,9.28,2.72,4
21,119393171454000,1.61,7.16,2.07,4
21,119393212439000,2.41,8.16,1.92,4
21,119393251715000,2.45,8.12,2.07,4
21,119393291480000,1.04,6.78,0.42,4
21,119393371466000,0.46,8.43,1.12,4
21,119393412115000,1.99,8.96,-0.11,4
21,119393571295000,3.36,15.13,-0.72,4
21,119393571295000,3.36,15.13,-0.72,4
21,119393571295000,3.36,15.13,-0.72,4
21,119393611456000,2.64,14.94,-0.72,4
21,119393651892000,-2.87,12.03,1.14,4
21,119393691504000,-1.42,11.84,4.63,4
21,119393772192000,0.95,7.12,1.08,4
21,119393811926000,-0.5,8.39,3.34,4
21,119393851813000,-0.19,7.55,3.34,4
21,119393891608000,0.08,6.05,2.75,4
21,119393973242000,-0.89,4.14,3.02,4
21,119394011542000,-1.95,4.18,3.02,4
21,119394051672000,-2.34,3.02,3.79,4
21,119394091589000,-0.57,1.8,6.4,4
21,119394171637000,3.41,4.82,11.8,4
21,119394212561000,3.06,6.85,13.63,4
21,119394251654000,3.15,12.41,15.36,4
21,119394291541000,0.34,7.12,10.34,4
21,119394371588000,-0.72,7.44,3.91,4
21,119394411902000,0.42,7.12,3.06,4
21,119394451666000,-0.08,7.27,2.87,4
21,119394494055000,0.57,8.73,2.49,4
21,119394552069000,0.8,7.86,1.65,4
21,119394591467000,0.38,7.97,2.07,4
21,119394674963000,1.5,8.28,0.89,4
21,119394712469000,0.19,7.89,1.08,4
21,119394751501000,-0.34,8.77,1.33,4
21,119394810461000,1.76,9.28,1.92,4
21,119394851477000,2.68,8.54,0.76,4
21,119394891577000,1.04,8.16,0.46,4
21,119394971503000,0.57,8.85,-0.8,4
21,119395011664000,-0.11,9.66,0.19,4
21,119395051550000,-0.15,9.81,0.04,4
21,119395091620000,0.38,9.58,0.46,4
21,119395171545000,3.76,11.26,0.84,4
21,119395211462000,3.98,12.72,0.08,4
21,119395251624000,2.72,11.14,-1.12,4
21,119395291663000,-1.04,7.67,-0.65,4
21,119395371588000,1.27,10.76,0.34,4
21,119395411505000,1.61,10.31,1.12,4
21,119395451697000,0.23,9.38,2.49,4
21,119395493384000,1.27,8.5,2.96,4
21,119395571539000,-0.89,7.67,2.07,4
21,119395611761000,-2.07,5.86,2.34,4
21,119395651678000,-1.61,5.41,3.45,4
21,119395691657000,0.11,6.82,4.82,4
21,119395771490000,2.96,8.01,5.41,4
21,119395811530000,0.57,10.12,6.7,4
21,119395851691000,0.69,11.99,7.97,4
21,119395891547000,0.61,15.13,3.11,4
21,119395972510000,1.33,5.52,1.61,4
21,119396011511000,5.37,10.46,0.69,4
21,119396051672000,0.5,9.0,0.3,4
21,119396091559000,-2.68,8.12,1.99,4
21,119396171515000,0.91,8.16,1.18,4
21,119396211523000,1.95,8.5,1.33,4
21,119396251654000,0.19,9.19,1.53,4
21,119396291663000,-0.69,8.5,1.57,4
21,119396371497000,0.8,8.96,0.57,4
21,119396411536000,1.23,8.2,0.42,4
21,119396451666000,2.11,9.11,0.53,4
21,119396493994000,3.11,11.22,1.42,4
21,119396571509000,4.18,11.69,1.12,4
21,119396612982000,1.23,12.37,-0.84,4
21,119396654700000,-0.76,9.28,-2.64,4
21,119396692145000,-1.69,10.15,0.57,4
21,119396771490000,1.8,12.37,0.61,4
21,119396812170000,-0.61,10.42,2.26,4
21,119396851721000,-0.99,10.19,4.33,4
21,119396891669000,-0.53,9.43,4.33,4
21,119396971625000,-1.54,4.52,3.21,4
21,119397011572000,-2.15,3.15,4.37,4
21,119397051611000,-1.27,3.06,6.85,4
21,119397091467000,2.22,5.52,9.28,4
21,119397171667000,1.5,6.51,10.31,4
21,119397211493000,-2.76,11.88,8.01,4
21,119397251624000,0.46,11.37,7.46,4
21,119397291510000,-3.95,1.12,1.33,4
21,119397371497000,0.19,9.81,4.29,4
21,119397411505000,0.0,6.24,0.99,4
21,119397451727000,1.04,9.19,1.65,4
21,119397494421000,1.95,8.47,2.34,4
21,119397571417000,0.99,7.63,1.65,4
21,119397611517000,1.99,8.77,1.57,4
21,119397652045000,1.73,9.7,1.61,4
21,119397691962000,3.02,9.96,3.15,4
21,119397771490000,3.15,12.57,0.08,4
21,119397811438000,1.23,14.98,-1.27,4
21,119397851691000,-2.96,14.6,1.33,4
21,119397891669000,0.19,10.88,3.87,4
21,119397972571000,0.89,5.52,0.42,4
21,119398011725000,-0.53,7.67,4.75,4
21,119398051672000,-0.11,4.48,3.41,4
21,119398091650000,0.53,4.33,3.79,4
21,119398171515000,-1.57,3.68,5.18,4
21,119398211523000,-0.08,4.44,7.44,4
21,119398251776000,0.04,5.56,8.43,4
21,119398291541000,1.5,8.62,9.77,4
21,119398371588000,-1.61,11.14,6.43,4
21,119398411505000,-0.46,6.78,3.06,4
21,119398451697000,-1.18,6.66,2.18,4
21,119398494025000,1.27,10.76,2.72,4
21,119398571448000,2.45,7.44,1.5,4
21,119398621375000,2.45,7.44,1.5,4
21,119398661658000,1.99,8.39,1.92,4
21,119398701514000,1.92,8.5,2.56,4
21,119398741492000,2.87,8.24,2.45,4
21,119398821509000,2.11,8.12,0.76,4
21,119398861639000,3.21,8.77,0.91,4
21,119398901587000,4.48,11.22,-1.27,4
21,119398941534000,3.17,14.44,-1.92,4
21,119399021490000,-3.76,11.14,0.72,4
21,119399061469000,-0.8,12.45,0.95,4
21,119399101477000,2.11,11.88,0.61,4
21,119399141486000,0.19,9.3,1.14,4
21,119399221686000,-1.54,7.12,1.65,4
21,119399261511000,-1.18,5.71,3.64,4
21,119399261511000,-1.18,5.71,3.64,4
21,119399371558000,1.61,3.95,4.67,4
21,119399411505000,0.08,3.21,5.33,4
21,119399451605000,-0.31,3.17,6.36,4
21,119399491522000,0.19,5.24,8.12,4
21,119399571448000,-0.89,11.14,8.35,4
21,119399611426000,-1.69,16.25,8.5,4
21,119399651556000,-0.15,5.75,5.48,4
21,119399691595000,0.23,3.21,0.95,4
21,119399771613000,0.15,9.92,2.6,4
21,119399811530000,-0.08,7.5,1.27,4
21,119399851782000,1.84,6.97,1.04,4
21,119399891486000,1.61,7.74,0.8,4
21,119399971838000,0.69,8.58,0.91,4
21,119400011481000,1.33,8.58,0.72,4
21,119400051672000,2.53,8.24,1.23,4
21,119400091528000,4.82,9.23,0.91,4
21,119400171637000,1.8,16.09,-0.69,4
21,119400212134000,-0.15,15.89,-1.12,4
21,119400251624000,-4.06,11.41,1.84,4
21,119400291602000,1.69,12.64,1.73,4
21,119400371741000,-2.18,6.97,1.23,4
21,119400412146000,-0.93,6.4,1.04,4
21,119400571356000,-0.61,3.79,5.79,4
21,119400571356000,-0.61,3.79,5.79,4
21,119400571356000,-0.61,3.79,5.79,4
21,119400611456000,-0.04,4.63,7.78,4
21,119400668677000,1.12,6.93,9.47,4
21,119400706061000,-2.49,9.28,6.28,4
21,119400741858000,-2.07,16.28,6.63,4
21,119400821509000,0.84,5.09,0.0,4
21,119400861517000,1.61,11.8,1.27,4
21,119400901495000,1.5,9.3,2.37,4
21,119400941504000,0.8,5.48,0.61,4
21,119401021613000,0.69,8.5,0.8,4
21,119401061499000,1.31,7.7,1.73,4
21,119401101508000,2.11,8.2,2.11,4
21,119401141516000,4.4,7.89,2.72,4
21,119401221564000,3.06,13.38,0.99,4
21,119401261511000,0.34,17.73,0.08,4
21,119401301520000,-0.34,14.67,0.19,4
21,119401341498000,-2.83,11.6,2.96,4
21,119401421515000,0.57,8.77,1.14,4
21,119401461676000,-2.41,6.13,2.22,4
21,119401502142000,-1.38,5.83,3.83,4
21,119401541663000,-0.27,6.05,2.53,4
21,119401621466000,-0.23,3.45,4.4,4
21,119401661414000,-0.04,3.17,6.89,4
21,119401701514000,0.42,6.85,9.47,4
21,119401741644000,-1.18,10.15,8.27,4
21,119401821631000,-1.57,5.83,4.48,4
21,119401861517000,0.34,1.88,0.15,4
21,119401901495000,0.8,10.95,1.42,4
21,119401941504000,-0.38,10.5,2.79,4
21,119402021613000,1.33,6.97,0.3,4
21,119402061499000,1.8,10.42,1.57,4
21,119402101508000,0.91,7.12,1.99,4
21,119402141516000,2.83,8.62,1.08,4
21,119402221564000,4.29,11.11,0.34,4
21,119402261542000,0.53,15.28,0.0,4
21,119402301520000,1.23,14.41,0.3,4
21,119402341559000,-0.95,12.45,0.23,4
21,119402421515000,3.02,9.34,2.68,4
21,119402461523000,1.57,8.12,0.61,4
21,119402503699000,-1.99,6.74,1.14,4
21,119402542303000,-1.76,7.82,3.64,4
21,119402621497000,0.27,4.75,4.06,4
21,119402661566000,-0.5,4.67,5.48,4
21,119402701788000,-0.38,5.48,6.21,4
21,119402741553000,1.23,7.25,8.54,4
21,119402821509000,-4.02,11.45,4.9,4
21,119402861548000,-0.11,10.69,5.52,4
21,119402901617000,0.61,5.01,2.34,4
21,119402941534000,2.18,10.27,2.96,4
21,119403021552000,0.5,5.28,1.31,4
21,119403061499000,1.04,6.02,0.3,4
21,119403101508000,1.14,9.11,0.91,4
21,119403141516000,0.23,8.54,0.15,4
21,119403221564000,0.69,8.28,1.61,4
21,119403261481000,4.86,9.7,2.56,4
21,119403301611000,4.99,11.07,0.99,4
21,119403341437000,1.8,14.56,0.11,4
21,119403421606000,-3.95,12.15,0.99,4
21,119403461676000,0.04,11.84,3.02,4
21,119403504401000,7.31,7.12,-1.12,4
21,119403541632000,0.57,8.47,-0.61,4
21,119403621619000,-1.8,9.15,3.36,4
21,119403661566000,-0.76,6.66,2.3,4
21,119403701819000,-0.95,5.33,2.87,4
21,119403741522000,-0.72,4.82,3.26,4
21,119403821631000,-0.31,3.79,3.53,4
21,119403861517000,0.23,5.56,7.65,4
21,119403901617000,1.76,12.26,5.71,4
21,119403941565000,-1.61,18.96,3.3,4
21,119404021521000,2.45,3.72,-0.08,4
21,119404061560000,4.63,9.0,-0.31,4
21,119404101538000,1.08,9.81,2.03,4
21,119404141608000,-1.14,8.96,2.18,4
21,119404221564000,0.72,7.78,0.46,4
21,119404261511000,1.84,8.54,0.72,4
21,119404301672000,1.04,9.11,1.12,4
21,119404341345000,0.91,9.47,1.8,4
21,119404421881000,1.33,7.31,0.11,4
21,119404461523000,0.61,10.69,0.99,4
21,119404503973000,-0.95,11.3,1.12,4
21,119404541602000,3.57,10.8,0.99,4
21,119404621619000,0.89,10.61,-0.34,4
21,119404664557000,0.19,8.69,-0.76,4
21,119404701544000,0.38,13.59,5.33,4
21,119404743445000,1.73,10.5,0.61,4
21,119404821600000,0.65,7.16,1.14,4
21,119404861517000,-0.46,8.62,1.23,4
21,119404922736000,-4.4,5.86,1.99,4
21,119404961646000,-2.53,4.86,3.11,4
21,119405024359000,1.18,6.97,5.18,4
21,119405062170000,3.79,10.65,7.46,4
21,119405101477000,6.09,11.03,8.92,4
21,119405141516000,2.18,6.78,5.86,4
21,119405221564000,-4.1,5.09,4.94,4
21,119405261511000,2.14,6.24,-0.72,4
21,119405301520000,3.95,14.06,2.72,4
21,119405341620000,-1.08,7.06,2.14,4
21,119405421515000,0.8,8.62,1.12,4
21,119405461646000,0.8,7.21,1.18,4
21,119405506293000,0.61,7.97,1.76,4
21,119405582709000,2.03,8.69,1.73,4
21,119405622290000,2.91,11.73,3.02,4
21,119405661719000,5.18,11.5,1.61,4
21,119405701544000,3.98,14.48,0.19,4
21,119405741522000,-0.72,10.46,-0.93,4
21,119405821509000,0.84,15.36,4.06,4
21,119405861639000,2.41,12.57,0.76,4
21,119405901465000,-0.8,8.5,2.72,4
21,119405941626000,-1.95,6.66,2.91,4
21,119406021826000,-2.45,3.3,6.05,4
21,119406061499000,-0.19,3.53,7.78,4
21,119406101630000,2.91,4.9,8.43,4
21,119406141486000,1.76,7.86,9.77,4
21,119406221564000,-2.15,4.9,3.41,4
21,119406261633000,-1.76,5.28,-0.95,4
21,119406301520000,-1.04,11.99,3.15,4
21,119406341437000,-0.5,10.0,2.79,4
21,119406421515000,2.72,6.85,2.18,4
21,119406461523000,1.84,8.66,1.95,4
21,119406504706000,0.84,7.97,2.22,4
21,119406541541000,1.84,8.43,1.8,4
21,119406621497000,2.68,7.89,2.72,4
21,119406663092000,3.83,11.96,2.45,4
21,119406701483000,1.5,14.48,0.38,4
21,119406741492000,3.41,13.18,1.27,4
21,119406821509000,0.23,12.76,1.84,4
21,119406861609000,1.69,11.73,2.41,4
21,119406901495000,-1.27,8.05,1.14,4
21,119406942297000,-0.72,6.93,1.99,4
21,119407021552000,-0.5,4.14,2.72,4
21,119407061499000,-0.15,4.94,4.67,4
21,119407101538000,-0.15,5.22,5.52,4
21,119407141547000,0.72,6.13,8.2,4
21,119407221686000,-0.38,8.05,4.71,4
21,119407261511000,-1.18,17.35,8.39,4
21,119407301520000,-0.95,0.11,4.21,4
21,119407341498000,1.12,1.57,0.89,4
21,119407421515000,-0.04,6.05,0.61,4
21,119407541296000,1.46,7.7,2.11,4
21,119407541296000,1.46,7.7,2.11,4
21,119407541296000,1.46,7.7,2.11,4
21,119407621588000,1.5,8.96,0.84,4
21,119407661841000,2.91,8.24,0.89,4
21,119407701544000,4.56,10.12,1.12,4
21,119407741644000,3.64,13.99,0.84,4
21,119407822150000,-3.11,12.87,0.34,4
21,119407861517000,-2.37,11.3,2.98,4
21,119407901587000,2.68,11.8,2.91,4
21,119407942206000,0.99,8.69,1.42,4
21,119408021582000,-1.57,6.63,3.79,4
21,119408061499000,-0.61,3.87,3.06,4
21,119408101538000,0.53,4.33,4.1,4
21,119408141486000,0.61,3.21,4.67,4
21,119408221686000,-1.04,6.05,9.0,4
21,119408261511000,0.65,8.73,11.37,4
21,119408301550000,-0.57,9.7,7.65,4
21,119408341620000,-0.15,13.95,8.2,4
21,119408421515000,-1.88,5.94,0.95,4
21,119408461554000,-0.5,10.99,2.68,4
21,119408501501000,0.95,8.08,2.11,4
21,119408541632000,0.95,5.28,1.04,4
21,119408621497000,1.65,8.73,1.42,4
21,119408661505000,1.53,7.7,0.84,4
21,119408701605000,0.91,9.08,1.08,4
21,119408741492000,1.53,8.5,1.31,4
21,119408821600000,3.6,8.92,0.84,4
21,119408861517000,2.87,11.92,0.0,4
21,119408901495000,4.14,16.17,-1.23,4
21,119408942358000,-2.34,18.85,0.65,4
21,119409021704000,1.88,12.37,1.04,4
21,119409061499000,1.31,7.74,0.99,4
21,119409101660000,-1.14,6.74,1.53,4
21,119409141547000,0.23,7.35,3.34,4
21,119409221686000,1.27,4.75,3.83,4
21,119409261511000,0.65,3.79,3.98,4
21,119409301520000,-0.69,2.76,5.52,4
21,119409341467000,0.19,4.29,7.35,4
21,119409381628000,0.34,9.0,10.08,4
21,119409471442000,-1.5,13.67,7.78,4
21,119409511877000,-0.69,3.79,2.03,4
21,119409553839000,0.08,6.21,1.38,4
21,119409591498000,0.99,12.45,3.21,4
21,119409671545000,1.61,5.6,0.89,4
21,119409711615000,1.42,7.74,1.23,4
21,119409751624000,0.42,7.89,1.53,4
21,119409791480000,1.61,8.35,1.73,4
21,119409871466000,3.79,8.85,1.73,4
21,119409911505000,3.91,9.77,0.99,4
21,119409951483000,1.84,14.06,-0.65,4
21,119409991522000,1.12,15.66,0.23,4
21,119410071478000,-3.79,12.53,1.92,4
21,119410111456000,0.5,9.92,2.22,4
21,119410151434000,1.84,7.93,2.07,4
21,119410191504000,-1.5,6.74,1.61,4
21,119410271521000,0.15,4.71,3.36,4
21,119410312262000,0.3,4.71,3.72,4
21,119410351538000,-0.19,3.83,4.71,4
21,119410391699000,-0.42,2.3,6.47,4
21,119410471442000,2.07,8.85,10.46,4
21,119410511542000,-3.38,12.22,9.72,4
21,119410554511000,-0.76,12.91,7.55,4
21,119410591864000,-0.84,3.02,3.17,4
21,119410671576000,1.65,14.06,3.17,4
21,119410711523000,0.5,7.7,2.34,4
21,119410751654000,1.12,4.99,0.23,4
21,119410791571000,0.95,8.16,1.23,4
21,119410871527000,1.38,6.93,0.89,4
21,119410911566000,2.22,7.63,1.23,4
21,119410971472000,4.21,9.3,2.83,4
21,119411016760000,3.34,13.06,1.31,4
21,119411060767000,0.65,16.25,0.3,4
21,119411102332000,0.99,12.64,-0.11,4
21,119411141394000,-0.61,10.99,1.38,4
21,119411221411000,-0.27,10.99,0.27,4
21,119411261511000,-1.65,7.27,-0.04,4
21,119411301489000,-0.8,7.31,1.46,4
21,119411351538000,-0.04,6.93,2.64,4
21,119411391394000,-0.76,4.6,3.34,4
21,119411471442000,-0.23,4.4,6.13,4
21,119411511572000,0.34,4.02,7.86,4
21,119411551459000,0.38,5.13,9.62,4
21,119411591345000,-0.65,7.06,7.97,4
21,119411671545000,-1.04,7.08,6.13,4
21,119411711493000,0.65,3.21,2.41,4
21,119411751501000,0.76,9.92,2.72,4
21,119411791541000,-0.57,10.8,3.53,4
21,119411871588000,0.8,6.85,1.33,4
21,119411911505000,0.72,9.0,1.42,4
21,119411951575000,3.02,8.35,2.14,4
21,119411992621000,2.03,8.89,1.31,4
21,119412071631000,2.91,9.7,1.92,4
21,119412111578000,4.44,10.38,1.88,4
21,119412151617000,0.84,12.6,-0.53,4
21,119412191687000,1.23,13.21,-1.5,4
21,119412271643000,1.08,10.69,2.41,4
21,119412311621000,3.36,8.28,0.46,4
21,119412351477000,-0.42,7.67,1.5,4
21,119412391547000,-2.26,7.63,1.33,4
21,119412471533000,-1.54,8.96,3.83,4
21,119412511511000,-0.46,6.63,2.72,4
21,119412601874000,0.34,4.52,3.3,4
21,119412601874000,0.34,4.52,3.3,4
21,119412642188000,0.38,4.67,3.79,4
21,119412721625000,1.12,6.63,4.75,4
21,119412761481000,0.61,11.03,6.17,4
21,119412801520000,-1.42,13.91,5.48,4
21,119412841528000,3.17,12.6,7.08,4
21,119412921545000,1.18,11.26,0.5,4
21,119412961554000,-0.42,9.92,3.79,4
21,119413001501000,2.56,5.63,0.04,4
21,119413041510000,1.73,9.89,2.68,4
21,119413121527000,1.12,8.12,1.53,4
21,119413161505000,1.53,9.11,1.23,4
21,119413201636000,0.53,8.66,2.07,4
21,119413241522000,1.23,8.62,1.08,4
21,119413321478000,1.46,7.93,1.31,4
21,119413361517000,2.45,8.5,0.27,4
21,119413401526000,1.69,8.96,0.84,4
21,119413441626000,0.08,10.76,1.08,4
21,119413521490000,2.98,13.95,-0.84,4
21,119413561530000,-0.27,11.03,-0.76,4
21,119413601599000,-0.76,8.08,-1.14,4
21,119413641730000,-0.23,11.69,4.4,4
21,119413721472000,1.76,8.16,1.8,4
21,119413761511000,0.8,7.08,2.34,4
