user-id,timestamp,accX,accY,accZ,ActivityEncoded
17,35024452375000,2.98,8.24,1.31,5
17,35024502332000,3.34,11.37,-1.73,5
17,35024552289000,3.34,12.91,0.95,5
17,35024602338000,0.89,14.98,-0.5,5
17,35024652326000,-0.27,11.54,-3.72,5
17,35024702344000,1.04,9.08,-2.53,5
17,35024752332000,1.69,8.73,-2.91,5
17,35024802320000,0.04,10.23,-1.18,5
17,35024852338000,-0.3,8.39,-1.04,5
17,35024902326000,0.8,5.83,-0.19,5
17,35024952344000,2.87,7.78,-0.53,5
17,35025002332000,3.21,9.51,0.61,5
17,35025052320000,2.91,10.34,0.19,5
17,35025102338000,3.68,9.66,0.99,5
17,35025152326000,3.26,11.69,-0.84,5
17,35025202344000,2.76,14.21,-5.09,5
17,35025252332000,-1.33,11.73,-3.64,5
17,35025302320000,-0.04,11.14,-0.99,5
17,35025352338000,4.21,10.53,-2.37,5
17,35025402357000,3.64,8.54,-2.03,5
17,35025452344000,0.04,5.37,-0.42,5
17,35025502332000,0.72,5.79,0.72,5
17,35025552320000,3.17,7.93,1.04,5
17,35025602338000,3.15,10.38,-0.91,5
17,35025652326000,3.02,12.3,1.14,5
17,35025702344000,1.31,15.51,-0.27,5
17,35025752332000,1.42,13.91,-1.42,5
17,35025802320000,0.72,7.44,-3.17,5
17,35025852338000,1.99,7.74,-3.76,5
17,35025902326000,0.84,11.11,-1.08,5
17,35025952344000,0.99,11.5,-0.91,5
17,35026002912000,0.46,5.43,-0.8,5
17,35026052320000,1.65,4.86,0.15,5
17,35026102338000,3.83,8.69,0.69,5
17,35026152326000,3.21,9.81,-0.19,5
17,35026202344000,4.1,9.28,0.53,5
17,35026252302000,4.29,11.26,0.53,5
17,35026302320000,3.26,16.17,-3.64,5
17,35026352338000,-0.15,13.02,-5.2,5
17,35026402357000,-2.41,9.43,-1.5,5
17,35026452344000,1.54,10.61,-0.65,5
17,35026502332000,5.09,10.5,-2.68,5
17,35026552320000,3.11,6.4,-1.12,5
17,35026602338000,0.93,5.71,0.04,5
17,35026652326000,1.69,6.7,1.8,5
17,35026702344000,2.15,9.34,0.34,5
17,35026752332000,3.3,11.45,-0.5,5
17,35026802320000,1.38,15.47,0.69,5
17,35026852338000,3.38,13.06,0.42,5
17,35026902326000,0.61,9.66,-3.64,5
17,35026952344000,1.65,7.89,-2.75,5
17,35027002332000,1.92,8.5,-1.65,5
17,35027062299000,1.65,11.65,-0.95,5
17,35027112287000,0.31,7.4,-0.53,5
17,35027162336000,1.23,5.6,0.08,5
17,35027212324000,3.11,8.58,0.23,5
17,35027262342000,3.45,9.47,-0.15,5
17,35027312330000,3.6,9.43,0.15,5
17,35027362348000,3.76,10.61,1.57,5
17,35027412336000,3.87,14.06,-1.84,5
17,35027462324000,1.27,12.83,-4.79,5
17,35027512342000,-1.38,10.88,-2.07,5
17,35027562330000,2.6,9.19,-1.04,5
17,35027612348000,3.49,10.61,-1.92,5
17,35027662336000,2.22,7.27,-0.5,5
17,35027712324000,1.38,6.55,-0.15,5
17,35027762342000,3.02,6.82,0.57,5
17,35027812330000,3.6,8.66,1.92,5
17,35027862348000,2.6,10.38,-0.8,5
17,35027912336000,2.64,11.45,1.12,5
17,35027962324000,2.79,14.25,0.99,5
17,35028012250000,2.49,13.76,-1.92,5
17,35028062330000,0.23,9.77,-3.11,5
17,35028112348000,1.23,6.85,-2.6,5
17,35028162336000,1.61,8.43,-1.38,5
17,35028212324000,0.89,10.95,-0.89,5
17,35028262342000,0.72,8.08,-0.3,5
17,35028312330000,2.53,6.47,-0.65,5
17,35028362348000,3.45,8.08,-0.3,5
17,35028412336000,2.98,9.0,0.27,5
17,35028462354000,3.06,10.27,0.69,5
17,35028512342000,4.29,11.75,1.04,5
17,35028562330000,4.02,13.82,-2.64,5
17,35028612348000,1.31,11.35,-4.52,5
17,35028662336000,-1.57,11.07,-2.03,5
17,35028712324000,1.8,10.88,-0.72,5
17,35028762372000,4.56,10.08,-2.3,5
17,35028812330000,2.72,5.63,-1.38,5
17,35028862348000,1.5,4.86,0.08,5
17,35028912336000,2.15,7.46,1.57,5
17,35028962324000,3.45,10.34,0.65,5
17,35029012342000,4.14,10.84,-1.31,5
17,35029062330000,1.73,12.3,0.72,5
17,35029112348000,2.87,17.35,0.19,5
17,35029162336000,1.46,10.19,-3.15,5
17,35029212324000,1.18,6.66,-2.6,5
17,35029262342000,1.33,7.44,-2.34,5
17,35029312330000,1.84,11.92,-0.61,5
17,35029362348000,1.08,9.43,-0.95,5
17,35029412336000,1.27,5.63,-0.08,5
17,35029462324000,2.87,6.97,0.11,5
17,35029512342000,3.53,8.66,0.53,5
17,35029562330000,3.17,10.19,-0.11,5
17,35029612348000,4.71,11.56,0.69,5
17,35029672346000,4.06,13.1,-0.61,5
17,35029722211000,2.07,12.91,-4.75,5
17,35029772321000,-1.08,10.5,-1.88,5
17,35029822278000,1.54,8.39,-1.12,5
17,35029872297000,3.53,10.73,-0.72,5
17,35029922346000,3.72,7.7,-1.18,5
17,35029972303000,2.3,5.71,0.08,5
17,35030022291000,2.6,6.7,1.88,5
17,35030072309000,3.26,9.11,1.73,5
17,35030122327000,3.21,9.81,-1.23,5
17,35030172315000,2.45,12.37,1.65,5
17,35030222303000,3.11,16.25,0.04,5
17,35030272291000,1.33,10.42,-3.17,5
17,35030322309000,2.03,7.4,-2.22,5
17,35030372266000,2.03,8.58,-2.53,5
17,35030422315000,1.5,11.73,-0.53,5
17,35030472303000,0.46,8.69,-0.69,5
17,35030522321000,1.12,5.18,0.0,5
17,35030572309000,3.17,7.46,0.46,5
17,35030622297000,4.48,9.3,0.27,5
17,35030672315000,3.17,9.92,-0.11,5
17,35030722303000,3.11,9.85,1.65,5
17,35030772291000,3.38,12.72,0.04,5
17,35030822309000,3.49,13.72,-3.87,5
17,35030872297000,0.95,10.42,-4.63,5
17,35030922315000,-0.34,10.53,-2.11,5
17,35030972303000,3.34,11.5,-0.42,5
17,35031022291000,3.99,8.69,-2.3,5
17,35031072309000,1.73,5.09,-0.89,5
17,35031122297000,1.08,6.44,0.84,5
17,35031172315000,3.68,8.58,1.54,5
17,35031222272000,3.68,10.38,-0.38,5
17,35031272260000,3.53,10.53,1.18,5
17,35031322309000,2.22,12.03,1.23,5
17,35031372297000,2.41,13.53,-2.14,5
17,35031422315000,0.11,9.34,-3.57,5
17,35031472303000,3.34,10.42,-2.07,5
17,35031522321000,2.45,9.47,-1.08,5
17,35031572309000,0.15,9.72,-0.89,5
17,35031622297000,0.19,6.74,-0.08,5
17,35031672315000,2.87,6.32,0.53,5
17,35031722303000,5.13,9.0,0.11,5
17,35031772291000,3.64,9.58,0.69,5
17,35031822309000,2.56,8.54,0.89,5
17,35031872297000,4.4,11.69,1.88,5
17,35031922315000,5.24,13.21,-2.37,5
17,35031972333000,2.18,10.8,-4.44,5
17,35032022291000,-0.61,11.35,-1.14,5
17,35032072309000,2.98,11.22,-0.42,5
17,35032122297000,5.33,9.72,-1.5,5
17,35032172315000,3.02,6.21,-1.69,5
17,35032222303000,0.46,5.71,0.61,5
17,35032272687000,2.83,7.89,1.8,5
17,35032322339000,3.21,9.04,0.8,5
17,35032372297000,4.21,9.11,0.11,5
17,35032422315000,2.72,13.33,1.46,5
17,35032472303000,3.41,17.54,-0.61,5
17,35032522291000,1.14,9.62,-3.34,5
17,35032572309000,1.65,5.43,-2.41,5
17,35032622297000,1.04,8.28,-0.95,5
17,35032672315000,2.91,13.21,-0.38,5
17,35032722303000,2.03,8.5,-0.95,5
17,35032772291000,1.31,4.82,0.38,5
17,35032822309000,2.56,7.89,0.8,5
17,35032872297000,4.14,10.42,-0.19,5
17,35032922315000,3.45,10.19,0.31,5
17,35032972303000,4.33,9.51,1.95,5
17,35033022291000,4.4,11.07,-0.38,5
17,35033072309000,2.68,11.54,-3.15,5
17,35033122297000,0.08,10.12,-1.76,5
17,35033172315000,1.33,12.22,0.04,5
17,35033222303000,5.09,10.57,-1.33,5
17,35033272291000,4.29,7.86,-1.76,5
17,35033322339000,0.8,6.47,-0.19,5
17,35033372297000,0.89,7.55,1.27,5
17,35033422315000,2.68,8.58,0.93,5
17,35033472333000,3.95,8.96,0.53,5
17,35033522291000,4.56,9.77,-0.19,5
17,35033572309000,3.34,12.45,1.14,5
17,35033622297000,2.45,13.44,-0.11,5
17,35033672315000,0.31,9.38,-3.17,5
17,35033722303000,2.03,9.62,-1.65,5
17,35033772321000,3.57,10.15,-1.04,5
17,35033822309000,2.6,10.76,-0.53,5
17,35033872297000,1.18,7.01,-0.34,5
17,35033922315000,1.65,5.79,-0.11,5
17,35033972303000,2.87,9.0,0.93,5
17,35034022291000,4.29,9.96,-0.19,5
17,35034072309000,2.96,8.96,0.65,5
17,35034122297000,4.25,9.23,1.8,5
17,35034172315000,5.98,12.91,0.08,5
17,35034222303000,3.91,11.96,-2.53,5
17,35034272291000,-0.5,10.04,-3.21,5
17,35034322309000,-1.27,10.31,-0.8,5
17,35034372297000,2.26,11.56,-0.04,5
17,35034422315000,4.86,9.72,-1.8,5
17,35034472303000,2.98,6.28,-0.3,5
17,35034522291000,1.69,6.02,1.61,5
17,35034572309000,2.37,7.86,2.34,5
17,35034622297000,3.72,8.62,0.04,5
17,35034672315000,3.95,11.3,1.04,5
17,35034672315000,3.95,11.3,1.04,5
17,35034742261000,1.8,15.7,0.99,5
17,35034792310000,2.49,11.54,-1.95,5
17,35034842267000,0.84,7.25,-2.75,5
17,35034902296000,2.3,7.12,-1.57,5
17,35034952344000,2.6,12.49,-0.53,5
17,35035002332000,1.99,10.19,-0.72,5
17,35035052320000,0.5,5.33,0.11,5
17,35035102338000,1.88,6.63,0.46,5
17,35035152326000,4.06,8.92,0.31,5
17,35035202344000,3.76,9.19,-0.27,5
17,35035252332000,3.83,9.04,0.93,5
17,35035302320000,4.67,10.69,1.42,5
17,35035352338000,3.99,14.33,-2.18,5
17,35035402326000,1.14,12.49,-3.91,5
17,35035452344000,-1.18,10.12,-1.88,5
17,35035502332000,1.88,9.92,0.42,5
17,35035552320000,4.4,9.81,-2.26,5
17,35035602338000,3.38,6.97,-0.89,5
17,35035652326000,0.89,6.13,0.19,5
17,35035702344000,1.73,7.7,1.88,5
17,35035752332000,3.87,9.85,0.8,5
17,35035802473000,3.91,9.51,-0.34,5
17,35035852338000,3.38,12.53,3.3,5
17,35035902326000,2.41,12.6,-0.91,5
17,35035952344000,0.72,11.73,-2.64,5
17,35036002515000,2.76,9.38,-1.95,5
17,35036052320000,4.21,8.69,-1.76,5
17,35036102338000,2.07,9.38,-0.91,5
17,35036152326000,0.08,8.5,-0.04,5
17,35036202344000,1.38,6.78,-0.34,5
17,35036252332000,3.06,8.16,0.61,5
17,35036302320000,4.44,9.66,0.19,5
17,35036352308000,3.34,8.69,0.69,5
17,35036402326000,5.01,9.0,1.27,5
17,35036452344000,5.79,13.21,-0.38,5
17,35036502332000,3.21,12.95,-2.53,5
17,35036552320000,-0.84,11.26,-1.8,5
17,35036602338000,0.95,9.08,-1.31,5
17,35036652357000,3.95,10.5,-1.04,5
17,35036702344000,3.45,8.54,-1.18,5
17,35036752332000,1.73,6.05,-0.34,5
17,35036803083000,2.15,6.82,1.14,5
17,35036852338000,2.96,8.89,1.5,5
17,35036902326000,3.68,9.19,0.08,5
17,35036952344000,3.38,11.03,1.33,5
17,35037002332000,2.64,13.21,0.72,5
17,35037052350000,2.76,13.8,-0.84,5
17,35037102399000,0.5,9.23,-2.49,5
17,35037102399000,0.5,9.23,-2.49,5
17,35037212354000,3.53,8.35,-1.69,5
17,35037262586000,1.99,11.07,-0.08,5
17,35037312269000,0.65,7.01,-0.27,5
17,35037362287000,1.95,5.83,-0.15,5
17,35037422346000,3.72,9.3,0.46,5
17,35037472242000,3.38,9.81,0.46,5
17,35037522352000,3.45,9.38,1.14,5
17,35037572309000,4.99,9.96,1.23,5
17,35037622297000,4.94,12.76,-1.76,5
17,35037672315000,1.54,11.5,-3.83,5
17,35037722303000,-0.42,11.96,-0.76,5
17,35037772321000,2.15,10.19,-0.57,5
17,35037822309000,4.44,9.08,-1.84,5
17,35037872297000,2.64,6.7,-1.12,5
17,35037922315000,0.95,6.4,0.65,5
17,35037972333000,2.53,8.24,1.61,5
17,35038022291000,3.64,9.72,1.27,5
17,35038072370000,3.91,9.3,-0.15,5
17,35038122297000,4.52,10.34,1.84,5
17,35038172315000,3.34,11.73,0.95,5
17,35038222333000,1.73,12.6,-1.88,5
17,35038272291000,-0.53,10.0,-1.65,5
17,35038322339000,3.11,8.43,-2.07,5
17,35038372297000,3.06,9.89,-1.31,5
17,35038422315000,1.73,10.88,-0.08,5
17,35038472303000,0.76,7.16,-0.46,5
17,35038522291000,1.99,6.51,-0.19,5
17,35038572309000,3.6,9.3,0.38,5
17,35038622297000,3.41,9.51,0.0,5
17,35038672346000,2.98,9.47,0.95,5
17,35038722303000,4.82,10.46,0.46,5
17,35038772291000,4.33,12.95,-1.8,5
17,35038822309000,1.88,12.72,-2.72,5
17,35038872297000,-0.76,8.43,-1.12,5
17,35038922376000,2.07,9.43,-0.72,5
17,35038972303000,4.21,11.03,-1.18,5
17,35039022291000,2.68,8.43,-0.91,5
17,35039072309000,1.61,6.63,0.15,5
17,35039122297000,2.34,7.59,1.61,5
17,35039172315000,2.72,9.23,1.38,5
17,35039222303000,3.68,8.77,-0.69,5
17,35039272291000,2.76,11.56,1.04,5
17,35039322309000,3.11,15.85,0.69,5
17,35039372297000,2.11,10.23,-2.37,5
17,35039422315000,1.57,6.55,-2.6,5
17,35039472333000,2.41,8.96,-1.95,5
17,35039522291000,2.37,13.02,-0.27,5
17,35039572309000,1.08,9.23,-1.23,5
17,35039622388000,0.76,5.52,0.46,5
17,35039672315000,2.79,7.16,0.08,5
17,35039722303000,4.25,8.96,0.19,5
17,35039772291000,3.26,10.27,0.23,5
17,35039822309000,2.53,9.47,0.57,5
17,35039872297000,4.21,9.7,1.33,5
17,35039922315000,5.56,13.4,-1.8,5
17,35039972333000,2.11,11.5,-3.26,5
17,35040022291000,-1.14,10.42,-1.38,5
17,35040072309000,1.27,10.46,-0.15,5
17,35040122327000,5.22,10.88,-1.69,5
17,35040172315000,3.3,7.5,-0.99,5
17,35040222303000,0.99,6.28,0.46,5
17,35040272291000,2.22,7.25,1.69,5
17,35040272291000,2.22,7.25,1.69,5
17,35040332380000,3.21,9.47,1.08,5
17,35040382337000,3.06,8.85,-0.5,5
17,35040432355000,3.26,11.35,2.91,5
17,35040482343000,3.26,12.6,0.27,5
17,35040532453000,2.15,12.3,-2.22,5
17,35040582349000,1.42,9.34,-1.95,5
17,35040632642000,3.45,8.69,-2.3,5
17,35040682325000,2.41,10.53,-1.18,5
17,35040732801000,0.61,9.51,-0.53,5
17,35040782422000,0.93,6.74,0.08,5
17,35040832380000,3.17,7.44,0.11,5
17,35040882612000,4.6,9.19,0.65,5
17,35040932386000,3.83,9.72,0.42,5
17,35040982831000,2.91,9.0,0.95,5
17,35041032422000,4.44,9.28,1.65,5
17,35041082349000,5.18,11.54,0.11,5
17,35041132551000,3.95,11.65,-2.91,5
17,35041182325000,0.5,10.76,-2.45,5
17,35041232770000,0.89,10.99,-0.04,5
17,35041282361000,3.99,10.46,-0.89,5
17,35041332349000,4.06,8.08,-1.04,5
17,35041382459000,2.3,6.09,0.11,5
17,35041432325000,2.53,7.21,1.23,5
17,35041482679000,3.17,8.81,1.33,5
17,35041532331000,2.83,9.15,1.27,5
17,35041582349000,3.11,9.11,0.76,5
17,35041632368000,3.6,11.6,1.8,5
17,35041682355000,4.25,15.66,-0.89,5
17,35041732465000,1.18,10.34,-2.22,5
17,35041782331000,1.18,6.55,-1.53,5
17,35041832532000,2.64,8.92,-1.8,5
17,35041882337000,2.76,12.79,0.15,5
17,35041932783000,1.57,8.31,-0.65,5
17,35041982374000,0.99,5.28,0.46,5
17,35042032331000,2.64,7.89,1.04,5
17,35042082502000,4.29,9.15,0.19,5
17,35042132337000,3.41,9.51,0.04,5
17,35042182691000,3.21,9.04,1.12,5
17,35042232343000,3.6,10.61,1.27,5
17,35042282331000,5.24,13.48,-0.65,5
17,35042332380000,3.53,12.07,-3.57,5
17,35042382581000,-0.04,10.04,-2.22,5
17,35042432599000,0.65,9.72,-0.34,5
17,35042492261000,3.91,11.07,-0.95,5
17,35042552289000,3.83,7.93,-0.8,5
17,35042602277000,1.42,5.52,0.46,5
17,35042652326000,1.88,6.63,2.37,5
17,35042702344000,3.57,8.39,1.65,5
17,35042752332000,3.68,9.92,-0.65,5
17,35042802320000,3.17,12.57,1.73,5
17,35042852338000,2.83,15.7,0.19,5
17,35042902326000,1.88,11.54,-2.87,5
17,35042952344000,1.8,7.78,-2.26,5
17,35043002332000,2.11,7.12,-1.69,5
17,35043052320000,2.15,11.14,-0.5,5
17,35043102338000,1.65,9.81,-0.53,5
17,35043152326000,1.31,6.63,-0.46,5
17,35043202344000,1.88,6.97,0.34,5
17,35043252332000,3.83,8.5,0.27,5
17,35043302320000,3.41,9.23,-0.19,5
17,35043352308000,3.99,9.81,1.8,5
17,35043402326000,5.75,11.5,0.23,5
17,35043452344000,4.18,13.53,-3.49,5
17,35043502332000,-0.89,11.96,-3.57,5
17,35043552442000,-0.76,10.69,-0.5,5
17,35043602338000,3.49,10.38,-1.73,5
17,35043652326000,5.18,9.11,-2.11,5
17,35043702344000,2.41,6.28,-0.76,5
17,35043752332000,1.18,6.47,0.69,5
17,35043802320000,2.03,8.58,1.76,5
17,35043852338000,3.6,8.96,0.61,5
17,35043902326000,3.53,9.85,-0.23,5
17,35043952344000,2.56,12.18,0.99,5
17,35044002576000,3.64,14.1,-0.19,5
17,35044052350000,1.38,11.54,-3.06,5
17,35044102338000,2.56,7.82,-2.68,5
17,35044152326000,1.99,6.89,-2.3,5
17,35044202344000,1.5,11.65,-0.65,5
17,35044252332000,0.89,9.58,-0.46,5
17,35044302320000,1.65,6.85,-0.38,5
17,35044352277000,2.83,7.63,-0.3,5
17,35044402326000,4.02,8.85,0.42,5
17,35044452344000,2.98,9.34,0.19,5
17,35044502332000,3.6,9.28,0.61,5
17,35044552320000,4.25,11.75,0.72,5
17,35044602338000,4.48,13.53,-2.45,5
17,35044652326000,1.31,10.23,-4.21,5
17,35044702344000,-0.38,10.99,-1.27,5
17,35044752332000,2.37,10.8,-0.69,5
17,35044802320000,4.6,10.23,-1.84,5
17,35044852338000,2.15,6.63,-1.14,5
17,35044902326000,0.69,6.09,0.61,5
17,35044952344000,2.79,7.5,2.22,5
17,35045002332000,4.25,9.47,0.84,5
17,35045052320000,3.6,9.19,-1.14,5
17,35045102338000,2.15,12.45,2.37,5
17,35045152326000,2.96,14.52,-2.14,5
17,35045222364000,2.22,9.51,-2.14,5
17,35045272260000,1.92,7.93,-2.34,5
17,35045322339000,3.26,9.81,-1.42,5
17,35045372266000,2.45,11.65,-0.76,5
17,35045422315000,0.95,8.35,-0.23,5
17,35045472303000,0.89,5.63,0.46,5
17,35045522321000,3.38,7.16,-0.27,5
17,35045572309000,4.1,9.85,0.46,5
17,35045622297000,3.17,10.12,0.38,5
17,35045672315000,2.64,8.62,0.69,5
17,35045722364000,4.29,11.69,-0.15,5
17,35045772291000,4.63,14.6,-2.87,5
17,35045822309000,1.14,10.38,-4.4,5
17,35045872297000,-0.3,8.96,-0.15,5
17,35045922315000,3.21,10.99,0.04,5
17,35045972333000,5.37,10.92,-1.76,5
17,35046022291000,2.96,6.32,-1.38,5
17,35046072309000,0.61,4.99,1.23,5
17,35046122297000,2.64,7.74,1.8,5
17,35046172315000,4.02,9.15,0.27,5
17,35046222303000,2.79,9.38,-0.5,5
17,35046272291000,2.64,12.37,1.76,5
17,35046322309000,3.3,14.67,-0.53,5
17,35046372327000,1.46,11.41,-1.65,5
17,35046422346000,3.72,8.47,-2.64,5
17,35046472303000,3.17,7.7,-1.76,5
17,35046522291000,1.8,11.07,-0.42,5
17,35046572309000,0.72,9.19,-0.65,5
17,35046622297000,1.12,6.24,0.04,5
17,35046672346000,2.91,7.27,0.23,5
17,35046722303000,4.56,9.23,0.0,5
17,35046772291000,2.83,9.34,0.31,5
17,35046822309000,3.99,8.54,1.33,5
17,35046872297000,5.56,12.68,0.5,5
17,35046922315000,4.18,12.83,-3.41,5
17,35046972303000,-0.65,11.92,-2.98,5
17,35047022291000,-1.04,11.3,-0.72,5
17,35047072309000,2.49,11.11,-1.23,5
17,35047122297000,3.72,8.24,-1.76,5
17,35047172376000,2.49,5.43,-0.15,5
17,35047222303000,2.07,6.47,1.42,5
17,35047272291000,3.3,8.12,1.76,5
17,35047322370000,4.18,9.51,0.19,5
17,35047372297000,2.41,11.14,1.04,5
17,35047422315000,1.08,14.52,1.08,5
17,35047472303000,2.72,12.45,-2.11,5
17,35047522291000,2.03,9.34,-2.45,5
17,35047572706000,2.45,8.01,-2.53,5
17,35047622327000,1.54,11.07,-0.23,5
17,35047672315000,1.18,10.38,-0.72,5
17,35047722303000,0.57,6.24,-0.23,5
17,35047772260000,2.18,6.24,0.23,5
17,35047822309000,3.72,8.31,0.53,5
17,35047872266000,3.72,9.23,-0.04,5
17,35047922315000,3.76,9.89,0.8,5
17,35047972303000,4.44,11.6,2.34,5
17,35048022291000,3.53,11.69,-1.31,5
17,35048072309000,1.42,10.76,-6.05,5
17,35048122297000,0.19,14.37,-1.38,5
17,35048172315000,1.84,13.4,-0.61,5
17,35048222303000,3.49,7.97,-1.76,5
17,35048272291000,3.15,4.9,-1.73,5
17,35048322278000,0.31,6.02,0.8,5
17,35048372297000,2.22,9.0,1.65,5
17,35048422315000,3.15,8.12,1.12,5
17,35048472303000,2.64,8.54,-0.11,5
17,35048522291000,2.64,14.6,2.41,5
17,35048572309000,3.53,15.47,0.53,5
17,35048622297000,0.84,9.51,-3.34,5
17,35048672315000,2.03,8.35,-1.8,5
17,35048722303000,3.38,8.77,-2.07,5
17,35048772321000,2.18,10.99,-0.61,5
17,35048822309000,0.8,8.16,-0.46,5
17,35048872297000,0.76,5.83,-0.11,5
17,35048922315000,2.18,8.28,0.5,5
17,35048972333000,3.79,9.62,0.08,5
17,35049022291000,2.72,9.0,0.27,5
17,35049072309000,4.06,8.62,1.73,5
17,35049122297000,5.13,12.49,0.19,5
17,35049172315000,3.6,13.18,-3.17,5
17,35049222303000,-0.27,11.26,-3.64,5
17,35049272291000,-0.11,11.14,-0.84,5
17,35049322309000,2.96,11.37,-0.89,5
17,35049372297000,4.29,8.47,-2.14,5
17,35049422315000,1.99,5.41,-0.69,5
17,35049472333000,1.42,6.13,1.04,5
17,35049522291000,3.15,8.5,1.76,5
17,35049572309000,4.44,9.7,0.15,5
17,35049622297000,2.6,10.53,-0.23,5
17,35049672315000,1.33,13.87,1.65,5
17,35049722303000,3.95,12.98,-0.8,5
17,35049772291000,0.99,9.96,-3.53,5
17,35049822309000,2.11,8.39,-2.56,5
17,35049872297000,2.26,9.23,-1.14,5
17,35049922315000,1.33,11.14,-0.91,5
17,35049972303000,0.23,7.55,-0.42,5
17,35050022352000,1.54,6.44,0.04,5
17,35050072309000,3.68,8.43,0.5,5
17,35050122297000,4.48,9.11,-0.04,5
17,35050172315000,3.34,8.81,0.27,5
17,35050222303000,3.38,9.7,1.54,5
17,35050222303000,3.38,9.7,1.54,5
17,35050292280000,4.52,13.59,-1.38,5
17,35050342267000,0.89,11.73,-4.59,5
17,35050392286000,-2.03,11.73,-0.84,5
17,35050452314000,2.34,10.76,-1.42,5
17,35050502363000,5.09,8.96,-1.69,5
17,35050552320000,2.49,5.71,-0.19,5
17,35050602338000,1.73,6.24,0.57,5
17,35050652357000,2.87,7.55,1.57,5
17,35050702344000,3.17,9.43,0.31,5
17,35050752332000,2.64,10.92,0.8,5
17,35050802320000,2.56,13.48,0.99,5
17,35050852338000,3.02,14.37,-0.61,5
17,35050902326000,1.31,10.5,-3.49,5
17,35050952344000,2.68,7.46,-2.56,5
17,35051002332000,3.06,8.24,-1.12,5
17,35051052320000,1.57,10.5,-0.84,5
17,35051102491000,0.69,8.28,-0.38,5
17,35051152326000,1.42,6.47,0.08,5
17,35051202314000,3.11,7.63,0.27,5
17,35051252332000,3.72,8.73,0.34,5
17,35051302350000,3.79,9.53,0.57,5
17,35051352308000,5.43,11.07,0.65,5
17,35051402326000,5.05,14.44,-1.57,5
17,35051452375000,1.27,11.92,-4.14,5
17,35051502332000,-1.31,10.95,-1.5,5
17,35051552320000,1.61,10.5,-1.46,5
17,35051602369000,4.99,10.88,-1.27,5
17,35051652326000,2.98,6.21,-1.27,5
17,35051702344000,0.76,4.79,0.38,5
17,35051752332000,1.84,6.63,2.11,5
17,35051802320000,3.57,9.11,0.65,5
17,35051852338000,3.26,10.69,-1.08,5
17,35051902326000,2.49,13.72,1.8,5
17,35051952375000,3.41,15.28,-0.69,5
17,35052002515000,0.8,11.03,-2.79,5
17,35052052320000,3.15,7.35,-2.98,5
17,35052102338000,2.79,9.08,-2.07,5
17,35052102338000,2.79,9.08,-2.07,5
17,35052212385000,0.8,9.77,-0.53,5
17,35052263410000,1.76,6.63,-0.19,5
17,35052312299000,3.45,8.47,0.15,5
17,35052362256000,3.99,9.47,0.04,5
17,35052412305000,3.91,9.28,1.18,5
17,35052462263000,5.22,10.84,0.15,5
17,35052512342000,4.44,14.29,-3.83,5
17,35052562696000,-0.91,12.95,-3.6,5
17,35052612348000,-1.5,11.99,-0.8,5
17,35052662336000,3.15,10.38,-1.76,5
17,35052712324000,4.86,7.93,-1.92,5
17,35052762342000,2.26,5.28,-0.27,5
17,35052812330000,1.76,5.98,0.95,5
17,35052862348000,2.79,8.2,1.76,5
17,35052912336000,3.72,9.62,-0.04,5
17,35052972333000,2.26,12.03,2.56,5
17,35053022230000,3.06,13.87,0.23,5
17,35053072339000,2.22,11.96,-2.37,5
17,35053122266000,3.11,10.0,-2.79,5
17,35053172315000,2.56,7.93,-2.56,5
17,35053222303000,1.08,10.04,-0.42,5
17,35053272321000,0.27,9.3,-0.19,5
17,35053322309000,0.99,6.32,0.08,5
17,35053372358000,3.11,7.25,0.11,5
17,35053422315000,3.95,8.62,0.34,5
17,35053472303000,2.83,9.04,0.34,5
17,35053522321000,4.6,8.92,1.04,5
17,35053572339000,6.17,12.11,1.23,5
17,35053622297000,4.21,12.95,-2.49,5
17,35053672315000,0.08,11.26,-3.87,5
17,35053722303000,-1.18,11.54,-1.23,5
17,35053772291000,2.49,12.15,-1.12,5
17,35053822309000,4.29,9.04,-1.95,5
17,35053872297000,2.41,5.83,-0.69,5
17,35053922315000,1.23,6.24,0.46,5
17,35053972303000,2.18,7.46,1.76,5
17,35054022291000,3.38,9.19,0.23,5
17,35054072309000,2.34,11.3,1.69,5
17,35054122297000,1.57,14.52,0.31,5
17,35054172315000,1.54,12.83,-1.65,5
17,35054222333000,0.84,9.77,-3.15,5
17,35054272291000,3.38,9.89,-2.64,5
17,35054322370000,2.49,9.51,-1.08,5
17,35054372297000,0.57,8.62,-0.95,5
17,35054422315000,0.5,6.24,-0.34,5
17,35054472303000,2.45,6.78,-0.38,5
17,35054522291000,2.96,9.96,0.72,5
17,35054572309000,2.79,9.7,0.5,5
17,35054622297000,3.06,9.08,1.31,5
17,35054672315000,5.13,10.5,0.76,5
17,35054722303000,4.52,13.06,-2.6,5
17,35054772291000,-0.5,12.26,-3.15,5
17,35054822370000,-0.65,11.99,-0.57,5
17,35054872297000,2.37,11.03,-1.46,5
17,35054922315000,4.48,8.24,-2.14,5
17,35054972303000,2.18,5.33,-0.99,5
17,35055022291000,0.46,5.6,1.5,5
17,35055072309000,1.23,8.12,1.8,5
17,35055122297000,3.99,10.5,0.31,5
17,35055172285000,3.6,12.07,0.31,5
17,35055222303000,1.08,14.6,0.69,5
17,35055272321000,1.76,12.45,-1.42,5
17,35055322339000,0.08,9.51,-3.36,5
17,35055372297000,1.8,9.08,-3.17,5
17,35055422315000,2.22,9.62,-1.33,5
17,35055472303000,1.08,10.23,-0.69,5
17,35055522291000,0.8,7.25,-0.84,5
17,35055572309000,1.88,6.44,-0.76,5
17,35055622327000,3.26,8.92,-0.11,5
17,35055672315000,2.45,8.89,0.57,5
17,35055722303000,3.87,9.23,1.12,5
17,35055772291000,5.6,11.3,0.38,5
17,35055822339000,4.1,13.1,-4.18,5
17,35055872297000,-1.88,11.3,-3.95,5
17,35055922315000,-2.79,13.53,0.31,5
17,35055972303000,2.26,10.95,-1.76,5
17,35056022291000,5.01,7.89,-2.22,5
17,35056072309000,3.3,4.67,-1.14,5
17,35056122327000,1.38,5.63,0.42,5
17,35056172315000,1.99,8.89,2.37,5
17,35056222303000,3.21,10.65,-0.38,5
17,35056272291000,2.22,12.68,0.84,5
17,35056322309000,0.95,15.43,-0.42,5
17,35056372297000,1.65,11.8,-3.17,5
17,35056422315000,1.46,8.66,-3.3,5
17,35056472303000,2.68,8.28,-2.6,5
17,35056522291000,1.57,9.96,-1.27,5
17,35056572339000,0.08,9.3,-0.99,5
17,35056622297000,0.23,6.36,-0.15,5
17,35056672315000,2.3,7.44,-0.34,5
17,35056722303000,3.57,9.89,0.08,5
17,35056772321000,4.06,10.08,1.04,5
17,35056822309000,5.28,9.96,-0.95,5
17,35056872297000,2.49,12.15,-4.21,5
17,35056922315000,-2.03,15.13,-1.04,5
17,35056972303000,-0.72,12.79,-1.08,5
17,35056972303000,-0.72,12.79,-1.08,5
17,35057042341000,3.02,8.39,-1.69,5
17,35057092267000,3.49,5.13,-1.65,5
17,35057142316000,1.69,6.85,0.46,5
17,35057192274000,0.93,9.04,1.65,5
17,35057252332000,2.76,8.58,0.89,5
17,35057302320000,3.57,10.95,0.34,5
17,35057352338000,1.5,15.17,0.8,5
17,35057402326000,0.99,14.18,-2.26,5
17,35057452344000,0.57,8.47,-2.83,5
17,35057502332000,2.3,7.78,-2.11,5
17,35057552350000,1.99,10.23,-0.34,5
17,35057602338000,2.07,9.89,-0.53,5
17,35057652326000,1.08,6.13,-1.5,5
17,35057702344000,1.76,7.35,0.34,5
17,35057752332000,2.76,9.7,0.53,5
17,35057802320000,3.15,9.66,0.65,5
17,35057852338000,4.86,9.7,0.57,5
17,35057902326000,3.34,12.3,-2.64,5
17,35057952344000,0.0,16.04,-3.98,5
17,35058003705000,-0.65,10.73,-1.69,5
17,35058062269000,1.46,7.08,-0.46,5
17,35058112287000,4.18,9.11,-2.18,5
17,35058162336000,2.68,9.08,-0.57,5
17,35058212324000,1.23,6.85,0.11,5
17,35058262342000,0.84,7.25,2.26,5
17,35058312330000,2.15,8.01,0.34,5
17,35058362318000,3.79,11.54,1.69,5
17,35058412336000,2.96,16.32,-0.95,5
17,35058462324000,-0.08,13.48,-3.72,5
17,35058512342000,0.65,8.31,-1.92,5
17,35058562330000,2.49,8.01,-1.8,5
17,35058612348000,2.03,10.19,-0.76,5
17,35058662336000,2.15,8.73,-0.57,5
17,35058712324000,0.84,6.02,-0.72,5
17,35058762342000,1.61,8.77,0.34,5
17,35058812330000,3.02,9.81,0.15,5
17,35058862348000,2.07,9.85,0.93,5
17,35058912336000,3.72,9.53,0.8,5
17,35058962324000,2.79,13.14,-2.98,5
17,35059012342000,0.0,14.02,-3.49,5
17,35059062330000,0.23,10.99,-1.8,5
17,35059112348000,2.45,10.42,-1.73,5
17,35059162366000,2.64,8.28,-1.33,5
17,35059212293000,0.5,5.98,-0.15,5
17,35059262342000,1.42,6.55,0.61,5
17,35059312330000,2.15,9.7,2.26,5
17,35059362348000,4.14,9.92,0.65,5
17,35059412305000,3.83,9.34,0.65,5
17,35059462324000,2.68,13.59,1.27,5
17,35059512342000,0.84,14.14,-2.03,5
17,35059562330000,0.19,9.96,-2.83,5
17,35059612348000,2.03,8.89,-2.41,5
17,35059662336000,1.5,9.89,-0.5,5
17,35059712324000,0.76,8.85,0.11,5
17,35059762342000,1.57,4.94,-0.3,5
17,35059812330000,1.23,6.28,0.93,5
17,35059862348000,2.03,10.04,1.42,5
17,35059912336000,2.91,11.11,1.31,5
17,35059962324000,3.06,10.76,1.57,5
17,35060012250000,2.68,12.87,-1.88,5
17,35060062330000,1.12,11.41,-3.06,5
17,35060112379000,-0.5,11.84,-0.61,5
17,35060162366000,2.22,12.03,-0.23,5
17,35060212293000,3.02,9.04,-1.99,5
17,35060262342000,0.93,6.44,-0.34,5
17,35060312330000,0.15,5.79,1.04,5
17,35060362318000,1.31,7.31,1.99,5
17,35060412336000,2.91,8.31,0.65,5
17,35060462324000,3.6,11.8,0.95,5
17,35060512342000,2.41,14.6,1.84,5
17,35060562330000,1.84,13.21,-0.72,5
17,35060612379000,0.5,10.23,-2.53,5
17,35060662336000,1.27,7.63,-0.84,5
17,35060722333000,0.84,9.89,-0.84,5
17,35060772230000,0.69,10.08,0.08,5
17,35060822339000,1.14,6.55,-0.5,5
17,35060872266000,1.31,5.83,0.15,5
17,35060922315000,2.53,8.69,0.46,5
17,35060972303000,2.11,11.35,0.23,5
17,35061022291000,3.45,11.45,1.65,5
17,35061072309000,4.4,11.56,-0.34,5
17,35061122266000,2.15,11.56,-5.37,5
17,35061172315000,-1.92,12.11,-4.02,5
17,35061222303000,-1.53,13.4,1.33,5
17,35061272291000,3.41,9.92,-2.22,5
17,35061322309000,3.72,7.08,-1.88,5
17,35061372297000,2.07,5.48,-0.38,5
17,35061422315000,1.57,5.83,1.38,5
17,35061472303000,2.07,8.5,1.69,5
17,35061522291000,2.6,9.66,-1.23,5
17,35061572309000,1.57,14.52,2.41,5
17,35061622297000,1.42,16.25,-0.61,5
17,35061672315000,0.69,10.76,-3.41,5
17,35061722303000,2.56,8.31,-3.06,5
17,35061772291000,3.57,8.12,-2.3,5
17,35061822309000,1.46,10.04,-0.5,5
17,35061872297000,-0.38,8.28,0.08,5
17,35061922315000,0.69,5.98,-0.5,5
17,35061972303000,2.96,8.05,0.31,5
17,35062022291000,3.6,8.96,0.8,5
17,35062072309000,3.68,9.43,1.54,5
17,35062122297000,6.05,10.99,0.76,5
17,35062172315000,4.02,14.79,-3.41,5
17,35062222303000,-1.27,11.92,-5.56,5
17,35062272291000,-3.26,12.98,-0.57,5
17,35062322309000,2.49,11.5,-1.31,5
17,35062372297000,4.48,8.08,-3.06,5
17,35062422315000,2.68,4.4,-0.99,5
17,35062472303000,1.14,4.6,1.27,5
17,35062522291000,2.26,8.54,2.83,5
17,35062572339000,4.06,10.27,-0.95,5
17,35062622297000,2.96,12.37,1.76,5
17,35062672315000,1.14,16.25,-0.53,5
17,35062722272000,1.14,11.65,-2.64,5
17,35062772291000,3.15,9.28,-3.76,5
17,35062822309000,3.45,8.89,-2.53,5
17,35062872755000,0.42,9.19,-0.08,5
17,35062922315000,-0.42,7.27,-0.5,5
17,35062972303000,0.93,5.98,-0.15,5
17,35063022321000,4.02,7.7,-0.34,5
17,35063072309000,4.21,9.53,0.76,5
17,35063122297000,3.72,10.34,1.27,5
17,35063172315000,6.13,11.22,1.73,5
17,35063222303000,5.83,11.75,-2.96,5
17,35063272291000,-0.19,10.88,-6.02,5
17,35063322309000,-2.68,14.79,-0.42,5
17,35063372297000,1.42,13.29,-1.04,5
17,35063422315000,3.79,6.82,-2.53,5
17,35063472303000,3.41,3.72,-1.99,5
17,35063522291000,1.46,5.37,1.69,5
17,35063572309000,2.34,7.89,2.07,5
17,35063622297000,4.1,9.62,-0.34,5
17,35063672315000,4.14,11.69,0.89,5
17,35063722303000,1.8,14.14,0.34,5
17,35063772291000,3.02,13.59,-3.06,5
17,35063822309000,0.8,9.96,-2.72,5
17,35063872297000,3.3,8.81,-2.75,5
17,35063922315000,2.49,9.66,-0.8,5
17,35063972303000,1.38,8.69,-0.53,5
17,35064022321000,0.46,6.24,-0.15,5
17,35064072339000,1.76,6.47,0.15,5
17,35064122297000,3.79,8.66,0.08,5
17,35064172346000,3.41,10.04,0.04,5
17,35064222303000,4.6,10.61,1.76,5
17,35064272321000,4.67,12.26,-0.53,5
17,35064322309000,2.79,12.22,-3.26,5
17,35064372419000,-0.42,11.45,-3.83,5
17,35064422315000,0.89,13.21,-0.3,5
17,35064472303000,3.17,9.43,-1.57,5
17,35064522291000,3.38,5.98,-1.88,5
17,35064572309000,2.11,4.79,0.0,5
17,35064622297000,1.99,6.66,1.99,5
17,35064672315000,2.91,9.34,0.84,5
17,35064722303000,3.76,10.88,-0.61,5
17,35064772291000,2.72,13.1,1.76,5
17,35064822309000,3.91,14.67,-0.57,5
17,35064872297000,2.3,11.18,-4.18,5
17,35064922315000,2.49,7.86,-2.56,5
17,35064972303000,3.11,7.82,-0.95,5
17,35065022321000,1.84,9.53,-0.91,5
17,35065072309000,1.12,7.44,-0.38,5
17,35065122297000,1.54,6.24,0.08,5
17,35065172315000,3.06,7.44,-0.3,5
17,35065222303000,2.83,9.62,0.89,5
17,35065272260000,4.6,10.84,1.38,5
17,35065272260000,4.6,10.84,1.38,5
17,35065332502000,5.94,12.26,0.15,5
17,35065382337000,1.88,13.82,-4.06,5
17,35065432691000,-1.38,11.14,-2.26,5
17,35065482343000,-0.04,10.65,-1.31,5
17,35065532331000,2.98,9.89,-1.08,5
17,35065582471000,3.95,7.4,-0.91,5
17,35065632337000,2.3,5.6,-0.53,5
17,35065682661000,1.92,5.9,1.69,5
17,35065732343000,2.87,8.81,2.22,5
17,35065792310000,3.02,10.69,-1.8,5
17,35065852308000,2.98,13.63,1.57,5
17,35065902326000,3.34,12.79,-1.88,5
17,35065952344000,1.69,10.23,-2.79,5
17,35066002790000,4.1,8.73,-2.49,5
17,35066052350000,2.64,9.28,-1.08,5
17,35066102338000,1.31,8.66,-0.46,5
17,35066152326000,0.69,6.4,-0.23,5
17,35066202344000,2.37,6.59,-0.19,5
17,35066252332000,3.87,8.66,0.23,5
17,35066302259000,3.57,9.77,0.69,5
17,35066352338000,4.9,10.38,1.57,5
17,35066402509000,5.33,12.72,-0.11,5
17,35066452344000,2.41,12.3,-3.53,5
17,35066502302000,-1.38,11.14,-2.56,5
17,35066552320000,2.03,11.92,0.38,5
17,35066602338000,3.6,9.72,-1.57,5
17,35066652326000,3.57,7.16,-0.76,5
17,35066702344000,1.73,5.13,0.19,5
17,35066752332000,2.91,6.97,1.8,5
17,35066802320000,3.34,8.58,1.04,5
17,35066852338000,3.53,9.81,-0.38,5
17,35066902326000,2.64,14.63,1.5,5
17,35066952344000,4.02,14.29,-0.11,5
17,35067002332000,2.83,9.28,-2.18,5
17,35067052320000,3.11,5.9,-2.34,5
17,35067102338000,3.34,8.73,-0.08,5
17,35067152326000,3.41,11.41,0.27,5
17,35067202344000,1.42,7.27,-0.99,5
17,35067252332000,1.14,5.09,0.69,5
17,35067302320000,3.38,7.55,0.65,5
17,35067352338000,3.79,10.5,1.31,5
17,35067402326000,5.9,10.46,1.95,5
17,35067452344000,5.52,10.38,-0.61,5
17,35067502332000,2.26,11.8,-3.21,5
17,35067552350000,-1.04,12.98,-1.04,5
17,35067602369000,2.6,13.02,0.15,5
17,35067652326000,4.67,8.69,-1.61,5
17,35067702344000,3.99,5.56,-0.95,5
17,35067752332000,1.57,4.82,0.8,5
17,35067802320000,2.72,7.74,2.34,5
17,35067852338000,3.49,9.28,1.8,5
17,35067902326000,2.45,8.24,-1.08,5
17,35067952344000,1.88,13.48,2.91,5
17,35068002546000,3.26,15.94,-1.65,5
17,35068052320000,2.79,11.65,-2.22,5
17,35068052320000,2.79,11.65,-2.22,5
17,35068172498000,3.17,7.59,-0.95,5
17,35068222303000,1.23,8.81,-0.57,5
17,35068272199000,0.89,6.85,-0.27,5
17,35068322248000,2.76,6.97,0.38,5
17,35068372297000,3.95,8.24,0.57,5
17,35068472364000,5.6,10.46,1.54,5
17,35068472364000,5.6,10.46,1.54,5
17,35068522260000,5.05,12.68,-1.08,5
17,35068572217000,1.76,12.53,-3.79,5
17,35068622358000,-0.5,12.57,-0.95,5
17,35068672315000,2.96,9.81,-1.18,5
17,35068722303000,4.6,9.0,-1.46,5
17,35068772352000,2.56,6.85,-0.5,5
17,35068822309000,0.95,5.48,1.27,5
17,35068872297000,3.06,7.08,1.99,5
17,35068922315000,4.44,8.47,0.31,5
17,35068972303000,3.41,10.99,2.26,5
17,35069022291000,3.21,14.75,0.61,5
17,35069072309000,3.49,12.15,-2.56,5
17,35069122327000,3.99,9.0,-2.45,5
17,35069172315000,3.6,8.92,-1.5,5
17,35069222303000,2.15,10.0,-0.04,5
17,35069272291000,1.95,7.5,-0.65,5
17,35069322309000,1.46,5.86,0.11,5
17,35069372297000,3.11,7.21,0.57,5
17,35069422315000,3.87,8.54,0.57,5
17,35069472303000,3.72,9.77,0.95,5
17,35069522291000,4.29,10.99,1.57,5
17,35069572309000,5.09,13.76,-1.23,5
17,35069622297000,2.41,10.65,-3.11,5
17,35069672376000,0.27,10.76,-1.14,5
17,35069722303000,3.45,11.8,-0.23,5
17,35069772291000,4.21,9.66,-0.95,5
17,35069822309000,2.83,6.36,-0.34,5
17,35069872297000,1.54,5.18,1.18,5
17,35069922315000,3.15,7.06,1.76,5
17,35069972333000,3.68,8.35,0.53,5
17,35070022291000,3.38,10.19,0.57,5
17,35070072309000,3.11,14.98,0.93,5
17,35070122297000,4.1,13.59,-1.99,5
17,35070172315000,3.15,9.43,-2.75,5
17,35070222303000,2.53,7.59,-1.73,5
17,35070272260000,2.41,9.34,0.27,5
17,35070322339000,3.06,8.39,-0.65,5
17,35070372327000,1.92,6.66,-0.72,5
17,35070422315000,2.07,7.16,0.57,5
17,35070472303000,4.02,8.81,0.27,5
17,35070522291000,4.18,9.77,0.53,5
17,35070572309000,5.83,11.22,1.27,5
17,35070622297000,4.18,12.41,-2.11,5
17,35070672315000,1.12,11.26,-2.11,5
17,35070722303000,0.84,11.75,-1.12,5
17,35070772291000,3.53,10.92,-0.61,5
17,35070822309000,3.3,9.0,-1.46,5
17,35070872297000,2.22,6.09,-0.38,5
17,35070922315000,1.42,5.67,1.42,5
17,35070972303000,3.02,7.55,1.95,5
17,35071022291000,3.41,8.62,-0.04,5
17,35071072309000,3.79,10.73,2.53,5
17,35071122327000,3.91,12.07,1.38,5
17,35071172315000,3.41,13.21,-0.61,5
17,35071222303000,2.6,10.76,-1.99,5
17,35071272260000,3.79,9.04,-1.8,5
17,35071322309000,2.3,9.19,-0.15,5
17,35071372297000,1.23,9.34,-0.23,5
17,35071422315000,0.8,5.94,0.65,5
17,35071472303000,3.45,6.21,-0.04,5
17,35071522291000,4.56,9.51,1.04,5
17,35071572309000,3.99,9.77,0.53,5
17,35071622327000,4.56,8.2,1.18,5
17,35071672315000,3.95,11.96,0.84,5
17,35071722303000,4.9,13.25,-2.87,5
17,35071772291000,0.0,10.99,-3.79,5
17,35071822309000,-0.19,10.88,0.65,5
17,35071872297000,3.87,10.57,-1.23,5
17,35071922315000,5.13,7.78,-1.5,5
17,35071972303000,2.07,5.37,0.38,5
17,35072022291000,1.73,6.55,1.73,5
17,35072072309000,2.96,8.43,2.07,5
17,35072122297000,3.41,9.11,-0.69,5
17,35072172315000,2.83,13.29,3.15,5
17,35072222669000,3.41,15.4,-0.72,5
17,35072272291000,2.41,10.88,-2.45,5
17,35072322309000,2.68,8.24,-2.98,5
17,35072372297000,3.72,8.96,-1.23,5
17,35072422346000,2.3,9.23,0.27,5
17,35072472303000,1.99,7.12,-0.5,5
17,35072522291000,2.15,6.21,-0.23,5
17,35072572309000,2.53,7.78,0.57,5
17,35072622297000,2.41,8.89,0.95,5
17,35072672315000,4.56,11.03,1.33,5
17,35072722303000,5.71,10.92,2.18,5
17,35072772291000,4.99,12.53,-1.5,5
17,35072822309000,1.33,10.95,-4.06,5
17,35072872297000,-0.65,12.79,-0.69,5
17,35072922376000,2.45,11.35,0.15,5
17,35072972303000,3.83,6.89,-2.14,5
17,35073022291000,2.56,5.9,-0.27,5
17,35073072339000,1.57,6.32,1.33,5
17,35073122297000,2.56,7.89,2.37,5
17,35073172315000,4.67,9.51,0.42,5
17,35073172315000,4.67,9.51,0.42,5
17,35073233961000,3.34,11.56,1.84,5
17,35073282545000,2.91,13.57,0.38,5
17,35073332349000,2.34,11.6,-3.15,5
17,35073382368000,2.83,10.46,-2.14,5
17,35073432325000,3.41,9.08,-1.5,5
17,35073482374000,1.76,8.66,0.53,5
17,35073552350000,1.31,6.78,-0.65,5
17,35073602277000,1.65,6.28,0.0,5
17,35073652326000,2.83,8.62,0.72,5
17,35073702344000,4.1,9.53,0.76,5
17,35073702344000,4.1,9.53,0.76,5
17,35073812299000,5.98,11.18,0.23,5
17,35073862348000,2.45,13.21,-3.76,5
17,35073912305000,-1.42,12.18,-1.53,5
17,35073962324000,1.33,11.8,-0.04,5
17,35074012281000,4.94,9.51,-1.53,5
17,35074062330000,4.14,6.24,-1.5,5
17,35074112348000,0.99,5.43,0.76,5
17,35074162336000,1.73,6.59,2.34,5
17,35074212324000,3.87,8.08,0.76,5
17,35074262342000,4.33,9.53,0.04,5
17,35074312330000,3.79,14.82,1.69,5
17,35074362348000,3.57,13.63,-0.65,5
17,35074412336000,0.95,10.23,-3.45,5
17,35074462324000,3.53,9.47,-2.91,5
17,35074512342000,2.87,8.89,-1.76,5
17,35074562299000,0.31,8.89,-0.3,5
17,35074612348000,0.15,6.17,-0.34,5
17,35074662366000,2.34,6.47,-0.46,5
17,35074712324000,4.56,9.3,0.0,5
17,35074762342000,4.1,9.08,0.42,5
17,35074812330000,3.76,9.85,1.04,5
17,35074862379000,5.6,11.99,1.12,5
17,35074912336000,4.29,14.33,-4.06,5
17,35074962324000,0.93,10.04,-3.21,5
17,35075012342000,-1.69,10.8,-1.95,5
17,35075062330000,2.53,11.11,-0.34,5
17,35075112348000,5.28,9.19,-2.14,5
17,35075162336000,2.87,5.67,-1.23,5
17,35075212324000,1.65,6.28,1.5,5
17,35075262342000,2.56,8.47,1.8,5
17,35075322309000,3.21,9.23,-1.08,5
17,35075372297000,2.98,13.95,2.11,5
17,35075422346000,3.45,14.21,-0.46,5
17,35075472303000,1.73,11.73,-3.87,5
17,35075522291000,2.72,8.12,-3.26,5
17,35075572309000,2.96,7.27,-1.33,5
17,35075622297000,0.99,10.0,-0.38,5
17,35075672315000,1.08,8.01,-0.34,5
17,35075722303000,2.03,5.79,-0.34,5
17,35075772321000,3.26,7.55,0.0,5
17,35075822339000,3.02,9.72,-0.57,5
17,35075872297000,4.99,10.61,1.69,5
17,35075922315000,5.6,11.73,0.27,5
17,35075972303000,4.29,13.91,-2.72,5
17,35076022291000,0.42,11.73,-4.29,5
17,35076072339000,-0.15,12.03,-1.92,5
17,35076122297000,2.11,10.73,-1.38,5
17,35076172315000,4.02,7.74,-2.03,5
17,35076222333000,2.41,5.79,0.46,5
17,35076272321000,1.38,5.79,0.46,5
17,35076322278000,2.34,8.2,2.49,5
17,35076372236000,4.14,9.51,0.04,5
17,35076422346000,4.25,11.96,0.65,5
17,35076472303000,2.72,14.75,1.14,5
17,35076522291000,2.15,12.87,-1.65,5
17,35076572309000,0.08,9.47,-3.64,5
17,35076622297000,2.26,8.39,-3.57,5
17,35076672315000,2.6,9.53,-1.33,5
17,35076722303000,1.65,10.12,0.95,5
17,35076772291000,1.54,5.33,-0.95,5
17,35076822309000,1.88,5.43,0.34,5
17,35076872297000,2.98,9.19,0.89,5
17,35076922315000,2.34,10.23,0.11,5
17,35076972303000,5.52,11.41,2.15,5
17,35077022321000,5.67,11.73,-0.19,5
17,35077072339000,2.22,12.37,-5.33,5
17,35077122297000,-1.65,13.91,-2.91,5
17,35077172315000,0.69,11.54,-0.27,5
17,35077222303000,3.99,9.0,-0.91,5
17,35077272291000,4.63,6.55,-2.53,5
17,35077322309000,1.23,5.37,-0.65,5
17,35077372297000,1.5,5.37,2.53,5
17,35077422315000,1.99,7.08,0.69,5
17,35077472303000,3.21,9.85,0.31,5
17,35077522291000,3.99,15.05,1.31,5
17,35077572309000,2.6,16.09,-0.95,5
17,35077622297000,0.5,10.73,-3.98,5
17,35077672315000,2.79,8.85,-2.34,5
17,35077722303000,3.53,8.81,-2.07,5
17,35077772291000,1.08,9.85,-0.72,5
17,35077822309000,0.08,6.09,-0.5,5
17,35077872297000,1.99,6.02,0.46,5
17,35077922315000,3.95,8.89,-0.57,5
17,35077972303000,3.68,9.38,1.12,5
17,35078022321000,4.9,10.12,1.38,5
17,35078072309000,6.24,10.38,0.31,5
17,35078122297000,4.6,12.95,-3.11,5
17,35078172803000,-0.04,14.14,-3.57,5
17,35078222333000,-0.08,11.54,-2.3,5
17,35078272291000,1.8,8.81,-1.46,5
17,35078272291000,1.8,8.81,-1.46,5
17,35078332715000,4.37,7.86,-1.69,5
17,35078382307000,2.79,6.4,-0.8,5
17,35078432355000,1.73,5.94,1.23,5
17,35078482404000,3.02,7.78,2.6,5
17,35078532331000,3.57,10.08,-1.08,5
17,35078582532000,4.1,13.63,3.87,5
17,35078632368000,1.99,12.37,0.0,5
17,35078682691000,1.73,12.15,-3.53,5
17,35078732343000,2.03,10.34,-3.34,5
17,35078782331000,4.06,8.81,-2.14,5
17,35078832441000,1.57,8.96,-0.46,5
17,35078882337000,-0.04,7.86,-0.04,5
17,35078933240000,1.27,5.83,-0.5,5
17,35078982374000,3.06,8.2,0.23,5
17,35079032422000,4.94,9.58,0.61,5
17,35079082349000,3.83,9.19,0.34,5
17,35079132642000,4.52,10.15,1.61,5
17,35079182325000,5.43,13.06,-1.69,5
17,35079232801000,1.8,13.14,-5.86,5
17,35079282453000,-2.37,12.41,-1.65,5
17,35079332349000,1.12,10.65,-0.57,5
17,35079382734000,4.06,9.3,-2.11,5
17,35079432325000,2.91,6.4,-1.18,5
17,35079482343000,1.92,5.98,-0.11,5
17,35079532484000,2.76,7.01,1.76,5
17,35079582349000,2.91,9.11,1.14,5
17,35079632642000,2.76,10.27,-0.8,5
17,35079682325000,2.96,13.76,1.5,5
17,35079732801000,4.25,13.67,-1.08,5
17,35079782484000,1.61,12.37,-4.06,5
17,35079832349000,1.23,8.24,-2.79,5
17,35079883192000,1.46,6.63,-1.42,5
17,35079932355000,1.33,9.11,-0.95,5
17,35079982374000,0.76,8.5,-0.23,5
17,35080032422000,1.84,7.55,-0.23,5
17,35080082349000,3.21,8.28,0.0,5
17,35080132520000,3.49,8.5,0.65,5
17,35080182325000,2.98,10.5,1.33,5
17,35080232618000,4.56,12.11,1.46,5
17,35080282422000,5.13,12.22,-2.87,5
17,35080332349000,1.18,10.99,-4.67,5
17,35080382368000,-1.08,11.69,-1.84,5
17,35080432325000,2.68,12.03,-0.61,5
17,35080482679000,4.63,8.43,-2.45,5
17,35080532361000,1.8,5.41,-1.38,5
17,35080582349000,0.8,5.18,1.14,5
17,35080632337000,3.06,7.27,2.03,5
17,35080682325000,4.63,9.47,-0.42,5
17,35080732404000,3.76,12.22,1.84,5
17,35080782331000,4.02,13.1,1.23,5
17,35080832593000,1.54,12.18,-1.69,5
17,35080882337000,0.31,10.88,-2.56,5
17,35080932722000,3.3,8.5,-2.68,5
17,35080982374000,2.49,8.96,-1.5,5
17,35081032331000,1.54,9.66,-0.27,5
17,35081082441000,0.76,6.4,-0.3,5
17,35081132337000,1.42,5.9,0.38,5
17,35081182630000,3.6,8.54,0.5,5
17,35081232343000,4.02,10.31,0.99,5
17,35081282819000,5.86,10.92,1.38,5
17,35081352338000,5.09,12.41,-1.88,5
17,35081402326000,0.15,12.49,-4.99,5
17,35081452344000,-0.91,11.65,-1.92,5
17,35081502363000,2.26,12.26,-0.42,5
17,35081552320000,4.67,8.24,-2.3,5
17,35081602338000,2.72,4.37,-1.61,5
17,35081652296000,0.5,4.37,1.12,5
17,35081702527000,2.79,7.78,2.22,5
17,35081752332000,4.75,9.89,-0.69,5
17,35081802320000,4.82,12.91,1.12,5
17,35081852338000,3.21,14.37,0.95,5
17,35081902326000,1.57,12.6,-2.53,5
17,35081952344000,0.8,10.08,-3.3,5
17,35082003248000,2.91,8.2,-2.83,5
17,35082052320000,2.49,9.23,-1.46,5
17,35082102338000,1.33,9.04,-0.5,5
17,35082152326000,0.84,5.75,-0.34,5
17,35082202344000,2.83,6.55,0.04,5
17,35082252302000,4.1,8.5,0.19,5
17,35082302320000,3.41,9.51,0.8,5
17,35082352338000,5.71,10.42,1.42,5
17,35082402326000,6.47,12.37,-0.3,5
17,35082452344000,2.6,13.4,-5.48,5
17,35082502302000,-1.95,12.64,-3.49,5
17,35082552350000,1.33,11.45,0.11,5
17,35082602338000,4.14,9.47,-2.37,5
17,35082652326000,4.1,5.83,-1.76,5
17,35082702344000,1.8,4.37,-0.08,5
17,35082752332000,2.15,6.63,1.92,5
17,35082802320000,4.1,8.81,1.42,5
17,35082852338000,3.99,11.18,-0.99,5
17,35082902357000,4.14,13.29,2.07,5
17,35082952344000,3.64,13.48,-1.14,5
17,35083002302000,0.38,10.92,-4.21,5
17,35083052320000,1.84,10.08,-2.53,5
17,35083052320000,1.84,10.08,-2.53,5
17,35083162458000,1.76,9.7,-0.8,5
17,35083213758000,0.34,6.13,-0.5,5
17,35083262311000,1.8,5.94,0.04,5
17,35083312269000,3.79,8.08,0.93,5
17,35083362348000,3.72,10.12,-0.23,5
17,35083412336000,5.33,10.12,1.38,5
17,35083462324000,5.9,10.99,1.27,5
17,35083512342000,4.44,12.79,-3.21,5
17,35083562360000,-0.38,11.88,-6.21,5
17,35083612348000,-0.61,13.21,-0.27,5
17,35083662336000,1.8,10.73,-1.57,5
17,35083712324000,4.52,6.78,-2.37,5
17,35083762342000,2.41,5.37,-1.23,5
17,35083812330000,1.12,6.24,1.57,5
17,35083862348000,2.79,8.01,2.76,5
17,35083912336000,4.25,9.23,-1.61,5
17,35083962324000,4.14,12.45,-0.34,5
17,35084022382000,3.26,14.71,-0.34,5
17,35084072339000,1.65,12.15,-4.33,5
17,35084122327000,1.33,7.97,-2.45,5
17,35084172285000,3.95,9.23,-3.36,5
17,35084222303000,2.56,10.15,-1.69,5
17,35084272291000,-0.08,7.82,-0.53,5
17,35084322309000,-0.3,5.22,0.89,5
17,35084372297000,3.15,6.28,-0.38,5
17,35084422315000,5.33,9.58,-0.19,5
17,35084472303000,3.79,10.42,1.33,5
17,35084522291000,6.36,10.95,1.65,5
17,35084572309000,6.47,12.68,-2.87,5
17,35084622297000,1.46,12.68,-6.59,5
17,35084672315000,-1.88,13.72,-1.23,5
17,35084722303000,1.23,11.5,-0.53,5
17,35084772291000,4.79,7.5,-2.45,5
17,35084822339000,3.76,4.71,-2.07,5
17,35084872297000,1.14,4.99,0.57,5
17,35084922315000,1.95,7.59,3.11,5
17,35084972303000,4.02,9.58,0.76,5
17,35085022291000,4.52,11.07,0.93,5
17,35085072309000,1.57,15.28,1.23,5
17,35085122297000,2.98,14.37,-1.61,5
17,35085172315000,1.31,9.3,-3.98,5
17,35085222303000,2.56,8.16,-3.17,5
17,35085272291000,3.41,8.66,-1.99,5
17,35085322309000,1.31,9.19,-0.34,5
17,35085372297000,0.11,6.17,0.46,5
17,35085422315000,2.11,6.59,0.23,5
17,35085472303000,3.91,8.16,-0.15,5
17,35085522291000,3.6,9.19,0.95,5
17,35085572309000,6.28,11.54,1.8,5
17,35085622297000,7.59,11.88,-0.61,5
17,35085672315000,3.6,11.84,-5.56,5
17,35085722303000,-1.76,13.48,-3.72,5
17,35085772291000,0.11,13.18,0.42,5
17,35085822309000,3.95,8.85,-2.34,5
17,35085872297000,4.9,5.24,-2.3,5
17,35085922315000,1.61,4.56,-0.84,5
17,35085972303000,0.93,6.59,1.73,5
17,35086022291000,3.15,8.77,2.34,5
17,35086072309000,4.56,10.5,-1.38,5
17,35086122297000,3.83,13.1,2.53,5
17,35086172315000,2.03,14.67,0.04,5
17,35086222303000,1.12,12.11,-4.75,5
17,35086272291000,2.49,10.57,-3.57,5
17,35086322309000,4.06,8.58,-3.26,5
17,35086372297000,1.54,8.39,-0.04,5
17,35086422346000,-0.72,7.06,-0.27,5
17,35086472303000,0.61,6.02,0.0,5
17,35086522291000,4.06,7.08,-0.53,5
17,35086572309000,4.18,8.85,-0.34,5
17,35086622297000,4.4,10.88,0.95,5
17,35086672346000,7.7,11.5,0.72,5
17,35086722303000,5.9,12.98,-3.11,5
17,35086772291000,-0.19,12.07,-5.18,5
17,35086822309000,-2.22,13.06,-2.3,5
17,35086872297000,2.49,9.58,-0.84,5
17,35086922315000,4.37,7.86,-2.18,5
17,35086972333000,3.76,6.32,-1.53,5
17,35087022291000,1.8,6.02,0.15,5
17,35087072309000,2.79,8.28,3.15,5
17,35087122327000,5.18,9.47,-0.27,5
17,35087172315000,4.9,9.72,0.69,5
17,35087222333000,1.8,13.8,1.04,5
17,35087272291000,1.73,15.02,-4.29,5
17,35087322309000,1.23,9.47,-3.26,5
17,35087372297000,4.1,9.43,-3.87,5
17,35087422315000,1.99,9.81,-1.73,5
17,35087472303000,-1.5,8.62,-0.04,5
17,35087522291000,-0.72,4.33,0.5,5
17,35087572309000,3.6,7.08,0.15,5
17,35087622297000,6.7,9.11,-0.95,5
17,35087672315000,4.48,9.3,0.69,5
17,35087722364000,6.05,9.47,2.3,5
17,35087772291000,6.32,12.76,-1.53,5
17,35087822309000,2.18,12.03,-5.28,5
17,35087872297000,-1.65,12.6,-3.11,5
17,35087922315000,1.61,14.37,-0.23,5
17,35087972303000,4.94,9.7,-1.99,5
17,35088022291000,4.63,4.75,-2.83,5
17,35088072309000,0.8,3.76,-0.72,5
17,35088122297000,0.76,6.44,2.37,5
17,35088172315000,4.02,9.51,1.88,5
17,35088222333000,5.09,10.23,-1.5,5
17,35088272291000,3.15,13.48,1.69,5
17,35088322309000,3.17,16.02,-0.84,5
17,35088372297000,1.14,10.76,-3.87,5
17,35088422315000,2.79,8.05,-2.75,5
17,35088472303000,3.26,8.92,-2.56,5
17,35088522291000,1.57,10.04,-0.38,5
17,35088572309000,-0.11,6.74,-0.11,5
17,35088622297000,1.23,5.43,0.08,5
17,35088672315000,4.14,7.67,-0.38,5
17,35088722303000,4.79,9.92,0.08,5
17,35088772382000,4.71,10.23,1.42,5
17,35088822339000,6.78,10.69,0.95,5
17,35088872297000,4.99,12.87,-2.98,5
17,35088922315000,0.34,11.92,-5.6,5
17,35088972303000,-1.14,13.48,-0.46,5
17,35089022535000,3.15,11.07,-1.14,5
17,35089072339000,4.63,7.35,-2.45,5
17,35089122114000,3.3,4.79,-1.5,5
17,35089172224000,0.76,4.99,0.84,5
17,35089222333000,3.06,7.82,3.41,5
17,35089272291000,4.37,10.12,-0.08,5
17,35089322309000,4.9,11.45,1.5,5
17,35089372297000,2.18,15.24,1.33,5
17,35089422315000,1.99,12.98,-2.98,5
17,35089472303000,2.07,9.28,-3.72,5
17,35089522291000,2.87,7.74,-2.83,5
17,35089572339000,1.88,9.7,-0.15,5
17,35089622297000,0.61,9.77,-0.5,5
17,35089672315000,0.69,5.43,-0.11,5
17,35089722303000,3.26,5.6,-0.08,5
17,35089772291000,4.99,8.47,0.31,5
17,35089822309000,4.37,10.38,0.69,5
17,35089872297000,6.02,10.19,1.46,5
17,35089922315000,5.6,11.6,-1.33,5
17,35089972303000,1.95,12.26,-5.98,5
17,35090022321000,-1.42,14.6,-2.34,5
17,35090072309000,2.11,12.83,-1.04,5
17,35090122297000,4.06,8.58,-3.26,5
17,35090172315000,4.02,5.09,-2.37,5
17,35090222303000,0.69,4.52,-0.11,5
17,35090272291000,1.5,7.25,2.56,5
17,35090322309000,3.83,9.15,0.42,5
17,35090372297000,5.01,11.26,-0.8,5
17,35090422315000,4.4,13.06,1.31,5
17,35090472303000,2.56,13.76,-0.53,5
17,35090522291000,0.23,10.61,-4.37,5
17,35090572309000,1.76,9.51,-2.37,5
17,35090622297000,3.76,8.89,-2.75,5
17,35090672315000,1.73,10.12,-0.95,5
17,35090722303000,0.11,6.78,0.15,5
17,35090772291000,1.27,5.33,0.11,5
17,35090822309000,4.37,8.08,-0.23,5
17,35090872297000,4.75,9.89,0.08,5
17,35090922315000,4.29,9.38,1.08,5
17,35090972303000,6.28,10.65,1.38,5
17,35091022321000,5.13,13.48,-3.45,5
17,35091072309000,0.04,12.07,-4.86,5
17,35091122358000,-0.65,12.95,-0.95,5
17,35091172315000,3.38,10.73,-0.91,5
17,35091222303000,4.75,7.44,-2.41,5
17,35091272291000,2.79,5.41,-1.23,5
17,35091322309000,1.18,5.63,1.5,5
17,35091372297000,2.79,7.86,2.96,5
17,35091422315000,4.21,8.92,-1.92,5
17,35091472333000,3.99,12.11,3.34,5
17,35091522321000,2.76,15.89,0.53,5
17,35091572309000,2.37,12.57,-3.53,5
17,35091622297000,2.79,8.73,-3.3,5
17,35091672315000,2.96,7.67,-2.41,5
17,35091722303000,1.76,9.85,-0.76,5
17,35091772321000,0.42,8.73,-0.76,5
17,35091822309000,0.31,5.6,0.46,5
17,35091872205000,3.15,6.82,-0.04,5
17,35091922346000,5.01,8.81,0.19,5
17,35091972303000,4.6,9.7,0.57,5
17,35092022321000,6.74,10.34,1.46,5
17,35092072309000,5.01,13.87,-2.14,5
17,35092122297000,1.14,12.53,-6.09,5
17,35092172315000,-1.31,13.18,-1.27,5
17,35092222303000,2.98,10.61,-0.84,5
17,35092272291000,4.71,8.39,-2.64,5
17,35092322523000,2.98,4.82,-1.46,5
17,35092372297000,0.93,4.79,0.65,5
17,35092422315000,2.07,7.89,2.37,5
17,35092472303000,4.63,10.69,0.27,5
17,35092522321000,3.79,11.22,0.69,5
17,35092572309000,2.49,13.18,1.23,5
17,35092622297000,3.49,13.91,-1.76,5
17,35092672346000,1.04,9.62,-4.33,5
17,35092722303000,2.91,8.96,-2.26,5
17,35092772321000,3.83,9.28,-1.04,5
17,35092822309000,1.8,9.19,-0.46,5
17,35092872327000,0.27,6.7,0.38,5
17,35092922315000,1.73,5.86,0.31,5
17,35092972303000,4.1,7.35,0.5,5
17,35093022291000,4.1,9.96,0.0,5
17,35093072309000,6.05,10.92,2.96,5
17,35093122297000,6.63,11.3,-0.23,5
17,35093172315000,3.53,11.45,-4.56,5
17,35093222333000,-1.27,11.96,-3.6,5
17,35093272291000,0.53,14.1,1.8,5
17,35093322309000,3.87,9.47,-1.69,5
17,35093372327000,5.05,5.37,-1.69,5
17,35093422315000,1.76,3.38,-0.57,5
17,35093472333000,1.92,6.78,3.57,5
17,35093522321000,4.4,10.0,1.88,5
17,35093572309000,3.91,10.08,-0.57,5
17,35093622297000,2.68,14.6,3.57,5
17,35093672315000,4.75,15.55,-0.38,5
17,35093722303000,1.88,10.08,-4.48,5
17,35093772291000,2.22,8.08,-3.76,5
17,35093822309000,3.06,8.85,-1.92,5
17,35093872297000,1.92,9.85,-0.15,5
17,35093922315000,0.42,6.78,0.19,5
17,35093972303000,2.07,5.22,0.57,5
17,35094023389000,4.71,7.27,-0.53,5
17,35094023389000,4.71,7.27,-0.53,5
17,35094082532000,3.15,9.08,1.46,5
17,35094132154000,5.33,10.19,2.26,5
17,35094182386000,7.31,11.96,-0.76,5
17,35094232709000,2.45,15.13,-4.63,5
17,35094282361000,-1.08,14.41,-3.17,5
17,35094332349000,2.53,8.85,-0.5,5
17,35094382490000,3.38,8.85,-1.65,5
17,35094432355000,3.95,6.78,-1.53,5
17,35094482679000,2.22,4.29,-0.34,5
17,35094532331000,2.34,5.41,1.8,5
17,35094582319000,4.37,8.31,1.8,5
17,35094632368000,3.76,11.99,-0.91,5
17,35094682325000,2.45,14.71,1.54,5
17,35094732435000,3.99,15.43,-0.65,5
17,35094782331000,1.76,10.46,-4.37,5
17,35094832654000,2.91,8.01,-3.17,5
17,35094882368000,2.6,8.05,-2.68,5
17,35094932813000,0.76,9.66,-0.19,5
17,35094982435000,0.0,7.08,-0.34,5
17,35095032331000,1.69,6.13,-0.08,5
17,35095082532000,3.76,7.55,-0.3,5
17,35095132337000,4.48,9.19,-0.04,5
17,35095182722000,5.48,10.34,0.8,5
17,35095232343000,6.82,11.54,0.5,5
17,35095284254000,4.94,13.25,-2.34,5
17,35095342298000,0.8,11.14,-5.52,5
17,35095402265000,-0.34,13.02,-0.72,5
17,35095452375000,3.02,10.73,-0.95,5
17,35095502332000,4.18,6.59,-2.3,5
17,35095552320000,1.8,4.14,-0.19,5
17,35095602338000,1.88,4.99,2.79,5
17,35095652326000,4.33,7.31,2.18,5
17,35095702375000,5.48,10.53,-1.46,5
17,35095752332000,3.38,14.98,3.57,5
17,35095802320000,2.18,14.86,-0.57,5
17,35095852338000,1.46,11.65,-4.4,5
17,35095902326000,3.45,9.08,-3.36,5
17,35095952344000,3.15,7.4,-2.3,5
17,35096002485000,0.53,8.66,-0.19,5
17,35096052350000,0.08,7.4,-0.34,5
17,35096102338000,1.73,6.4,0.0,5
17,35096152326000,3.87,7.27,-0.38,5
17,35096202344000,4.86,9.53,0.53,5
17,35096252302000,6.02,10.8,1.12,5
17,35096302350000,6.78,11.14,0.23,5
17,35096352338000,4.33,12.22,-3.26,5
17,35096402296000,-0.42,11.56,-5.52,5
17,35096452314000,0.23,14.1,-0.34,5
17,35096502332000,3.64,10.92,-1.18,5
17,35096552320000,4.82,7.08,-2.34,5
17,35096602338000,2.49,3.87,-1.5,5
17,35096652326000,0.34,4.71,1.65,5
17,35096702344000,2.96,7.93,2.72,5
17,35096752332000,4.71,10.53,-1.69,5
17,35096802320000,3.34,14.1,2.76,5
17,35096862318000,4.14,16.44,-0.65,5
17,35096912275000,1.76,9.7,-3.91,5
17,35096962324000,2.98,7.63,-3.02,5
17,35097012464000,2.91,8.24,-2.37,5
17,35097062330000,1.88,10.08,0.15,5
17,35097112348000,1.04,6.55,-0.42,5
17,35097162336000,2.3,5.28,-0.3,5
17,35097212324000,3.3,8.2,-0.11,5
17,35097262311000,3.53,9.34,0.72,5
17,35097312330000,4.86,10.19,0.65,5
17,35097362318000,7.01,10.19,-0.04,5
17,35097412305000,4.67,15.05,-4.14,5
17,35097462324000,0.08,13.87,-5.75,5
17,35097512342000,-1.8,11.41,0.08,5
17,35097562330000,2.07,8.69,-1.31,5
17,35097612348000,4.37,6.7,-2.03,5
17,35097662336000,3.34,5.6,-0.27,5
17,35097712324000,2.34,6.59,1.31,5
17,35097762342000,3.49,8.28,3.26,5
17,35097812299000,3.49,8.58,-1.92,5
17,35097862348000,3.53,12.6,4.14,5
17,35097912336000,3.15,16.25,-0.8,5
17,35097962324000,2.3,13.02,-4.37,5
17,35098012281000,2.6,9.11,-3.17,5
17,35098062330000,3.06,7.5,-3.15,5
17,35098112348000,1.08,9.11,-0.04,5
17,35098162336000,0.42,8.08,-0.8,5
17,35098212324000,0.57,5.56,0.57,5
17,35098262311000,3.41,7.74,-0.11,5
17,35098312360000,4.44,8.54,0.5,5
17,35098362348000,4.9,9.47,1.23,5
17,35098412305000,7.16,10.92,0.5,5
17,35098462354000,5.09,15.17,-3.11,5
17,35098512342000,-0.15,12.03,-4.25,5
17,35098562330000,-0.84,11.45,-0.46,5
17,35098612348000,4.06,10.0,-0.89,5
17,35098662336000,4.9,7.74,-1.38,5
17,35098712324000,3.21,4.79,-0.76,5
17,35098762342000,1.18,5.43,1.18,5
17,35098812330000,2.49,8.12,3.57,5
17,35098862348000,3.83,9.19,-0.99,5
17,35098912336000,4.1,11.99,1.88,5
17,35098962324000,2.37,17.47,-0.15,5
17,35099012342000,2.45,13.38,-3.11,5
17,35099012342000,2.45,13.38,-3.11,5
17,35099092329000,3.72,6.93,-3.17,5
17,35099153730000,1.38,8.31,-1.18,5
17,35099202680000,-0.04,9.43,0.11,5
17,35099252302000,0.57,6.05,-0.23,5
17,35099302289000,2.79,6.32,-0.53,5
17,35099352338000,4.82,8.73,0.57,5
17,35099402296000,4.63,10.38,0.84,5
17,35099452344000,6.63,10.65,2.07,5
17,35099522352000,5.43,12.49,-2.87,5
17,35099572278000,-0.46,11.99,-4.29,5
17,35099622358000,-0.61,13.76,0.11,5
17,35099672285000,4.25,10.5,-1.61,5
17,35099722303000,4.63,7.06,-2.11,5
17,35099772291000,1.88,4.18,-0.99,5
17,35099822309000,1.12,5.05,1.23,5
17,35099872297000,3.38,7.93,2.64,5
17,35099922315000,4.71,10.53,-1.5,5
17,35099972303000,3.15,13.25,2.87,5
17,35100022321000,1.14,15.75,0.72,5
17,35100072309000,3.95,10.69,-2.87,5
17,35100122297000,0.42,5.67,-1.84,5
17,35100172315000,5.83,13.14,-0.23,5
17,35100222303000,4.33,10.12,-0.11,5
17,35100272260000,2.96,6.32,-0.34,5
17,35100322309000,-0.11,3.21,-0.27,5
17,35100372297000,1.08,7.16,0.61,5
17,35100422315000,4.86,12.03,1.65,5
17,35100472303000,5.52,10.57,1.95,5
17,35100522321000,5.6,8.62,0.95,5
17,35100572309000,3.45,11.41,-3.26,5
17,35100622297000,0.31,15.02,-1.99,5
17,35100672315000,1.38,12.45,-1.14,5
17,35100722303000,3.72,8.77,-0.89,5
17,35100772321000,4.1,6.66,-1.04,5
17,35100822309000,1.69,4.75,-0.23,5
17,35100872297000,1.57,5.94,2.76,5
17,35100922315000,3.72,7.08,1.18,5
17,35100972303000,4.63,11.75,0.08,5
17,35101022321000,2.72,17.5,1.31,5
17,35101072309000,2.98,12.22,-1.99,5
17,35101122327000,2.6,9.72,-3.02,5
17,35101172315000,3.6,9.58,-2.14,5
17,35101222303000,2.98,9.34,-1.14,5
17,35101272260000,0.8,7.21,-0.61,5
17,35101322309000,0.08,4.75,-0.27,5
17,35101372297000,2.56,6.44,0.11,5
17,35101422315000,4.71,10.04,0.23,5
17,35101472303000,4.48,10.5,0.95,5
17,35101522352000,5.48,10.65,1.76,5
17,35101572309000,4.6,11.73,-1.88,5
17,35101622266000,1.5,11.73,-4.86,5
17,35101672315000,-0.11,13.67,-0.84,5
17,35101722333000,3.38,11.73,0.04,5
17,35101772291000,4.67,7.5,-2.68,5
17,35101822309000,2.53,4.63,-1.04,5
17,35101872327000,0.53,5.94,1.38,5
17,35101922346000,2.56,7.89,2.87,5
17,35101972333000,3.87,8.66,-1.27,5
17,35102022352000,4.33,13.63,2.6,5
17,35102072370000,4.02,16.32,0.5,5
17,35102122297000,2.11,11.3,-2.49,5
17,35102172346000,2.96,6.74,-2.75,5
17,35102222303000,2.6,5.98,-1.8,5
17,35102272291000,1.73,10.38,0.8,5
17,35102322309000,1.95,8.62,-0.65,5
17,35102372327000,1.92,5.71,-0.11,5
17,35102422315000,3.34,7.78,0.0,5
17,35102472333000,3.72,9.58,1.12,5
17,35102522352000,5.24,10.38,1.33,5
17,35102572309000,4.86,10.88,0.53,5
17,35102622297000,3.17,11.92,-3.95,5
17,35102672315000,-0.19,12.76,-3.76,5
17,35102722303000,2.22,15.28,2.15,5
17,35102772321000,4.1,8.62,-2.68,5
17,35102822339000,4.52,3.87,-1.33,5
17,35102872327000,1.08,4.21,0.95,5
17,35102922346000,3.15,6.78,2.49,5
17,35102972333000,4.29,9.23,0.04,5
17,35103022352000,3.95,11.11,1.73,5
17,35103072309000,2.3,14.82,0.76,5
17,35103122297000,2.26,12.26,-0.3,5
17,35103172315000,1.73,10.38,-1.69,5
17,35103222333000,3.64,8.66,-2.6,5
17,35103272291000,3.17,9.92,0.15,5
17,35103322309000,1.33,9.51,-0.38,5
17,35103372602000,0.08,4.75,0.42,5
17,35103422315000,2.22,5.43,0.42,5
17,35103472333000,4.37,8.2,0.46,5
17,35103522352000,4.79,12.18,1.12,5
17,35103572339000,5.43,10.84,1.18,5
17,35103622327000,4.9,12.07,-1.31,5
17,35103672346000,1.92,12.76,-4.37,5
17,35103722303000,-1.42,11.99,-4.37,5
17,35103772321000,3.06,11.54,3.6,5
17,35103822339000,4.82,7.97,-2.64,5
17,35103872297000,3.38,4.75,-1.27,5
17,35103922346000,1.31,4.67,1.46,5
17,35103972303000,2.83,6.89,3.3,5
17,35104022321000,4.21,10.15,-2.03,5
17,35104072339000,4.21,14.79,3.76,5
17,35104122297000,1.8,14.67,-0.65,5
17,35104172315000,2.49,12.22,-4.18,5
17,35104222303000,3.26,9.0,-2.96,5
17,35104272291000,2.91,8.54,-2.6,5
17,35104322309000,0.57,8.73,-0.15,5
17,35104372297000,0.23,7.21,-0.53,5
17,35104422315000,1.33,5.83,-0.27,5
17,35104472333000,3.83,8.66,-0.11,5
17,35104522321000,4.37,8.58,0.76,5
17,35104522321000,4.37,8.58,0.76,5
17,35104592298000,5.18,8.89,1.18,5
17,35104642347000,5.71,12.98,-0.15,5
17,35104692274000,4.1,12.91,-1.88,5
17,35104752302000,-1.04,11.35,-4.9,5
17,35104802320000,2.87,11.88,0.5,5
17,35104852338000,2.76,9.58,-1.46,5
17,35104902326000,3.26,6.47,-1.31,5
17,35104952344000,1.73,4.14,-0.19,5
17,35105002332000,2.03,6.13,2.22,5
17,35105052320000,4.02,8.16,2.11,5
17,35105102338000,4.48,10.5,-0.65,5
17,35105152326000,3.26,14.71,2.96,5
17,35105202344000,2.11,14.48,0.08,5
17,35105252363000,0.84,11.03,-4.33,5
17,35105302350000,3.87,9.58,-3.6,5
17,35105352369000,3.6,8.39,-2.98,5
17,35105402326000,0.38,9.04,0.84,5
17,35105452344000,-0.11,5.98,-0.15,5
17,35105502332000,1.76,5.86,-0.3,5
17,35105552350000,4.33,9.04,0.27,5
17,35105602338000,4.21,10.08,0.46,5
17,35105652326000,4.1,10.08,0.93,5
17,35105702344000,6.63,11.07,0.95,5
17,35105752363000,4.44,12.91,-3.3,5
17,35105802320000,-0.61,11.11,-3.91,5
17,35105852338000,0.31,12.83,0.23,5
17,35105902326000,4.18,11.41,-0.72,5
17,35105952344000,4.48,6.36,-2.41,5
17,35106003126000,2.03,4.06,-0.65,5
17,35106052350000,0.72,5.67,2.72,5
17,35106102338000,3.3,8.58,1.61,5
17,35106152357000,4.18,10.04,-1.18,5
17,35106202344000,4.63,12.22,3.17,5
17,35106252332000,2.76,14.71,0.42,5
17,35106302350000,1.73,11.6,-3.41,5
17,35106352338000,1.76,9.58,-2.14,5
17,35106402326000,3.79,8.58,-2.72,5
17,35106452344000,2.07,10.15,-0.42,5
17,35106502332000,0.72,7.5,-0.46,5
17,35106552350000,0.8,4.75,0.53,5
17,35106602338000,3.06,7.78,0.53,5
17,35106652326000,5.28,9.43,0.5,5
17,35106702344000,4.4,9.47,1.23,5
17,35106752332000,5.79,10.69,1.27,5
17,35106802320000,5.37,13.44,-1.46,5
17,35106852338000,1.12,12.6,-4.25,5
17,35106902326000,-1.38,11.45,-2.72,5
17,35106952344000,2.22,11.41,0.42,5
17,35107002332000,4.14,8.62,-2.3,5
17,35107052350000,3.11,5.28,-1.38,5
17,35107102338000,0.84,4.82,0.61,5
17,35107152357000,2.56,7.12,2.87,5
17,35107202344000,4.79,9.38,0.27,5
17,35107252332000,4.18,11.73,0.8,5
17,35107322339000,2.34,14.82,0.8,5
17,35107372266000,1.92,11.35,-3.87,5
17,35107422346000,1.8,9.43,-2.91,5
17,35107472272000,3.6,9.38,-2.49,5
17,35107522321000,1.92,9.51,-0.42,5
17,35107572309000,0.46,7.46,-0.42,5
17,35107622327000,1.04,4.82,-0.15,5
17,35107672346000,2.96,7.01,0.11,5
17,35107722303000,4.71,9.7,0.46,5
17,35107772321000,4.48,10.27,0.89,5
17,35107822309000,6.09,10.46,1.04,5
17,35107872327000,5.71,12.98,-0.69,5
17,35107922315000,1.57,11.41,-4.02,5
17,35107972303000,-2.18,12.22,-3.34,5
17,35108022321000,2.11,12.87,1.08,5
17,35108072339000,3.76,9.0,-2.14,5
17,35108122327000,4.33,5.28,-1.65,5
17,35108172315000,1.33,4.48,-0.34,5
17,35108222333000,1.84,7.08,2.96,5
17,35108272413000,3.34,9.47,1.54,5
17,35108322339000,3.49,10.12,-0.69,5
17,35108372297000,2.76,14.63,2.53,5
17,35108422346000,4.02,14.29,-0.08,5
17,35108472303000,1.14,10.15,-4.29,5
17,35108522321000,3.06,8.96,-2.6,5
17,35108572339000,3.64,8.35,-1.92,5
17,35108622297000,2.22,9.47,-0.69,5
17,35108672315000,-0.3,6.97,-0.27,5
17,35108722303000,1.27,5.94,0.19,5
17,35108772840000,4.02,8.01,0.19,5
17,35108822339000,4.33,9.0,-0.11,5
17,35108872327000,4.71,10.31,1.38,5
17,35108922346000,6.32,11.65,0.38,5
17,35108972333000,4.6,13.76,-3.72,5
17,35109022321000,-0.8,12.37,-3.79,5
17,35109072309000,0.46,10.99,-0.53,5
17,35109122327000,3.68,10.34,-1.31,5
17,35109172315000,4.63,7.46,-2.11,5
17,35109222333000,1.84,5.33,-0.53,5
17,35109272321000,1.38,5.79,1.54,5
17,35109322339000,3.41,8.01,2.45,5
17,35109372327000,4.56,9.7,-1.73,5
17,35109422315000,4.25,12.57,3.45,5
17,35109472303000,3.38,13.38,0.38,5
17,35109522321000,1.88,11.96,-2.91,5
17,35109572339000,2.15,9.96,-2.49,5
17,35109622297000,3.95,8.92,-2.49,5
17,35109672346000,3.02,8.73,-1.08,5
17,35109722303000,0.38,8.08,-0.08,5
17,35109772291000,0.84,5.98,0.15,5
17,35109822370000,2.98,7.25,0.08,5
17,35109872327000,5.33,8.77,0.08,5
17,35109922346000,4.02,9.28,0.65,5
17,35109972333000,5.05,10.42,0.69,5
17,35110022535000,6.09,13.02,-0.15,5
17,35110072339000,3.26,12.91,-2.91,5
17,35110122297000,-0.11,12.07,-3.36,5
17,35110172315000,1.8,10.27,-1.61,5
17,35110222333000,4.06,8.66,-0.61,5
17,35110272321000,2.83,6.36,-1.14,5
17,35110272321000,2.83,6.36,-1.14,5
17,35110332685000,1.12,5.67,0.53,5
17,35110382337000,2.6,7.16,2.91,5
17,35110432325000,4.56,8.43,1.12,5
17,35110482404000,4.33,10.46,0.69,5
17,35110532331000,3.83,14.63,2.45,5
17,35110582532000,2.72,13.48,-0.23,5
17,35110632337000,0.8,9.53,-3.91,5
17,35110682691000,3.68,9.15,-2.75,5
17,35110732343000,3.91,8.92,-1.76,5
17,35110782331000,1.33,10.04,-0.61,5
17,35110832471000,-0.61,6.32,0.15,5
17,35110882337000,1.88,5.48,-0.23,5
17,35110932630000,4.21,8.73,0.23,5
17,35110982374000,4.79,10.12,0.0,5
17,35111032697000,5.56,10.46,1.76,5
17,35111082349000,6.4,11.3,-0.04,5
17,35111132368000,3.87,13.38,-3.79,5
17,35111182447000,-0.27,12.6,-3.87,5
17,35111232343000,0.42,10.92,-0.27,5
17,35111282636000,2.79,9.43,-1.33,5
17,35111332349000,3.34,6.66,-2.11,5
17,35111382337000,1.73,5.41,-0.3,5
17,35111432325000,1.8,5.9,1.57,5
17,35111482343000,4.21,8.39,2.68,5
17,35111532392000,4.44,10.38,-0.69,5
17,35111582349000,3.11,15.21,2.96,5
17,35111632490000,3.57,12.72,0.5,5
17,35111682325000,1.88,10.65,-4.1,5
17,35111732648000,3.6,9.19,-3.3,5
17,35111782361000,3.68,8.43,-1.65,5
17,35111832349000,1.38,8.62,-0.34,5
17,35111882337000,0.04,7.16,0.04,5
17,35111932325000,1.73,6.74,0.19,5
17,35111982435000,4.02,7.93,0.23,5
17,35112032331000,5.13,9.23,0.53,5
17,35112082563000,5.24,10.0,1.57,5
17,35112132337000,5.41,11.14,1.04,5
17,35112182783000,5.43,14.63,-2.18,5
17,35112232374000,0.69,10.46,-4.06,5
17,35112282331000,-0.57,10.76,-2.87,5
17,35112332441000,3.83,12.26,0.76,5
17,35112392347000,3.68,7.46,-2.41,5
17,35112452314000,1.73,4.4,-0.61,5
17,35112502332000,1.8,5.48,2.83,5
17,35112552320000,4.48,9.11,1.61,5
17,35112602338000,4.75,11.07,-0.38,5
17,35112652326000,4.44,12.83,2.87,5
17,35112702344000,2.45,13.14,-0.42,5
17,35112752332000,-0.08,11.54,-4.4,5
17,35112802320000,3.17,10.31,-2.26,5
17,35112852338000,3.87,8.73,-2.18,5
17,35112902326000,2.07,9.04,-0.27,5
17,35112952344000,0.53,6.82,-0.65,5
17,35113002363000,1.31,6.21,0.08,5
17,35113052289000,3.11,8.47,0.08,5
17,35113102338000,4.02,9.38,0.19,5
17,35113152296000,4.37,9.62,0.19,5
17,35113202344000,6.85,10.61,1.42,5
17,35113252332000,5.6,13.02,-1.38,5
17,35113302320000,1.31,11.18,-4.48,5
17,35113352338000,-1.18,12.87,-1.92,5
17,35113402326000,2.72,11.69,-0.38,5
17,35113452344000,4.14,8.35,-1.95,5
17,35113502363000,2.41,5.13,-1.38,5
17,35113552289000,1.08,5.13,0.27,5
17,35113602338000,2.91,7.86,2.49,5
17,35113652326000,4.79,8.81,0.84,5
17,35113702344000,3.06,9.92,0.11,5
17,35113752332000,3.6,14.37,3.34,5
17,35113802320000,2.96,13.14,0.19,5
17,35113852338000,1.31,10.34,-4.18,5
17,35113902326000,1.99,9.53,-2.83,5
17,35113952344000,3.79,9.28,-1.8,5
17,35114002912000,2.11,10.15,-0.38,5
17,35114002912000,2.11,10.15,-0.38,5
17,35114110425000,0.65,5.13,-0.08,5
17,35114162488000,3.79,9.23,0.42,5
17,35114212202000,4.06,9.85,0.0,5
17,35114262281000,4.44,9.51,1.33,5
17,35114312330000,6.13,10.76,0.04,5
17,35114362348000,4.52,14.1,-3.76,5
17,35114412336000,-0.84,11.92,-4.82,5
17,35114462324000,-0.72,11.8,1.23,5
17,35114512342000,3.3,11.3,-1.31,5
17,35114562360000,4.75,7.35,-2.41,5
17,35114612348000,1.69,5.28,-0.76,5
17,35114662366000,1.46,6.05,1.76,5
17,35114712324000,3.06,8.89,2.18,5
17,35114762342000,3.68,9.38,-0.38,5
17,35114812330000,3.79,11.18,2.91,5
17,35114862318000,2.76,13.76,0.27,5
17,35114912336000,2.3,12.3,-2.91,5
17,35114962354000,1.23,8.96,-2.98,5
17,35115012342000,3.45,8.81,-0.76,5
17,35115072339000,3.26,10.19,-0.76,5
17,35115122236000,1.08,8.28,0.42,5
17,35115172315000,0.93,5.22,0.42,5
17,35115222272000,2.76,7.06,0.31,5
17,35115272291000,4.44,9.62,0.57,5
17,35115322309000,3.45,10.19,1.54,5
17,35115372297000,6.7,10.46,1.33,5
17,35115422376000,5.48,12.07,-1.57,5
17,35115472303000,0.93,11.84,-4.29,5
17,35115522291000,-0.84,14.1,-2.72,5
17,35115572309000,2.07,11.88,-0.69,5
17,35115622297000,2.87,7.31,-1.33,5
17,35115672346000,3.38,4.52,-0.99,5
17,35115722303000,1.38,5.13,0.19,5
17,35115772291000,3.17,8.47,3.02,5
17,35115822309000,4.1,8.73,0.23,5
17,35115872297000,4.48,10.27,1.76,5
17,35115922315000,1.18,16.78,0.5,5
17,35115972394000,2.79,14.25,-4.02,5
17,35116022291000,2.45,8.01,-2.98,5
17,35116072309000,3.68,7.5,-2.98,5
17,35116122297000,1.31,10.42,0.04,5
17,35116172315000,0.04,8.69,-0.65,5
17,35116222303000,0.27,5.01,-0.23,5
17,35116272291000,2.34,6.82,0.0,5
17,35116322309000,4.02,8.66,0.27,5
17,35116372297000,4.06,10.92,0.8,5
17,35116422315000,7.4,11.26,0.95,5
17,35116472303000,5.37,13.59,-1.69,5
17,35116522291000,0.99,11.73,-4.56,5
17,35116572309000,-1.76,12.03,-2.07,5
17,35116622297000,2.03,10.76,0.15,5
17,35116672346000,3.76,8.73,-1.95,5
17,35116722303000,3.68,5.09,-1.5,5
17,35116772291000,1.42,4.9,0.38,5
17,35116822309000,2.87,7.82,3.06,5
17,35116872297000,4.25,9.0,0.34,5
17,35116922315000,4.14,10.73,1.31,5
17,35116972303000,3.02,15.24,1.38,5
17,35116972303000,3.02,15.24,1.38,5
17,35117042371000,2.83,14.1,-1.84,5
17,35117092237000,0.8,8.92,-3.06,5
17,35117142286000,3.11,8.31,-2.96,5
17,35117192365000,1.95,10.04,-0.99,5
17,35117252302000,0.42,8.28,-0.04,5
17,35117302320000,1.14,5.05,-0.08,5
17,35117352338000,3.68,8.01,-0.19,5
17,35117402326000,4.02,9.66,0.95,5
17,35117452344000,4.67,10.73,1.61,5
17,35117502332000,7.01,10.99,0.08,5
17,35117552320000,4.44,12.87,-5.01,5
17,35117602338000,-1.42,13.76,-4.44,5
17,35117652326000,-0.76,13.14,1.5,5
17,35117702344000,2.68,9.0,-2.07,5
17,35117752332000,4.75,5.75,-2.49,5
17,35117802320000,2.18,4.9,-0.76,5
17,35117852338000,0.95,6.97,2.18,5
17,35117902326000,2.96,8.54,2.56,5
17,35117952344000,4.52,9.08,-2.34,5
17,35118002698000,3.17,13.99,3.41,5
17,35118052289000,3.06,16.63,-0.04,5
17,35118102338000,1.12,10.5,-4.1,5
17,35118152326000,3.11,8.43,-3.02,5
17,35118202405000,2.91,8.66,-3.06,5
17,35118252332000,1.12,9.7,-0.08,5
17,35118302320000,-0.04,7.12,-0.3,5
17,35118352338000,0.99,5.22,-0.04,5
17,35118402326000,3.57,7.67,-0.65,5
17,35118452344000,4.75,9.85,-0.15,5
17,35118502332000,3.53,11.3,1.38,5
17,35118552412000,6.51,10.88,1.23,5
17,35118602338000,7.27,12.72,-2.11,5
17,35118652326000,1.84,10.27,-5.24,5
17,35118702375000,-3.26,12.03,-2.79,5
17,35118752332000,2.18,13.21,1.46,5
17,35118802320000,4.63,8.35,-2.3,5
17,35118852338000,4.37,4.48,-2.26,5
17,35118902326000,1.23,4.44,-0.23,5
17,35118952344000,2.56,7.01,3.17,5
17,35119002332000,4.79,9.89,0.46,5
17,35119052320000,3.6,11.73,1.92,5
17,35119102338000,1.69,16.13,0.8,5
17,35119152326000,2.83,13.21,-2.91,5
17,35119202375000,2.41,9.62,-4.44,5
17,35119252332000,4.25,8.54,-2.91,5
17,35119302320000,1.95,8.08,-1.38,5
17,35119352338000,-1.12,8.2,-0.11,5
17,35119402326000,0.19,5.94,0.23,5
17,35119452344000,3.57,7.08,-0.27,5
17,35119502332000,4.67,8.77,0.61,5
17,35119552289000,4.37,9.7,1.31,5
17,35119602338000,7.16,10.8,1.84,5
17,35119652326000,6.17,12.98,-1.95,5
17,35119702344000,1.88,11.3,-6.09,5
17,35119752332000,-2.53,13.63,-3.11,5
17,35119802320000,2.72,12.76,2.26,5
17,35119852338000,4.44,7.67,-3.06,5
17,35119902326000,4.63,4.56,-2.26,5
17,35119952344000,0.53,4.6,0.27,5
17,35120002637000,1.92,7.06,3.17,5
17,35120052289000,4.18,9.66,0.89,5
17,35120102308000,3.76,10.99,1.65,5
17,35120152296000,1.88,15.94,0.34,5
17,35120202283000,2.83,14.33,-1.84,5
17,35120252332000,3.3,9.62,-3.72,5
17,35120302320000,3.99,7.86,-3.68,5
17,35120352338000,1.18,9.0,-0.53,5
17,35120402326000,-0.5,8.54,0.04,5
17,35120452344000,0.08,5.24,0.34,5
17,35120502332000,3.68,7.08,-0.53,5
17,35120552320000,5.71,9.08,0.31,5
17,35120602338000,3.79,9.66,1.12,5
17,35120652326000,6.4,10.57,1.95,5
17,35120702344000,7.25,12.98,-1.04,5
17,35120752363000,2.68,12.03,-4.79,5
17,35120802320000,-1.46,13.8,-3.26,5
17,35120852338000,0.27,11.5,-0.15,5
17,35120902326000,2.56,8.58,-0.91,5
17,35120952405000,4.21,4.79,-1.23,5
17,35121002332000,2.96,3.38,0.5,5
17,35121052320000,3.49,5.98,2.53,5
17,35121102338000,2.83,9.92,0.69,5
17,35121152326000,3.87,13.99,4.21,5
17,35121202344000,2.72,14.44,1.42,5
17,35121252332000,2.87,11.99,-3.64,5
17,35121302320000,1.88,9.66,-3.53,5
17,35121352338000,4.02,9.28,-2.53,5
17,35121402326000,2.37,7.97,-0.89,5
17,35121452344000,-0.53,8.08,-0.08,5
17,35121502332000,0.04,5.9,0.72,5
17,35121552289000,3.87,7.06,-0.08,5
17,35121602338000,4.86,8.92,0.57,5
17,35121652326000,4.56,10.12,1.84,5
17,35121702344000,5.79,11.11,1.54,5
17,35121752332000,6.28,12.95,-2.37,5
17,35121802320000,1.76,12.26,-6.05,5
17,35121852338000,-1.84,13.14,-1.84,5
17,35121902326000,2.49,11.14,1.18,5
17,35121952344000,4.82,7.46,-3.11,5
17,35122003461000,3.3,4.56,-1.31,5
17,35122062330000,0.19,4.94,1.04,5
17,35122112348000,4.21,8.08,3.41,5
17,35122162336000,5.48,11.18,-2.96,5
17,35122212324000,2.3,14.37,3.11,5
17,35122262372000,1.76,15.51,0.27,5
17,35122312330000,2.34,10.8,-5.28,5
17,35122362348000,3.99,9.11,-3.91,5
17,35122412336000,2.87,8.47,-2.72,5
17,35122462293000,-0.72,8.89,0.34,5
17,35122512342000,-0.76,6.28,-0.42,5
17,35122562330000,1.73,5.86,-0.3,5
17,35122612348000,4.33,8.2,-0.65,5
17,35122662336000,5.05,9.89,0.76,5
17,35122712324000,5.79,10.8,1.73,5
17,35122762342000,7.27,10.99,-0.72,5
17,35122822339000,3.3,13.76,-5.28,5
17,35122872236000,-1.5,13.29,-3.83,5
17,35122922346000,0.72,12.15,1.61,5
17,35122972272000,4.4,8.39,-2.45,5
17,35123022291000,4.4,4.82,-2.72,5
17,35123072370000,0.76,4.33,0.27,5
17,35123122297000,2.15,6.66,2.83,5
17,35123172315000,4.9,8.89,0.93,5
17,35123222303000,4.82,11.41,0.99,5
17,35123272321000,1.69,16.51,1.18,5
17,35123322309000,2.03,12.03,-1.46,5
17,35123372297000,1.73,11.26,-4.52,5
17,35123422315000,4.67,9.34,-3.3,5
17,35123472303000,3.3,7.93,-1.53,5
17,35123522291000,-0.76,7.82,0.34,5
17,35123572309000,-0.27,5.43,0.27,5
17,35123622297000,2.15,6.74,-0.84,5
17,35123672315000,4.79,9.04,-0.84,5
17,35123722303000,4.71,10.92,1.38,5
17,35123772291000,5.71,11.35,2.26,5
17,35123772291000,5.71,11.35,2.26,5
17,35123862348000,4.67,13.72,-4.86,5
17,35123912336000,-1.38,14.1,-4.67,5
17,35123962324000,-1.84,11.73,0.84,5
17,35124012250000,3.21,8.73,-0.34,5
17,35124062330000,5.41,4.86,-3.49,5
17,35124112348000,2.56,4.14,-0.5,5
17,35124162336000,0.69,6.21,2.96,5
17,35124212324000,3.49,8.73,2.3,5
17,35124262342000,5.09,11.03,-1.14,5
17,35124312330000,3.15,15.55,2.26,5
17,35124362348000,2.98,14.86,-1.5,5
17,35124412336000,0.27,9.96,-3.98,5
17,35124462324000,2.83,9.81,-1.88,5
17,35124512372000,3.83,9.43,-2.96,5
17,35124562330000,1.33,8.89,-0.15,5
17,35124612348000,-0.61,5.09,0.27,5
17,35124662336000,1.08,4.52,-0.04,5
17,35124712324000,3.21,8.2,-0.53,5
17,35124762342000,3.83,10.73,1.46,5
17,35124812330000,5.9,11.69,2.26,5
17,35124862348000,7.86,11.07,-1.23,5
17,35124912336000,3.41,13.06,-5.6,5
17,35124962324000,-2.41,15.05,-2.68,5
17,35125012342000,0.08,12.41,0.34,5
17,35125062330000,3.83,7.89,-1.99,5
17,35125112348000,5.01,4.18,-2.56,5
17,35125162336000,1.84,3.38,0.08,5
17,35125212324000,1.76,6.02,2.37,5
17,35125262433000,4.06,10.42,1.76,5
17,35125262433000,4.06,10.42,1.76,5
17,35125332532000,4.06,13.02,2.6,5
17,35125382337000,2.11,15.28,0.93,5
17,35125432966000,1.69,12.45,-4.14,5
17,35125482435000,3.34,9.53,-3.06,5
17,35125532331000,3.64,8.62,-3.11,5
17,35125582624000,1.23,8.89,-0.46,5
17,35125632337000,-0.91,7.25,0.08,5
17,35125682325000,0.31,5.52,0.65,5
17,35125732343000,3.45,7.44,-0.19,5
17,35125782331000,5.01,8.39,0.57,5
17,35125832380000,4.9,10.12,1.57,5
17,35125882398000,7.08,11.07,1.23,5
17,35125932325000,5.22,13.25,-4.18,5
17,35125982618000,-0.3,12.3,-5.13,5
17,35126032331000,-1.42,15.09,0.46,5
17,35126082349000,3.72,10.23,-1.12,5
17,35126132429000,4.75,5.86,-2.79,5
17,35126182325000,2.96,3.76,-0.91,5
17,35126232648000,0.46,5.56,1.65,5
17,35126282331000,2.83,9.04,2.41,5
17,35126332349000,3.87,10.65,-0.91,5
17,35126382337000,4.06,12.45,2.64,5
17,35126432355000,2.64,15.21,0.34,5
17,35126482526000,1.92,12.45,-4.06,5
17,35126532331000,2.76,8.08,-2.45,5
17,35126582746000,3.02,8.58,-3.34,5
17,35126632337000,1.08,10.5,-0.57,5
17,35126682325000,-0.5,7.82,-0.15,5
17,35126732526000,0.46,4.63,0.23,5
17,35126782361000,3.57,7.06,-1.08,5
17,35126832715000,5.24,9.72,0.72,5
17,35126882337000,5.22,10.19,1.46,5
17,35126932325000,7.4,10.08,0.61,5
17,35126982404000,4.48,13.06,-3.21,5
17,35127032331000,-0.57,13.53,-5.56,5
17,35127082502000,-1.46,14.48,-0.72,5
17,35127132337000,2.91,10.08,-1.12,5
17,35127182691000,4.67,6.51,-2.6,5
17,35127232343000,3.11,4.63,-0.65,5
17,35127282331000,1.38,5.05,0.95,5
17,35127332441000,2.87,7.86,2.56,5
17,35127382337000,3.95,9.92,-0.19,5
17,35127432630000,3.72,13.21,3.99,5
17,35127482343000,2.68,14.79,-0.11,5
17,35127532819000,2.22,12.49,-2.83,5
17,35127582441000,2.98,9.38,-3.3,5
17,35127632337000,3.15,7.74,-3.3,5
17,35127682599000,2.07,9.0,-0.72,5
17,35127732343000,-0.19,8.47,-0.08,5
17,35127782728000,0.23,6.09,0.38,5
17,35127832380000,3.34,7.21,-0.69,5
17,35127892347000,4.33,8.39,0.42,5
17,35127952314000,4.21,11.07,1.27,5
17,35128002576000,6.74,11.22,0.76,5
17,35128052289000,3.79,12.49,-3.76,5
17,35128102338000,-0.61,11.3,-5.41,5
17,35128152326000,0.34,14.86,0.8,5
17,35128202344000,3.41,10.5,-1.46,5
17,35128252332000,4.29,5.6,-2.34,5
17,35128302289000,2.41,3.99,-0.95,5
17,35128352338000,0.72,6.47,1.65,5
17,35128402326000,2.87,8.96,2.22,5
17,35128452344000,4.33,10.34,-1.08,5
17,35128502332000,4.21,14.56,3.6,5
17,35128552289000,2.72,13.14,-0.3,5
17,35128602338000,1.38,10.8,-3.98,5
17,35128652326000,2.49,9.3,-2.26,5
17,35128702344000,3.72,8.58,-3.02,5
17,35128752332000,1.14,9.19,-0.84,5
17,35128802350000,-0.8,7.55,0.42,5
17,35128852338000,1.14,5.98,-0.08,5
17,35128902326000,3.68,7.35,-0.72,5
17,35128952344000,4.44,9.58,0.27,5
17,35129002332000,4.56,11.07,1.65,5
17,35129052289000,7.01,13.1,0.99,5
17,35129102338000,5.56,12.95,-2.87,5
17,35129152326000,1.12,8.66,-5.43,5
17,35129202344000,-2.37,13.02,-1.18,5
17,35129252332000,3.53,11.41,0.27,5
17,35129302289000,4.82,6.66,-2.83,5
17,35129352338000,2.56,4.99,-0.76,5
17,35129402326000,0.61,6.09,0.89,5
17,35129452344000,3.41,8.12,2.72,5
17,35129502332000,5.13,9.89,-0.27,5
17,35129552289000,5.63,13.38,1.92,5
17,35129602338000,1.46,14.9,0.53,5
17,35129652326000,0.34,11.35,-3.41,5
17,35129702344000,2.76,10.08,-2.75,5
17,35129752332000,4.9,8.96,-3.3,5
17,35129802320000,2.22,7.89,-1.04,5
17,35129852338000,-1.31,6.17,0.31,5
17,35129902357000,0.08,5.33,0.65,5
17,35129952344000,3.38,7.89,-0.61,5
17,35129952344000,3.38,7.89,-0.61,5
17,35130052106000,4.25,10.92,1.8,5
17,35130102308000,7.06,12.15,1.61,5
17,35130152265000,5.63,11.99,-2.96,5
17,35130202344000,1.27,9.0,-6.02,5
17,35130252332000,-1.57,13.91,-2.37,5
17,35130302289000,3.87,12.37,1.61,5
17,35130352338000,4.86,6.13,-4.06,5
17,35130402357000,2.83,4.44,-0.84,5
17,35130452344000,0.5,5.22,1.42,5
17,35130502332000,3.87,7.74,1.84,5
17,35130572370000,4.9,10.69,-1.33,5
17,35130622266000,2.34,14.6,0.53,5
17,35130672346000,2.41,13.59,-2.45,5
17,35130722242000,1.99,10.53,-3.41,5
17,35130772291000,5.37,9.3,-3.02,5
17,35130822309000,2.11,8.08,-1.27,5
17,35130872297000,-1.61,8.35,-0.38,5
17,35130922315000,-0.76,5.41,0.57,5
17,35130972303000,2.56,6.44,-0.57,5
17,35131022291000,4.86,8.96,-0.04,5
17,35131072309000,5.83,10.12,0.72,5
17,35131122297000,7.21,10.65,1.84,5
17,35131172315000,5.43,11.96,-1.53,5
17,35131222303000,1.69,11.5,-6.36,5
17,35131272260000,-1.76,14.44,-3.26,5
17,35131322309000,3.02,13.72,2.34,5
17,35131372297000,3.91,7.01,-3.11,5
17,35131422315000,4.56,3.64,-1.42,5
17,35131472303000,1.04,4.4,0.31,5
17,35131522291000,2.41,7.93,3.49,5
17,35131572309000,3.91,9.43,-0.38,5
17,35131622297000,4.79,11.35,3.3,5
17,35131672315000,1.54,15.83,-0.23,5
17,35131722303000,2.11,15.05,-2.98,5
17,35131772291000,3.53,9.34,-3.91,5
17,35131822309000,3.87,7.7,-3.45,5
17,35131872327000,0.65,9.15,-0.42,5
17,35131922315000,-0.57,8.05,-0.5,5
17,35131972333000,0.27,5.05,0.95,5
17,35132022291000,3.57,6.93,-0.84,5
17,35132072339000,5.86,9.51,1.18,5
17,35132122297000,5.28,10.0,1.8,5
17,35132172315000,6.17,11.56,0.89,5
17,35132222303000,5.33,11.88,-3.91,5
17,35132272291000,0.15,12.37,-5.2,5
17,35132322339000,0.08,15.24,-0.27,5
17,35132372297000,4.06,10.15,-1.23,5
17,35132422346000,4.79,5.56,-3.26,5
17,35132472303000,2.03,4.06,-0.84,5
17,35132522291000,0.38,6.28,2.15,5
17,35132572309000,3.53,8.35,2.11,5
17,35132622327000,4.44,8.85,-1.73,5
17,35132672315000,4.71,11.45,3.57,5
17,35132722303000,2.15,13.95,-0.23,5
17,35132772291000,1.73,14.56,-3.6,5
17,35132822309000,4.48,10.38,-3.53,5
17,35132872297000,4.14,7.67,-4.4,5
17,35132922315000,0.0,8.39,0.08,5
17,35132972303000,-1.57,8.16,0.15,5
17,35133022321000,0.89,6.44,-0.19,5
17,35133072309000,4.1,7.4,-0.69,5
17,35133122297000,5.98,8.35,0.19,5
17,35133172315000,4.99,9.0,0.53,5
17,35133222303000,5.9,10.57,0.84,5
17,35133272291000,5.37,12.87,-2.49,5
17,35133322309000,0.19,13.44,-6.36,5
17,35133372297000,-1.88,14.63,-0.42,5
17,35133422346000,3.68,11.56,-0.19,5
17,35133472303000,5.24,6.89,-3.21,5
17,35133522321000,3.57,3.49,-1.53,5
17,35133572309000,0.42,4.82,1.46,5
17,35133622297000,2.56,8.2,2.76,5
17,35133672315000,3.87,9.72,-1.14,5
17,35133722303000,3.34,11.65,2.3,5
17,35133772291000,2.49,17.2,-0.19,5
17,35133822309000,3.49,13.72,-2.68,5
17,35133872297000,4.25,7.82,-4.18,5
17,35133922376000,2.56,7.27,-3.11,5
17,35133972303000,1.04,9.3,0.23,5
17,35134022291000,0.23,8.58,-0.57,5
17,35134072309000,0.53,5.67,0.53,5
17,35134122297000,3.53,7.08,-0.65,5
17,35134172315000,5.37,8.66,0.34,5
17,35134222303000,4.4,10.08,0.8,5
17,35134272291000,5.98,10.57,0.69,5
17,35134322309000,5.52,12.6,-1.88,5
17,35134372297000,1.23,13.72,-6.78,5
17,35134422315000,-2.26,13.57,-0.69,5
17,35134472303000,2.68,10.69,0.08,5
17,35134522291000,5.48,7.82,-2.75,5
17,35134572309000,3.79,4.33,-1.53,5
17,35134622297000,0.95,5.24,0.69,5
17,35134672407000,1.76,7.7,2.03,5
17,35134722303000,3.99,9.38,0.0,5
17,35134772291000,4.71,11.88,2.45,5
17,35134822309000,4.37,13.4,0.11,5
17,35134872297000,3.06,13.76,-2.64,5
17,35134922315000,2.3,10.53,-3.49,5
17,35134972303000,3.53,8.58,-3.3,5
17,35135022291000,1.99,8.05,-1.14,5
17,35135072339000,-0.5,8.85,-0.27,5
17,35135122297000,0.65,6.44,-0.5,5
17,35135172315000,3.34,6.85,-0.53,5
17,35135222303000,3.99,7.93,-0.38,5
17,35135272260000,3.64,10.34,1.33,5
17,35135272260000,3.64,10.34,1.33,5
17,35135332349000,6.44,10.8,1.27,5
17,35135382337000,6.05,12.22,-2.03,5
17,35135432416000,1.46,12.15,-5.86,5
17,35135482343000,-1.65,14.21,-0.8,5
17,35135532636000,3.87,11.11,-0.38,5
17,35135582349000,5.05,7.16,-2.96,5
17,35135642347000,2.79,4.1,-1.12,5
17,35135702314000,0.65,5.05,1.46,5
17,35135752332000,3.26,8.77,2.45,5
17,35135802320000,5.52,10.12,-1.27,5
17,35135852369000,3.91,14.56,3.79,5
17,35135902326000,2.76,14.63,-0.72,5
17,35135952375000,2.91,11.35,-3.36,5
17,35136002637000,4.25,8.01,-3.72,5
17,35136052320000,3.26,8.62,-1.88,5
17,35136102338000,0.23,9.77,0.38,5
17,35136152326000,0.15,7.08,-0.61,5
17,35136202344000,0.99,5.05,0.27,5
17,35136252332000,3.79,7.7,-0.72,5
17,35136302259000,3.87,9.11,1.31,5
17,35136352338000,5.18,10.46,1.27,5
17,35136402326000,7.7,12.57,0.23,5
17,35136452344000,4.21,13.29,-3.91,5
17,35136502332000,-1.42,12.53,-4.37,5
17,35136552320000,0.0,13.33,1.31,5
17,35136602338000,4.06,9.19,-2.11,5
17,35136652326000,5.24,5.79,-2.14,5
17,35136702344000,2.11,3.87,-0.38,5
17,35136752332000,1.23,5.86,2.53,5
17,35136802320000,3.76,8.16,2.56,5
17,35136852338000,4.63,9.3,-1.8,5
17,35136902326000,3.68,14.98,5.13,5
17,35136952344000,2.07,14.41,-1.53,5
17,35137002332000,2.45,12.57,-4.14,5
17,35137052350000,5.33,9.19,-3.95,5
17,35137102308000,2.49,7.63,-2.83,5
17,35137152387000,-0.95,9.19,1.04,5
17,35137202344000,-0.5,6.51,-0.53,5
17,35137252332000,2.07,6.4,0.15,5
17,35137302289000,5.67,8.31,-0.3,5
17,35137352338000,4.79,8.28,0.8,5
17,35137402357000,6.02,9.62,1.99,5
17,35137452314000,6.21,11.22,0.23,5
17,35137502363000,3.11,13.95,-5.05,5
17,35137552320000,-0.8,13.57,-4.02,5
17,35137602338000,0.65,13.44,0.69,5
17,35137652326000,3.64,8.73,-2.11,5
17,35137702344000,5.13,5.24,-2.45,5
17,35137752332000,1.92,4.1,-0.34,5
17,35137802320000,1.69,6.66,2.87,5
17,35137852338000,3.49,9.47,1.18,5
17,35137902296000,3.49,10.08,-0.5,5
17,35137952344000,3.45,13.4,2.96,5
17,35138002881000,3.53,13.95,-0.84,5
17,35138052320000,1.27,11.22,-3.95,5
17,35138102338000,4.6,9.81,-3.21,5
17,35138152326000,3.41,8.58,-2.3,5
17,35138202344000,0.65,9.11,0.0,5
17,35138252332000,-0.69,6.93,0.11,5
17,35138302289000,1.69,6.02,-0.34,5
17,35138372327000,4.99,8.2,-0.34,5
17,35138422285000,4.82,9.11,1.57,5
17,35138472333000,5.24,10.34,1.54,5
17,35138522230000,5.79,10.99,0.0,5
17,35138572309000,3.15,11.37,-2.6,5
17,35138622297000,-1.04,11.75,-3.64,5
17,35138672315000,3.11,15.6,2.6,5
17,35138722303000,4.37,9.43,-2.75,5
17,35138772291000,4.4,3.64,-1.73,5
17,35138822309000,0.57,4.33,1.04,5
17,35138872297000,1.92,6.7,2.18,5
17,35138922315000,3.79,9.08,1.23,5
17,35138972303000,3.49,10.27,0.8,5
17,35139022352000,3.02,14.6,3.34,5
17,35139072309000,1.84,13.91,-0.72,5
17,35139122297000,2.37,10.5,-2.37,5
17,35139172315000,5.33,8.89,-3.21,5
17,35139222303000,3.34,8.85,-0.99,5
17,35139272291000,0.19,8.92,0.15,5
17,35139322309000,-1.38,4.86,0.99,5
17,35139372907000,2.56,5.48,-0.3,5
17,35139422315000,5.28,9.72,-0.08,5
17,35139472303000,4.18,11.41,0.34,5
17,35139522291000,5.01,10.19,3.02,5
17,35139572309000,4.71,9.81,-2.64,5
17,35139622297000,1.69,13.33,-5.24,5
17,35139672315000,2.07,17.24,0.84,5
17,35139722303000,3.3,12.87,-1.12,5
17,35139772291000,2.91,4.94,-3.3,5
17,35139822309000,1.88,2.22,-0.8,5
17,35139872297000,0.19,4.33,1.99,5
17,35139922315000,3.38,9.11,1.54,5
17,35139972303000,5.05,10.38,0.0,5
17,35140022291000,4.02,11.18,3.64,5
17,35140072309000,2.18,14.98,-0.3,5
17,35140122297000,2.72,14.33,-2.56,5
17,35140172315000,2.83,8.81,-2.37,5
17,35140222303000,3.68,7.27,-2.98,5
17,35140272291000,1.5,9.34,0.15,5
17,35140322309000,0.04,8.54,-0.38,5
17,35140372297000,-0.08,5.22,-0.04,5
17,35140422315000,2.45,7.12,-0.08,5
17,35140472303000,4.14,9.19,0.69,5
17,35140522291000,4.25,10.46,1.23,5
17,35140572370000,6.89,11.03,2.49,5
17,35140622297000,5.9,11.07,-1.73,5
17,35140672315000,1.18,11.37,-5.09,5
17,35140722333000,-1.8,13.63,-1.42,5
17,35140772291000,3.3,15.24,1.76,5
17,35140822309000,4.33,7.46,-3.06,5
17,35140872297000,4.99,1.61,-1.73,5
17,35140922315000,0.27,3.68,1.42,5
17,35140972303000,2.45,8.16,1.08,5
17,35141022291000,3.91,11.84,-0.19,5
17,35141072370000,2.56,11.35,2.68,5
17,35141122297000,2.03,17.08,-0.3,5
17,35141172315000,3.76,14.33,-3.15,5
17,35141222303000,4.1,7.55,-3.36,5
17,35141272260000,3.26,8.2,-1.08,5
17,35141322309000,1.73,9.0,0.0,5
17,35141372297000,0.34,4.6,0.23,5
17,35141422285000,0.76,4.6,1.04,5
17,35141472303000,4.48,9.89,0.04,5
17,35141522291000,4.25,10.61,0.95,5
17,35141572309000,3.87,8.69,2.03,5
17,35141622297000,6.24,11.96,1.73,5
17,35141672315000,5.52,13.4,-3.98,5
17,35141722303000,-0.8,12.68,-2.64,5
17,35141772291000,0.61,11.96,1.76,5
17,35141822309000,3.83,10.42,-1.84,5
17,35141872297000,4.86,6.05,-2.3,5
17,35141922315000,0.5,4.33,0.23,5
17,35141972303000,0.57,4.67,2.26,5
17,35142022291000,3.45,7.97,2.11,5
17,35142072309000,6.13,12.76,-0.15,5
17,35142122297000,4.48,12.45,3.68,5
17,35142172315000,2.15,12.95,0.8,5
17,35142222303000,1.14,11.75,-3.83,5
17,35142272291000,2.45,10.84,-1.69,5
17,35142322309000,4.71,7.4,-1.95,5
17,35142372297000,1.8,8.96,0.31,5
17,35142422315000,-0.08,6.7,0.0,5
17,35142472272000,0.95,4.99,0.0,5
17,35142522291000,3.11,7.93,0.42,5
17,35142572309000,5.01,10.31,0.95,5
17,35142622327000,5.28,10.61,2.3,5
17,35142672315000,6.74,10.76,1.04,5
17,35142722303000,3.6,11.92,-3.98,5
17,35142772291000,-1.04,12.68,-5.41,5
17,35142822309000,0.38,16.02,2.26,5
17,35142872297000,3.76,9.85,-1.53,5
17,35142922346000,4.63,3.91,-3.49,5
17,35142972333000,1.12,3.26,-1.12,5
17,35143022291000,-0.19,6.4,3.64,5
17,35143072309000,3.11,9.7,0.99,5
17,35143122327000,4.9,13.02,0.23,5
17,35143172346000,2.91,13.38,2.6,5
17,35143222303000,2.18,12.95,-0.95,5
17,35143272291000,0.95,11.26,-4.44,5
17,35143322339000,4.21,9.92,-3.3,5
17,35143372297000,4.18,8.31,-2.45,5
17,35143372297000,4.18,8.31,-2.45,5
17,35143442274000,-0.34,9.43,0.95,5
17,35143492261000,-0.5,4.63,0.5,5
17,35143542371000,2.6,6.66,-0.08,5
17,35143602308000,4.82,9.66,0.5,5
17,35143652326000,5.52,10.19,1.88,5
17,35143702344000,7.55,11.96,-0.15,5
17,35143752332000,2.41,13.82,-3.87,5
17,35143802320000,-2.07,14.29,-2.68,5
17,35143852338000,0.61,11.5,0.8,5
17,35143902326000,2.34,8.35,-1.99,5
17,35143952344000,3.45,4.75,-0.99,5
17,35144002576000,2.26,3.79,0.11,5
17,35144052320000,2.53,6.36,2.03,5
17,35144102521000,3.72,8.69,-0.95,5
17,35144152357000,3.02,13.21,1.69,5
17,35144202344000,1.23,16.28,2.91,5
17,35144252332000,-1.46,10.57,-1.95,5
17,35144302320000,-0.91,13.82,-4.56,5
17,35144352338000,2.45,9.72,-2.96,5
17,35144402326000,8.2,10.12,-4.02,5
17,35144452314000,5.28,7.67,-0.3,5
17,35144502332000,1.61,4.6,-0.08,5
17,35144552320000,1.23,5.86,-3.91,5
17,35144602338000,2.18,8.39,1.04,5
17,35144652326000,0.57,11.18,1.99,5
17,35144702344000,2.18,10.65,2.87,5
17,35144752332000,8.89,9.81,-3.06,5
17,35144802320000,2.96,14.25,-8.66,5
17,35144852338000,-0.57,19.11,2.53,5
17,35144902326000,1.27,12.15,0.04,5
17,35144952314000,4.48,3.02,-3.3,5
17,35144952314000,4.48,3.02,-3.3,5
17,35145042463000,-0.76,4.48,2.64,5
17,35145102125000,4.1,9.53,0.76,5
17,35145152357000,4.71,10.92,0.0,5
17,35145202283000,2.6,13.91,3.99,5
17,35145252332000,0.69,15.28,-1.88,5
17,35145312391000,0.76,11.14,-3.57,5
17,35145362318000,4.1,9.19,-3.36,5
17,35145412336000,2.34,8.58,-0.8,5
17,35145462293000,0.38,8.47,1.14,5
17,35145512342000,0.95,4.25,-0.5,5
17,35145562330000,2.26,5.86,-0.46,5
17,35145612318000,4.82,9.3,0.57,5
17,35145662336000,5.01,10.76,1.76,5
17,35145712324000,7.44,11.45,1.57,5
17,35145762342000,5.22,11.5,-3.15,5
17,35145812330000,-0.53,12.49,-4.56,5
17,35145862348000,-0.95,16.78,-1.23,5
17,35145912244000,2.79,11.99,-0.23,5
17,35145962324000,3.6,5.86,-2.34,5
17,35146012250000,3.02,1.73,-0.46,5
17,35146062330000,0.84,3.57,1.88,5
17,35146112318000,3.72,11.99,-0.08,5
17,35146172346000,4.48,11.99,-0.08,5
17,35146222242000,3.17,14.48,5.18,5
17,35146272321000,0.89,13.33,-1.12,5
17,35146322248000,0.46,12.68,-4.44,5
17,35146372297000,3.68,11.41,-3.34,5
17,35146422315000,3.79,8.47,-2.34,5
17,35146472303000,-0.04,7.16,0.95,5
17,35146522321000,-0.3,4.29,0.23,5
17,35146572309000,2.3,5.43,-0.69,5
17,35146622297000,2.83,9.19,0.76,5
17,35146672315000,3.53,11.07,1.33,5
17,35146722303000,7.93,11.35,3.6,5
17,35146772291000,6.97,10.42,-0.99,5
17,35146822309000,2.49,11.41,-5.98,5
17,35146872297000,-1.27,16.44,-3.26,5
17,35146922315000,0.76,13.95,1.73,5
17,35146972303000,3.76,6.59,-1.95,5
17,35147022291000,4.48,2.22,-1.88,5
17,35147072339000,0.46,4.02,0.93,5
17,35147122297000,2.91,8.43,3.17,5
17,35147172315000,5.22,10.84,0.5,5
17,35147222303000,3.45,9.51,2.76,5
17,35147272291000,1.46,16.74,1.57,5
17,35147322309000,1.95,14.67,-4.67,5
17,35147372297000,2.03,8.16,-3.3,5
17,35147422315000,4.6,9.04,-3.06,5
17,35147472303000,1.99,9.34,-0.46,5
17,35147522291000,-1.23,7.35,0.11,5
17,35147572339000,-0.69,3.21,0.69,5
17,35147622327000,2.45,7.31,-0.11,5
17,35147672315000,5.28,10.99,0.95,5
17,35147722303000,6.05,10.99,1.73,5
17,35147772321000,8.28,10.57,0.34,5
17,35147822309000,3.68,13.06,-4.79,5
17,35147872297000,-1.46,14.79,-4.59,5
17,35147922315000,-0.15,13.48,1.69,5
17,35147972303000,2.76,8.5,-1.53,5
17,35148022291000,4.9,4.67,-1.42,5
17,35148072309000,3.53,3.06,-0.15,5
17,35148122297000,1.65,6.02,1.95,5
17,35148172315000,2.53,9.43,2.72,5
17,35148222303000,2.76,10.53,0.15,5
17,35148272291000,2.3,15.75,2.26,5
17,35148322309000,2.72,16.36,-1.14,5
17,35148372297000,0.89,10.0,-4.1,5
17,35148422315000,3.64,8.2,-3.02,5
17,35148472303000,2.76,7.74,-2.79,5
17,35148522291000,0.34,9.62,1.42,5
17,35148572309000,-0.34,5.56,0.34,5
17,35148622297000,2.53,5.71,-0.38,5
17,35148672315000,3.21,8.35,0.93,5
17,35148722303000,4.29,9.92,1.23,5
17,35148772291000,7.59,11.22,3.79,5
17,35148822309000,5.6,11.35,-0.95,5
17,35148872297000,1.18,13.25,-4.14,5
17,35148922315000,-0.46,16.78,-2.98,5
17,35148972303000,1.99,10.53,-0.5,5
17,35149022321000,2.07,6.28,-0.99,5
17,35149072339000,3.83,3.68,-1.27,5
17,35149122297000,2.56,4.71,0.34,5
17,35149172346000,3.91,8.54,1.69,5
17,35149222303000,3.15,10.08,2.41,5
17,35149272291000,2.6,10.15,1.57,5
17,35149322309000,2.98,15.21,1.76,5
17,35149372297000,2.03,14.44,-2.98,5
17,35149422315000,1.23,10.42,-3.36,5
17,35149472303000,3.95,9.3,-2.53,5
17,35149522291000,2.6,7.89,-1.42,5
17,35149572309000,-0.15,7.78,0.0,5
17,35149622297000,-0.84,5.67,0.42,5
17,35149672315000,1.14,7.31,0.27,5
17,35149722303000,3.91,9.28,1.65,5
17,35149772321000,4.82,9.51,1.14,5
17,35149822309000,8.08,10.92,2.15,5
17,35149872297000,6.85,12.07,-2.14,5
17,35149922315000,-0.11,13.33,-4.9,5
17,35149972333000,-2.22,15.36,0.42,5
17,35150022291000,1.95,10.08,-0.3,5
17,35150072339000,4.94,5.98,-2.34,5
17,35150122297000,2.87,4.44,-0.46,5
17,35150172315000,1.27,5.41,2.15,5
17,35150222333000,3.17,7.27,2.26,5
17,35150272291000,4.48,9.72,0.0,5
17,35150322309000,4.14,14.41,4.21,5
17,35150372297000,0.34,16.13,-1.33,5
17,35150422315000,1.04,10.95,-3.83,5
17,35150472333000,3.02,9.08,-2.68,5
17,35150522291000,4.29,9.7,-3.02,5
17,35150572309000,0.38,8.92,-0.5,5
17,35150622632000,-1.84,5.86,0.76,5
17,35150672315000,1.33,5.37,0.15,5
17,35150722303000,4.86,8.43,-0.61,5
17,35150772321000,4.79,10.04,1.04,5
17,35150822309000,4.9,10.65,1.73,5
17,35150872297000,6.85,11.3,0.11,5
17,35150872297000,6.85,11.3,0.11,5
17,35150942365000,1.46,13.25,-3.79,5
17,35150992200000,-1.12,13.76,-3.6,5
17,35151042402000,1.84,10.5,0.65,5
17,35151092359000,2.96,7.27,-1.76,5
17,35151152326000,4.21,5.37,-1.23,5
17,35151202253000,1.65,6.32,1.33,5
17,35151252271000,2.87,8.89,2.87,5
17,35151302259000,3.76,9.04,-0.42,5
17,35151352338000,4.14,11.18,2.34,5
17,35151402326000,1.76,14.71,0.61,5
17,35151452344000,1.73,13.18,-3.06,5
17,35151502332000,0.0,9.51,-3.79,5
17,35151552320000,3.53,10.57,-2.56,5
17,35151602338000,2.26,10.27,-0.76,5
17,35151652326000,0.53,7.5,-0.15,5
17,35151702344000,-0.15,3.72,0.84,5
17,35151752332000,2.91,6.78,0.34,5
17,35151802381000,4.79,8.81,0.61,5
17,35151852338000,4.6,10.15,1.84,5
17,35151902326000,7.06,10.73,1.31,5
17,35151952375000,6.36,13.1,-2.56,5
17,35152002515000,0.42,13.44,-4.63,5
17,35152052320000,-2.22,14.37,-1.04,5
17,35152102338000,2.11,9.85,-0.57,5
17,35152152326000,4.67,7.08,-2.91,5
17,35152202344000,3.21,5.18,-1.73,5
17,35152252302000,-0.08,5.18,1.46,5
17,35152302350000,2.22,6.93,3.87,5
17,35152352338000,6.21,8.73,-1.65,5
17,35152402326000,4.82,14.06,3.34,5
17,35152452344000,1.69,18.28,0.53,5
17,35152502332000,1.38,10.76,-5.37,5
17,35152552320000,3.34,8.85,-3.26,5
17,35152602338000,3.38,9.72,-2.07,5
17,35152652326000,0.53,9.08,-0.95,5
17,35152702344000,-2.14,5.41,1.23,5
17,35152752332000,1.65,4.52,0.08,5
17,35152802350000,5.13,8.69,-0.23,5
17,35152852338000,4.71,9.53,0.84,5
17,35152902326000,5.52,10.08,2.91,5
17,35152952375000,7.44,10.65,-1.18,5
17,35153002332000,2.76,15.94,-4.75,5
17,35153052320000,-2.83,15.28,-3.79,5
17,35153102338000,0.11,11.07,0.15,5
17,35153152326000,4.21,7.55,-1.88,5
17,35153202314000,4.21,6.4,-1.69,5
17,35153252332000,1.84,4.94,-0.65,5
17,35153302320000,0.53,5.67,2.37,5
17,35153352338000,3.68,8.66,3.17,5
17,35153402326000,4.82,10.42,-1.23,5
17,35153452344000,3.17,14.21,2.79,5
17,35153502363000,1.65,16.74,-0.08,5
17,35153552320000,1.54,10.42,-4.37,5
17,35153602338000,2.34,8.05,-2.6,5
17,35153652296000,3.41,8.69,-2.6,5
17,35153702344000,0.76,10.38,0.15,5
17,35153752332000,-1.31,6.44,0.46,5
17,35153802320000,0.95,4.86,0.61,5
17,35153852338000,3.99,9.66,0.99,5
17,35153922376000,3.26,9.66,0.99,5
17,35153972272000,6.93,10.95,3.38,5
17,35154022321000,7.55,13.14,-3.45,5
17,35154072248000,1.12,14.41,-5.43,5
17,35154122327000,-3.53,13.95,-0.08,5
17,35154172315000,1.76,10.04,0.0,5
17,35154222303000,5.01,6.47,-2.68,5
17,35154272291000,3.49,4.21,-1.8,5
17,35154322431000,0.34,4.56,1.08,5
17,35154372297000,1.42,7.7,3.34,5
17,35154422315000,5.33,11.03,0.72,5
17,35154472303000,3.06,11.84,2.45,5
17,35154522291000,1.57,15.13,1.54,5
17,35154572309000,1.92,14.02,-2.03,5
17,35154622297000,0.34,7.74,-3.02,5
17,35154672925000,5.6,10.42,-2.14,5
17,35154722303000,2.98,10.12,-0.38,5
17,35154772291000,0.53,7.5,0.53,5
17,35154822309000,-0.65,4.67,1.08,5
17,35154872297000,1.92,7.21,0.72,5
17,35154922315000,3.95,8.81,0.65,5
17,35154972303000,4.29,10.12,1.23,5
17,35155022291000,6.09,10.42,1.42,5
17,35155072309000,4.6,11.92,-1.42,5
17,35155122297000,0.69,13.29,-4.56,5
17,35155172315000,-0.65,14.52,0.0,5
17,35155222303000,2.53,9.92,0.23,5
17,35155272291000,4.21,6.7,-2.18,5
17,35155322309000,3.02,4.9,-0.5,5
17,35155372297000,0.8,5.37,1.99,5
17,35155422315000,3.17,8.08,3.02,5
17,35155472303000,4.1,8.58,-0.99,5
17,35155522291000,4.18,12.95,3.99,5
17,35155572309000,1.92,17.43,-0.23,5
17,35155622297000,1.18,11.26,-3.64,5
17,35155672315000,3.17,8.66,-1.99,5
17,35155722303000,3.11,9.66,-2.07,5
17,35155772291000,0.72,9.51,0.38,5
17,35155822309000,-0.23,5.6,-0.3,5
17,35155872327000,1.76,4.9,0.42,5
17,35155922315000,3.99,7.86,-0.04,5
17,35155922315000,3.99,7.86,-0.04,5
17,35155972303000,3.76,10.38,0.93,5
17,35156042402000,5.52,11.07,3.02,5
17,35156102308000,5.37,12.83,-1.46,5
17,35156152296000,0.38,11.96,-4.79,5
17,35156202344000,-1.04,12.49,-1.42,5
17,35156252332000,3.11,11.88,1.8,5
17,35156302320000,4.86,6.02,-3.57,5
17,35156352338000,2.79,4.06,-0.27,5
17,35156402357000,0.46,5.9,2.49,5
17,35156452344000,2.56,8.08,1.99,5
17,35156502332000,3.34,10.12,-0.69,5
17,35156552320000,4.56,13.21,4.29,5
17,35156602338000,2.18,14.86,-1.8,5
17,35156652326000,0.5,12.22,-3.49,5
17,35156702344000,2.98,10.15,-1.95,5
17,35156752332000,3.45,8.73,-2.3,5
17,35156802320000,0.19,8.96,0.08,5
17,35156852338000,0.08,5.67,-0.8,5
17,35156902326000,1.65,5.22,0.53,5
17,35156952344000,3.11,8.39,0.19,5
17,35157002332000,3.53,10.65,1.5,5
17,35157052320000,5.67,10.61,2.45,5
17,35157102338000,7.06,10.88,-0.65,5
17,35157152326000,1.61,13.72,-3.76,5
17,35157202344000,-1.23,14.79,-3.02,5
17,35157252332000,2.56,12.22,1.76,5
17,35157302320000,4.25,8.12,-2.49,5
17,35157352338000,3.02,4.18,-2.26,5
17,35157402326000,-0.61,4.86,1.23,5
17,35157452344000,0.72,7.46,3.49,5
17,35157502332000,4.56,8.5,1.69,5
17,35157552320000,4.02,9.58,0.27,5
17,35157602338000,3.3,14.71,2.56,5
17,35157652326000,2.41,16.02,-1.5,5
17,35157702344000,0.15,9.7,-3.21,5
17,35157752332000,4.14,9.53,-2.41,5
17,35157802320000,2.53,8.66,-1.27,5
17,35157852338000,-0.46,8.85,0.65,5
17,35157902326000,-0.11,5.22,-0.3,5
17,35157952344000,2.26,6.09,0.31,5
17,35158002790000,4.44,9.23,0.42,5
17,35158052320000,3.34,10.42,1.08,5
17,35158102338000,5.94,10.23,2.49,5
17,35158152326000,6.85,12.6,-1.31,5
17,35158202619000,2.11,13.14,-4.25,5
17,35158252363000,-2.26,13.38,-1.92,5
17,35158302320000,1.27,11.88,0.69,5
17,35158352338000,4.25,8.24,-2.26,5
17,35158402326000,3.68,5.37,-1.61,5
17,35158452375000,0.53,4.86,0.46,5
17,35158502332000,1.61,7.25,3.17,5
17,35158552320000,4.14,9.89,0.99,5
17,35158602338000,3.87,10.76,0.69,5
17,35158652326000,2.68,14.21,2.34,5
17,35158702344000,1.99,13.67,-0.89,5
17,35158752332000,0.0,9.7,-3.91,5
17,35158802320000,4.06,9.38,-2.45,5
17,35158852338000,3.15,9.47,-1.38,5
17,35158902326000,0.57,9.23,-0.04,5
17,35158970350000,-1.04,5.18,0.65,5
17,35159022230000,2.6,6.7,-0.57,5
17,35159072339000,4.52,10.92,0.57,5
17,35159122297000,4.63,11.35,1.57,5
17,35159172346000,6.09,10.99,1.84,5
17,35159222303000,5.01,12.26,-2.26,5
17,35159272291000,0.34,11.41,-3.57,5
17,35159322309000,-0.91,12.57,-0.91,5
17,35159372297000,2.49,11.84,-0.3,5
17,35159422315000,3.57,7.86,-1.61,5
17,35159472516000,3.02,3.99,-1.42,5
17,35159522291000,0.57,4.86,0.23,5
17,35159572309000,2.6,8.05,3.06,5
17,35159622297000,3.26,10.15,-0.76,5
17,35159672315000,3.21,13.38,4.18,5
17,35159722303000,3.11,14.94,-0.04,5
17,35159772291000,2.37,12.83,-3.21,5
17,35159822309000,0.23,8.5,-2.68,5
17,35159872297000,3.6,9.89,-2.22,5
17,35159922315000,2.87,10.65,-0.3,5
17,35159972303000,0.8,7.27,-0.46,5
17,35160022291000,-0.3,3.3,1.04,5
17,35160072339000,1.84,5.71,0.23,5
17,35160122297000,4.29,10.84,0.99,5
17,35160172315000,4.4,10.95,1.92,5
17,35160222303000,5.75,10.69,2.03,5
17,35160272291000,5.71,12.76,-1.23,5
17,35160322309000,1.42,12.98,-4.9,5
17,35160372297000,-1.53,13.14,-0.84,5
17,35160422315000,0.53,10.46,0.34,5
17,35160472455000,4.33,7.55,-1.46,5
17,35160522291000,4.48,5.13,-1.23,5
17,35160572339000,0.76,5.22,0.53,5
17,35160622297000,2.26,6.82,2.91,5
17,35160672315000,3.17,8.85,-0.15,5
17,35160722303000,4.06,13.38,3.64,5
17,35160772291000,1.33,16.89,0.08,5
17,35160822309000,1.73,12.76,-3.45,5
17,35160872297000,1.76,8.96,-2.26,5
17,35160872297000,1.76,8.96,-2.26,5
17,35160972120000,2.26,8.54,-2.11,5
17,35160972120000,2.26,8.54,-2.11,5
17,35161032667000,-0.3,8.24,0.08,5
17,35161082410000,0.76,4.71,0.53,5
17,35161132307000,2.96,7.25,0.19,5
17,35161182783000,4.25,10.0,0.53,5
17,35161232465000,5.18,10.46,2.83,5
17,35161282300000,6.21,10.34,0.46,5
17,35161332807000,4.9,14.52,-2.3,5
17,35161382368000,-0.15,12.76,-3.49,5
17,35161432355000,-1.12,12.3,-2.07,5
17,35161482557000,0.61,10.15,-1.14,5
17,35161532331000,3.68,7.7,-1.31,5
17,35161582807000,3.02,5.18,-0.95,5
17,35161650373000,1.14,5.41,1.14,5
17,35161702283000,3.91,7.5,3.57,5
17,35161752271000,4.9,9.85,-1.88,5
17,35161802350000,2.96,14.94,4.1,5
17,35161852338000,0.42,15.55,0.19,5
17,35161902326000,-0.3,11.54,-4.67,5
17,35161952344000,3.15,10.53,-2.96,5
17,35162002729000,4.75,8.01,-2.91,5
17,35162052320000,0.69,6.82,-0.38,5
17,35162102369000,-2.45,5.79,0.8,5
17,35162152326000,0.8,7.01,0.27,5
17,35162202344000,4.9,9.38,-0.3,5
17,35162252332000,4.63,9.89,0.57,5
17,35162302320000,4.79,10.38,3.53,5
17,35162352338000,6.85,10.5,0.53,5
17,35162402326000,4.63,13.53,-3.76,5
17,35162452344000,-1.33,13.87,-5.9,5
17,35162502332000,-0.91,12.91,0.8,5
17,35162552320000,2.15,9.53,-0.34,5
17,35162602338000,4.6,5.56,-2.41,5
17,35162652326000,2.37,3.99,-0.34,5
17,35162702375000,1.69,6.21,2.76,5
17,35162752332000,3.15,8.89,2.3,5
17,35162802320000,4.21,9.43,-0.23,5
17,35162852338000,2.98,14.75,2.96,5
17,35162902326000,1.84,16.17,-1.14,5
17,35162952344000,-0.04,9.81,-4.06,5
17,35163002332000,2.91,8.85,-3.02,5
17,35163052320000,3.17,9.3,-1.88,5
17,35163102338000,0.57,9.7,0.27,5
17,35163152326000,-1.33,5.83,0.38,5
17,35163202344000,1.54,4.29,-0.23,5
17,35163252332000,3.6,8.24,0.76,5
17,35163302320000,4.79,11.69,0.57,5
17,35163352338000,5.67,10.84,2.03,5
17,35163402326000,6.82,10.5,-0.65,5
17,35163452344000,2.37,15.09,-4.94,5
17,35163502332000,-2.79,13.53,-4.52,5
17,35163552320000,-0.04,10.95,2.15,5
17,35163602338000,3.53,9.15,-1.61,5
17,35163652326000,4.33,5.13,-2.03,5
17,35163702344000,2.07,4.37,0.27,5
17,35163752332000,2.68,6.59,2.98,5
17,35163802320000,4.37,10.19,0.89,5
17,35163852338000,2.87,12.22,1.31,5
17,35163902326000,1.42,14.21,0.84,5
17,35163952344000,1.69,13.8,-2.53,5
17,35164002698000,0.27,10.08,-3.68,5
17,35164052320000,3.41,9.72,-3.36,5
17,35164102369000,2.37,8.58,-1.61,5
17,35164152296000,-0.84,8.58,0.42,5
17,35164202344000,0.15,5.22,0.15,5
17,35164252332000,2.87,6.4,0.04,5
17,35164302320000,4.33,9.28,0.95,5
17,35164352338000,3.45,9.66,0.89,5
17,35164402326000,6.47,10.31,2.53,5
17,35164452680000,6.47,12.6,-1.69,5
17,35164502332000,1.18,11.92,-4.79,5
17,35164552320000,-1.38,13.48,-3.34,5
17,35164602338000,1.57,13.29,0.34,5
17,35164652326000,3.06,8.85,-1.5,5
17,35164702375000,3.3,4.9,-1.42,5
17,35164752332000,1.33,4.14,0.34,5
17,35164802320000,2.68,6.7,2.18,5
17,35164852338000,4.6,10.15,1.04,5
17,35164902326000,3.95,12.83,2.22,5
17,35164952344000,0.19,16.28,0.31,5
17,35165002332000,1.18,12.79,-2.98,5
17,35165052350000,0.61,9.23,-2.72,5
17,35165102369000,4.33,8.31,-3.79,5
17,35165152326000,2.22,8.89,-0.69,5
17,35165202253000,-0.72,8.12,-0.23,5
17,35165252332000,0.31,5.28,1.18,5
17,35165302320000,3.79,6.85,-0.53,5
17,35165352338000,4.52,9.62,0.38,5
17,35165402357000,5.01,10.73,2.26,5
17,35165452344000,6.89,10.8,0.89,5
17,35165502393000,3.45,12.72,-3.21,5
17,35165552350000,-0.57,11.73,-4.99,5
17,35165602338000,-1.61,14.48,-1.27,5
17,35165652357000,2.41,11.92,1.61,5
17,35165702344000,3.64,6.02,-2.64,5
17,35165752363000,4.48,3.15,-1.18,5
17,35165802320000,2.26,5.79,3.3,5
17,35165852338000,4.48,9.77,0.53,5
17,35165902326000,2.3,10.19,-1.84,5
17,35165952527000,2.03,12.37,4.21,5
17,35166003187000,0.76,15.24,-0.27,5
17,35166072309000,0.76,9.72,-3.6,5
17,35166122327000,3.38,9.77,-2.18,5
17,35166172346000,2.98,9.53,-1.04,5
17,35166222303000,0.61,8.85,-0.19,5
17,35166272260000,-0.23,4.99,0.84,5
17,35166322309000,1.88,5.41,-0.61,5
17,35166372327000,4.18,9.89,1.65,5
17,35166422315000,4.79,10.34,1.84,5
17,35166472303000,6.17,10.57,1.38,5
17,35166522291000,4.63,12.53,-3.26,5
17,35166572370000,-0.5,14.86,-3.53,5
17,35166622297000,-1.5,11.73,-0.91,5
17,35166672315000,3.34,10.73,0.57,5
17,35166672315000,3.34,10.73,0.57,5
17,35166742322000,4.52,6.85,-2.56,5
17,35166792280000,1.12,4.4,0.04,5
17,35166842267000,0.99,5.48,3.41,5
17,35166902296000,4.56,8.58,1.65,5
17,35166952344000,3.6,13.29,1.8,5
17,35167002332000,0.8,19.11,0.34,5
17,35167052320000,1.54,11.8,-4.14,5
17,35167102338000,1.73,6.85,-2.45,5
17,35167152326000,3.02,6.78,-3.57,5
17,35167202344000,0.11,11.18,1.04,5
17,35167252332000,-0.08,8.58,0.5,5
17,35167302320000,1.18,5.01,0.27,5
17,35167352338000,2.91,6.02,-0.99,5
17,35167402326000,2.72,10.31,0.95,5
17,35167452344000,5.43,11.75,2.98,5
17,35167502332000,8.16,11.07,-0.89,5
17,35167552320000,2.41,13.53,-4.79,5
17,35167602338000,-2.64,13.95,-4.25,5
17,35167652326000,-1.57,12.68,1.5,5
17,35167702344000,3.6,8.77,-1.5,5
17,35167752576000,5.01,5.6,-2.14,5
17,35167802320000,2.15,4.4,-0.27,5
17,35167852338000,1.04,6.63,3.57,5
17,35167902326000,3.34,9.23,1.23,5
17,35167952344000,3.99,11.03,0.19,5
17,35168002576000,0.99,15.24,1.65,5
17,35168052320000,1.54,16.25,-2.03,5
17,35168102338000,0.89,9.15,-3.72,5
17,35168152326000,3.21,7.67,-3.57,5
17,35168202344000,1.92,8.47,-1.42,5
17,35168252332000,0.19,10.04,1.5,5
17,35168302320000,0.65,5.79,-0.42,5
17,35168352338000,2.56,5.98,0.53,5
17,35168402326000,3.53,7.89,0.8,5
17,35168452344000,4.21,9.7,1.65,5
17,35168502302000,5.67,11.35,1.65,5
17,35168552320000,4.52,13.48,-1.53,5
17,35168602369000,0.23,12.83,-4.48,5
17,35168652326000,-1.76,13.1,-2.34,5
17,35168702344000,2.26,11.75,0.15,5
17,35168752332000,2.56,8.92,-1.99,5
17,35168802320000,2.96,4.06,-2.07,5
17,35168852338000,0.84,3.34,0.69,5
17,35168902326000,2.37,6.78,3.87,5
17,35168952375000,4.79,11.69,0.65,5
17,35169002332000,5.37,13.29,1.5,5
17,35169052320000,0.04,14.44,0.61,5
17,35169102338000,0.65,14.1,-3.11,5
17,35169152326000,1.27,9.77,-4.33,5
17,35169202344000,3.79,8.77,-3.34,5
17,35169252332000,0.72,8.43,0.27,5
17,35169302320000,-0.95,7.67,0.11,5
17,35169352338000,1.04,4.21,0.04,5
17,35169422346000,3.87,8.05,-0.38,5
17,35169472272000,5.09,9.66,1.42,5
17,35169522321000,5.75,10.57,1.88,5
17,35169572248000,3.15,12.83,-1.04,5
17,35169622297000,2.37,14.29,-4.21,5
17,35169672315000,-0.76,12.83,-3.15,5
17,35169722303000,0.61,11.75,-0.38,5
17,35169772321000,3.45,7.93,-1.61,5
17,35169822309000,3.91,4.29,-1.27,5
17,35169872480000,1.38,4.4,0.27,5
17,35169922315000,2.3,7.44,3.15,5
17,35169972303000,4.1,10.12,1.08,5
17,35170022291000,3.72,11.5,1.23,5
17,35170072309000,0.53,15.64,1.61,5
17,35170122327000,1.76,15.75,-3.02,5
17,35170172315000,0.08,9.19,-4.59,5
17,35170222303000,3.53,8.62,-2.72,5
17,35170272291000,2.26,8.08,-1.65,5
17,35170322309000,-0.65,9.08,1.04,5
17,35170372297000,-0.27,4.94,0.23,5
17,35170422315000,3.21,6.7,0.15,5
17,35170472303000,4.94,8.58,0.65,5
17,35170522291000,3.45,9.53,1.46,5
17,35170572339000,6.09,11.18,2.6,5
17,35170622297000,4.86,13.1,-1.8,5
17,35170672315000,1.04,12.45,-5.13,5
17,35170722303000,-2.22,13.82,-2.96,5
17,35170772291000,2.64,12.68,2.6,5
17,35170822309000,4.33,7.63,-3.26,5
17,35170872327000,4.18,3.6,-1.31,5
17,35170922315000,0.61,4.06,0.42,5
17,35170972303000,1.65,7.78,2.87,5
17,35170972303000,1.65,7.78,2.87,5
17,35171033918000,3.57,10.34,0.72,5
17,35171082593000,3.68,13.02,4.44,5
17,35171132307000,1.18,14.6,-0.72,5
17,35171182355000,1.46,12.6,-3.95,5
17,35171232343000,1.18,10.31,-2.53,5
17,35171282514000,3.83,9.85,-3.06,5
17,35171332349000,1.08,9.58,-0.08,5
17,35171382703000,-1.73,6.78,0.04,5
17,35171432355000,0.0,4.37,0.84,5
17,35171482343000,3.45,6.82,-0.15,5
17,35171532453000,5.05,8.89,0.89,5
17,35171582349000,4.63,9.19,2.03,5
17,35171632581000,6.59,9.51,1.14,5
17,35171682325000,4.1,14.33,-3.68,5
17,35171732831000,-1.31,15.64,-4.14,5
17,35171782484000,-1.69,15.13,1.12,5
17,35171832349000,2.34,9.85,-0.57,5
17,35171882734000,4.52,6.17,-1.84,5
17,35171932355000,4.14,2.83,-0.95,5
17,35171982374000,1.69,4.29,2.49,5
17,35172032484000,3.06,8.28,2.98,5
17,35172082349000,2.11,10.23,-0.69,5
17,35172132673000,0.19,17.86,3.3,5
17,35172182325000,2.87,17.12,-1.61,5
17,35172232374000,3.91,8.89,-4.67,5
17,35172282361000,2.79,6.63,-2.64,5
17,35172332349000,0.76,8.96,-0.3,5
17,35172382490000,-0.04,9.04,0.04,5
17,35172432630000,0.23,5.86,-0.61,5
17,35172482374000,2.3,6.44,0.0,5
17,35172532331000,3.34,8.35,1.23,5
17,35172582349000,4.71,11.6,2.18,5
17,35172632337000,7.63,12.26,2.45,5
17,35172682416000,3.68,10.8,-3.06,5
17,35172732343000,-0.95,12.18,-4.75,5
17,35172782636000,-0.84,16.04,0.8,5
17,35172832349000,1.69,11.45,-0.27,5
17,35172882337000,4.33,5.67,-2.6,5
17,35172932477000,2.91,3.68,-0.76,5
17,35172982343000,0.69,6.17,1.95,5
17,35173032575000,2.15,9.58,2.56,5
17,35173082349000,3.02,10.69,-0.46,5
17,35173132764000,2.26,17.27,1.99,5
17,35173182477000,1.88,14.6,-1.31,5
17,35173232343000,1.65,8.35,-3.83,5
17,35173282636000,2.03,7.01,-2.18,5
17,35173332349000,1.76,8.89,-0.65,5
17,35173382337000,0.76,8.5,0.46,5
17,35173432325000,0.61,6.17,-0.69,5
17,35173482343000,1.95,6.51,-0.15,5
17,35173532514000,3.3,8.54,0.76,5
17,35173582349000,4.06,10.95,1.76,5
17,35173632673000,6.55,12.34,2.49,5
17,35173682325000,4.44,11.54,-1.76,5
17,35173732343000,1.46,11.41,-5.43,5
17,35173782392000,-1.65,14.21,-2.79,5
17,35173832349000,2.26,13.44,2.3,5
17,35173832349000,2.26,13.44,2.3,5
17,35173942365000,3.68,3.79,-0.38,5
17,35174002943000,0.99,5.18,1.04,5
17,35174052320000,3.99,8.31,2.3,5
17,35174102338000,3.83,9.38,-1.42,5
17,35174152326000,2.34,14.14,4.33,5
17,35174202375000,-1.57,14.67,-0.04,5
17,35174252332000,1.73,11.65,-4.4,5
17,35174302320000,4.33,10.99,-2.91,5
17,35174352338000,4.4,10.92,-1.12,5
17,35174402326000,0.53,7.08,-1.18,5
17,35174470350000,-1.69,4.9,0.31,5
17,35174522260000,2.03,7.4,0.23,5
17,35174572309000,3.99,8.62,0.99,5
17,35174622297000,3.49,9.11,0.76,5
17,35174672346000,5.52,11.35,2.15,5
17,35174722333000,6.47,11.88,-1.88,5
17,35174772291000,1.73,12.91,-3.53,5
17,35174822309000,-0.69,14.33,-1.14,5
17,35174872297000,3.57,12.26,-0.04,5
17,35174922315000,5.37,8.43,-2.64,5
17,35174972303000,1.92,5.24,-1.04,5
17,35175022291000,-0.5,4.63,0.53,5
17,35175072309000,1.61,6.51,2.45,5
17,35175122327000,4.75,9.28,0.93,5
17,35175172315000,3.38,11.03,0.69,5
17,35175222333000,2.18,14.25,1.84,5
17,35175272291000,2.3,15.05,-1.31,5
17,35175322309000,0.19,10.19,-3.64,5
17,35175372297000,3.79,9.08,-2.79,5
17,35175422315000,2.22,8.01,-2.45,5
17,35175472303000,-0.53,9.08,1.04,5
17,35175522291000,-0.27,6.28,0.42,5
17,35175572309000,2.53,6.28,-0.15,5
17,35175622297000,4.56,9.19,0.69,5
17,35175672315000,4.44,9.47,1.65,5
17,35175722333000,4.4,9.92,1.57,5
17,35175772321000,5.52,11.45,0.72,5
17,35175822309000,3.72,12.98,-2.79,5
17,35175872266000,-1.69,11.41,-4.71,5
17,35175872266000,-1.69,11.41,-4.71,5
17,35175872266000,-1.69,11.41,-4.71,5
17,35175982587000,3.45,10.15,-1.95,5
17,35176042371000,3.91,5.22,-1.65,5
17,35176092206000,0.93,4.29,0.34,5
17,35176162305000,3.02,8.43,3.3,5
17,35176212263000,3.91,9.7,-0.95,5
17,35176262342000,4.25,12.49,4.56,5
17,35176312330000,1.73,14.06,0.08,5
17,35176362348000,0.89,12.68,-3.6,5
17,35176412336000,0.46,9.92,-2.07,5
17,35176462324000,3.91,9.62,-2.83,5
17,35176512342000,1.18,9.51,-0.46,5
17,35176562360000,-1.12,7.55,0.08,5
17,35176612348000,-0.08,4.37,0.61,5
17,35176662336000,3.06,7.12,-0.08,5
17,35176712324000,4.44,10.69,0.46,5
17,35176762372000,4.67,10.08,1.76,5
17,35176812330000,5.94,10.27,1.5,5
17,35176862348000,5.24,14.21,-2.56,5
17,35176912336000,-0.3,12.91,-5.01,5
17,35176962324000,-1.99,12.37,-0.95,5
17,35177012311000,2.41,10.92,0.46,5
17,35177062299000,4.06,7.35,-2.49,5
17,35177112287000,0.61,5.41,1.08,5
17,35177172346000,0.61,5.41,1.08,5
17,35177222242000,2.91,8.39,3.15,5
17,35177272321000,4.06,10.46,-1.61,5
17,35177322278000,3.38,13.8,4.4,5
17,35177372297000,1.31,15.55,-0.3,5
17,35177422315000,1.12,11.37,-4.18,5
17,35177472303000,2.79,9.72,-2.07,5
17,35177522291000,3.3,9.15,-2.41,5
17,35177572309000,0.72,8.24,0.27,5
17,35177622297000,-1.38,5.67,0.08,5
17,35177672315000,1.12,5.41,0.11,5
17,35177722303000,3.57,8.5,0.53,5
17,35177772291000,4.6,10.69,1.31,5
17,35177822309000,5.09,10.19,2.41,5
17,35177872297000,5.71,10.53,0.15,5
17,35177922315000,4.21,13.87,-4.9,5
17,35177972303000,-1.04,14.63,-3.91,5
17,35178022321000,0.38,11.69,1.95,5
17,35178072309000,3.57,8.58,-2.07,5
17,35178122358000,5.05,5.22,-2.26,5
17,35178172315000,1.08,4.67,-0.23,5
17,35178222303000,0.76,6.78,2.91,5
17,35178272260000,3.45,8.85,2.91,5
17,35178322309000,3.64,9.92,-1.12,5
17,35178372327000,2.79,15.85,3.53,5
17,35178422315000,2.87,15.02,-0.38,5
17,35178472303000,0.31,9.92,-4.52,5
17,35178522291000,4.21,9.0,-3.02,5
17,35178572309000,2.18,7.59,-2.49,5
17,35178622297000,-1.08,9.47,0.84,5
17,35178672315000,-1.14,7.21,0.34,5
17,35178722303000,2.18,5.94,-0.57,5
17,35178772291000,4.21,8.5,0.23,5
17,35178822309000,4.33,10.0,1.54,5
17,35178872297000,5.94,10.12,1.88,5
17,35178922315000,5.43,12.11,-0.89,5
17,35178972303000,2.76,13.33,-5.24,5
17,35179022291000,-3.06,14.06,-4.4,5
17,35179072309000,1.88,12.64,3.64,5
17,35179122297000,3.99,8.05,-3.6,5
17,35179172315000,4.6,4.02,-1.61,5
17,35179222303000,0.89,4.75,0.27,5
17,35179272291000,1.23,7.82,2.83,5
17,35179322309000,3.38,9.96,1.73,5
17,35179372297000,2.56,11.3,1.04,5
17,35179422315000,2.11,15.09,1.14,5
17,35179472303000,2.83,13.38,-1.69,5
17,35179522291000,0.27,10.08,-3.64,5
17,35179572309000,3.99,9.3,-3.02,5
17,35179622297000,1.69,8.43,-1.27,5
17,35179672315000,-0.89,8.85,0.31,5
17,35179722303000,-0.61,5.9,0.34,5
17,35179772291000,2.34,6.47,-0.08,5
17,35179822309000,4.4,8.89,0.61,5
17,35179872297000,4.63,9.53,1.23,5
17,35179922315000,6.09,9.89,1.42,5
17,35179972303000,5.18,13.06,-1.04,5
17,35180022291000,2.11,13.06,-4.86,5
17,35180072309000,-3.34,13.99,-3.6,5
17,35180122297000,1.92,12.34,2.45,5
17,35180172315000,4.56,8.01,-3.3,5
17,35180222303000,4.44,3.95,-1.31,5
17,35180272260000,0.61,4.18,0.95,5
17,35180272260000,0.61,4.18,0.95,5
17,35180332563000,1.76,7.08,2.53,5
17,35180382337000,3.06,10.69,0.61,5
17,35180432691000,4.94,13.02,3.11,5
17,35180482343000,2.18,13.99,-0.23,5
17,35180532331000,0.65,14.21,-2.07,5
17,35180582410000,0.69,10.23,-3.45,5
17,35180632337000,4.14,9.72,-2.79,5
17,35180682630000,2.07,8.16,-0.89,5
17,35180732435000,-0.91,7.01,-0.15,5
17,35180782789000,-0.46,5.05,1.08,5
17,35180832441000,3.17,7.12,0.04,5
17,35180882337000,5.37,9.47,0.27,5
17,35180932630000,3.17,10.04,1.61,5
17,35180982343000,5.86,10.34,1.92,5
17,35181032789000,5.6,14.06,-3.02,5
17,35181082410000,-0.23,13.82,-4.37,5
17,35181132368000,-2.18,12.98,-1.65,5
17,35181182630000,2.56,11.11,1.99,5
17,35181232343000,5.28,7.06,-3.57,5
17,35181282789000,3.38,4.25,-1.65,5
17,35181332502000,-0.57,4.79,2.11,5
17,35181382368000,1.69,7.21,3.57,5
17,35181432691000,4.63,10.19,-0.5,5
17,35181482343000,4.6,12.26,3.53,5
17,35181532331000,1.65,15.32,0.65,5
17,35181582471000,0.95,12.98,-3.15,5
17,35181632337000,1.27,9.7,-2.11,5
17,35181682722000,4.1,9.66,-2.72,5
17,35181732343000,1.38,8.85,-0.34,5
17,35181782331000,-1.12,7.16,-0.46,5
17,35181832410000,-0.04,4.6,1.12,5
17,35181882368000,3.57,7.08,-0.5,5
17,35181932630000,4.71,10.61,0.89,5
17,35181982374000,3.53,10.84,1.95,5
17,35182032819000,4.86,10.15,1.31,5
17,35182082441000,5.24,13.99,-3.02,5
17,35182132337000,-0.04,13.48,-4.48,5
17,35182182661000,-1.73,12.3,-1.53,5
17,35182242261000,2.64,11.37,1.69,5
17,35182302289000,5.43,6.44,-3.49,5
17,35182352308000,1.23,4.37,-0.5,5
17,35182402357000,0.27,5.71,3.34,5
17,35182452344000,3.45,8.66,2.72,5
17,35182502302000,4.29,10.42,-1.12,5
17,35182552320000,2.41,14.63,3.34,5
17,35182602338000,1.42,15.7,-0.46,5
17,35182652296000,-0.04,10.84,-4.02,5
17,35182702344000,3.72,9.11,-2.72,5
17,35182752332000,2.45,8.24,-2.14,5
17,35182802320000,0.19,9.77,0.95,5
17,35182852369000,-0.8,6.32,-0.19,5
17,35182902357000,1.73,5.37,0.5,5
17,35182952344000,4.21,8.12,0.23,5
17,35183002332000,4.29,10.12,1.27,5
17,35183052320000,4.79,11.03,1.88,5
17,35183102338000,4.86,11.99,0.46,5
17,35183152326000,2.49,12.53,-3.21,5
17,35183202344000,-1.46,11.84,-5.48,5
17,35183252332000,0.61,13.82,1.61,5
17,35183302320000,3.02,9.85,-1.08,5
17,35183352308000,4.4,4.71,-2.72,5
17,35183402357000,1.14,4.37,0.19,5
17,35183452344000,0.89,6.47,2.79,5
17,35183502302000,4.37,9.62,1.31,5
17,35183552320000,3.57,11.54,-0.3,5
17,35183602338000,1.84,14.02,2.37,5
17,35183652326000,2.3,15.32,-1.73,5
17,35183702344000,-0.27,10.76,-4.33,5
17,35183752332000,3.68,10.0,-2.11,5
17,35183802320000,1.84,7.89,-2.83,5
17,35183852338000,-1.46,8.73,1.12,5
17,35183902326000,0.0,6.17,-0.42,5
17,35183952344000,2.34,6.28,-0.38,5
17,35184002576000,3.83,8.73,1.14,5
17,35184052320000,4.99,9.72,1.84,5
17,35184102338000,5.79,10.53,1.31,5
17,35184152326000,4.99,11.96,-0.76,5
17,35184202344000,2.26,13.44,-3.68,5
17,35184252363000,-2.18,13.95,-4.44,5
17,35184302320000,1.84,12.34,2.26,5
17,35184352308000,3.21,8.85,-2.79,5
17,35184402326000,4.14,4.56,-1.88,5
17,35184452375000,0.65,4.37,0.27,5
17,35184502302000,1.5,6.89,3.11,5
17,35184552320000,4.86,9.51,2.03,5
17,35184602338000,3.11,10.5,-0.53,5
17,35184652296000,1.31,15.66,2.64,5
17,35184702344000,2.76,14.94,-0.99,5
17,35184752332000,1.18,9.72,-4.21,5
17,35184802320000,3.53,7.97,-2.98,5
17,35184852338000,1.61,10.15,0.72,5
17,35184922346000,-0.46,10.15,0.72,5
17,35184972272000,0.53,5.18,0.08,5
17,35185022321000,3.68,6.47,-0.23,5
17,35185072278000,4.06,9.72,0.15,5
17,35185122297000,5.01,10.27,2.15,5
17,35185172315000,6.02,10.95,0.76,5
17,35185222303000,3.57,14.6,-2.68,5
17,35185272260000,-0.57,11.26,-4.99,5
17,35185322309000,-1.61,13.38,-0.72,5
17,35185372297000,3.15,12.07,0.46,5
17,35185422376000,4.18,6.59,-3.45,5
17,35185472333000,3.02,3.49,-0.61,5
17,35185522291000,-0.08,5.28,1.18,5
17,35185572309000,2.26,9.11,3.21,5
17,35185622297000,4.1,11.07,-1.12,5
17,35185672315000,3.21,12.76,3.02,5
17,35185722303000,2.03,15.55,0.31,5
17,35185772291000,1.33,11.35,-3.98,5
17,35185822309000,1.18,10.04,-2.72,5
17,35185872297000,2.96,9.43,-2.98,5
17,35185922315000,1.38,9.53,-0.3,5
17,35185972303000,-0.5,6.89,-0.04,5
17,35186022291000,0.19,4.82,0.27,5
17,35186072309000,3.79,7.16,-0.19,5
17,35186122297000,4.52,9.51,1.12,5
17,35186172315000,3.99,9.85,1.27,5
17,35186222303000,4.82,11.07,1.84,5
17,35186272291000,4.94,13.02,-0.61,5
17,35186322309000,1.18,12.11,-4.48,5
17,35186372297000,-2.49,12.83,-3.79,5
17,35186422346000,2.26,12.98,2.22,5
17,35186472303000,3.49,9.0,-2.18,5
17,35186522291000,3.95,3.91,-1.42,5
17,35186572309000,0.8,3.53,0.89,5
17,35186622327000,2.45,6.85,3.6,5
17,35186672315000,3.99,10.42,0.5,5
17,35186722303000,2.87,12.87,2.18,5
17,35186772291000,0.53,15.6,0.04,5
17,35186822309000,2.79,14.94,-2.41,5
17,35186872297000,2.87,8.69,-3.87,5
17,35186922315000,3.45,7.7,-3.06,5
17,35186972303000,1.61,8.92,-1.08,5
17,35187022260000,-0.11,9.0,0.38,5
17,35187072309000,-0.57,5.33,0.27,5
17,35187122327000,2.72,5.98,0.04,5
17,35187172315000,4.67,9.34,0.27,5
17,35187222333000,4.71,10.5,1.54,5
17,35187272291000,7.4,10.38,1.18,5
17,35187322309000,3.95,14.21,-1.23,5
17,35187372297000,-0.38,12.45,-3.72,5
17,35187422315000,-1.84,13.53,-2.18,5
17,35187472303000,2.34,11.14,1.12,5
17,35187522291000,4.14,6.7,-2.34,5
17,35187572309000,3.72,4.18,-1.46,5
17,35187622297000,0.53,4.99,0.31,5
17,35187672315000,2.26,7.63,3.79,5
17,35187722303000,4.52,10.27,-0.89,5
17,35187772291000,4.06,12.98,4.02,5
17,35187822309000,1.76,16.13,0.42,5
17,35187872297000,1.99,12.3,-4.67,5
17,35187922346000,1.73,9.92,-2.26,5
17,35187972303000,3.53,8.85,-3.41,5
17,35188022321000,0.5,8.69,0.11,5
17,35188072309000,-1.61,7.21,0.27,5
17,35188122297000,0.34,5.56,0.57,5
17,35188172315000,4.1,7.82,-0.08,5
17,35188222303000,4.86,9.28,1.31,5
17,35188272321000,3.91,10.08,1.61,5
17,35188322309000,5.6,10.15,1.23,5
17,35188372297000,5.24,14.48,-2.56,5
17,35188422315000,0.15,12.26,-4.75,5
17,35188472303000,-2.87,12.76,-0.95,5
17,35188522291000,3.34,11.73,1.46,5
17,35188572309000,5.24,7.44,-3.41,5
17,35188622297000,3.26,4.1,-0.76,5
17,35188672315000,0.34,4.71,1.12,5
17,35188722303000,2.34,8.16,3.79,5
17,35188772291000,3.99,10.15,-0.23,5
17,35188822309000,3.45,12.03,2.68,5
17,35188872297000,1.5,16.47,0.65,5
17,35188922315000,2.41,12.87,-2.3,5
17,35188972333000,2.22,8.35,-3.3,5
17,35189022291000,2.91,8.01,-3.21,5
17,35189072309000,0.69,9.7,-0.19,5
17,35189122297000,-0.76,9.0,0.46,5
17,35189172315000,0.19,5.41,0.31,5
17,35189222303000,3.38,6.78,0.15,5
17,35189272291000,4.6,8.92,0.38,5
17,35189322309000,4.79,10.23,1.27,5
17,35189372297000,5.86,10.65,1.38,5
17,35189422315000,4.79,14.52,-0.99,5
17,35189472303000,0.99,11.92,-3.91,5
17,35189522291000,-2.72,13.53,-3.98,5
17,35189572309000,2.98,10.27,2.91,5
17,35189622297000,4.18,8.12,-2.72,5
17,35189672315000,4.1,5.05,-1.12,5
17,35189722272000,0.65,5.05,1.57,5
17,35189772291000,1.76,7.27,3.06,5
17,35189822309000,4.67,8.62,0.57,5
17,35189872297000,3.57,11.03,1.92,5
17,35189922315000,0.65,17.39,2.07,5
17,35189922315000,0.65,17.39,2.07,5
17,35189992292000,2.03,13.14,-2.3,5
17,35190042280000,3.41,9.15,-2.41,5
17,35190092298000,2.45,7.7,-3.17,5
17,35190152418000,-0.27,9.3,0.57,5
17,35190202344000,-0.84,6.74,-0.08,5
17,35190252332000,1.92,6.05,0.04,5
17,35190302320000,4.63,8.28,0.27,5
17,35190352338000,3.72,9.23,0.57,5
17,35190402326000,5.13,10.61,2.64,5
17,35190452344000,5.22,12.98,0.0,5
17,35190502302000,3.68,13.99,-3.41,5
17,35190552320000,-1.61,10.73,-5.37,5
17,35190602338000,0.11,12.79,1.8,5
17,35190652326000,2.41,10.38,-1.08,5
17,35190702344000,4.18,5.48,-2.53,5
17,35190752332000,2.11,3.34,-0.72,5
17,35190802320000,1.12,6.24,2.49,5
17,35190852338000,3.79,10.0,2.3,5
17,35190902326000,4.02,10.88,-1.27,5
17,35190952344000,2.68,14.44,2.83,5
17,35191002332000,1.88,15.94,0.27,5
17,35191052320000,0.76,9.89,-4.86,5
17,35191102399000,3.15,9.08,-2.64,5
17,35191152326000,2.72,8.24,-2.75,5
17,35191202344000,0.61,9.53,0.23,5
17,35191252332000,-0.84,6.89,0.38,5
17,35191302320000,1.65,5.6,-0.23,5
17,35191352338000,3.87,8.01,0.23,5
17,35191402326000,4.25,9.72,0.8,5
17,35191452344000,5.22,10.53,2.18,5
17,35191502332000,5.79,11.56,0.53,5
17,35191552320000,2.64,13.4,-3.36,5
17,35191602338000,-1.99,13.48,-5.18,5
17,35191652418000,0.57,12.83,1.92,5
17,35191702344000,2.22,9.51,-1.18,5
17,35191752332000,3.95,4.99,-2.18,5
17,35191802320000,2.3,3.17,0.04,5
17,35191802320000,2.3,3.17,0.04,5
17,35191902326000,3.64,8.96,2.45,5
