user-id,timestamp,accX,accY,accZ,ActivityEncoded
1,6175792310000,0.19,0.65,-5.01,1
1,6175852308000,-17.69,-6.59,-7.01,1
1,6175902326000,-19.61,-9.08,1.42,1
1,6175952344000,-16.51,-4.94,11.07,1
1,6176002485000,-12.03,2.53,-2.07,1
1,6176052320000,-6.93,7.7,7.5,1
1,6176102369000,-3.53,4.79,6.93,1
1,6176152326000,-0.04,6.24,2.79,1
1,6176202344000,-8.2,0.99,-0.95,1
1,6176252362000,-19.61,-7.5,-0.91,1
1,6176302320000,-14.82,-17.35,7.46,1
1,6176352338000,0.93,-3.95,-0.08,1
1,6176402265000,3.95,0.0,-3.34,1
1,6176452344000,13.29,0.76,13.06,1
1,6176502332000,-1.95,-0.53,-6.59,1
1,6176552320000,0.04,-7.01,-0.3,1
1,6176602338000,-19.61,-13.29,0.46,1
1,6176652326000,-19.34,-6.24,0.04,1
1,6176702344000,-18.35,-2.3,4.21,1
1,6176752332000,-12.87,1.54,4.48,1
1,6176802320000,-2.26,8.69,8.35,1
1,6176852338000,-0.57,7.86,3.45,1
1,6176902356000,0.19,2.91,-0.76,1
1,6176952344000,-16.59,2.72,-0.84,1
1,6177002332000,-19.61,-15.36,-1.23,1
1,6177052320000,-9.08,-15.05,13.29,1
1,6177102338000,-0.08,-4.9,-1.92,1
1,6177152356000,6.36,0.08,2.79,1
1,6177202344000,12.37,7.08,8.08,1
1,6177252332000,1.5,-0.89,-8.31,1
1,6177312268000,-12.37,-12.26,-2.45,1
1,6177372327000,-14.18,-7.46,3.91,1
1,6177422345000,-19.53,-6.21,4.75,1
1,6177472333000,-10.38,2.76,6.44,1
1,6177522321000,-10.92,3.91,0.72,1
1,6177572339000,-4.1,5.52,9.0,1
1,6177622297000,0.0,7.16,2.87,1
1,6177672345000,-9.96,1.57,-1.5,1
1,6177722333000,-19.61,-2.11,1.46,1
1,6177772321000,-19.23,-19.53,-0.61,1
1,6177822339000,-1.46,-9.0,6.85,1
1,6177872327000,4.33,-6.51,-1.08,1
1,6177922345000,13.53,5.37,13.25,1
1,6177972333000,2.64,1.42,-9.04,1
1,6178022321000,-3.79,-2.79,-4.06,1
1,6178072339000,-19.5,-10.19,-0.15,1
1,6178122297000,-13.99,-5.37,1.95,1
1,6178172345000,-18.07,-5.75,7.4,1
1,6178222364000,-7.25,1.95,1.76,1
1,6178272321000,-10.8,7.35,2.56,1
1,6178322339000,-2.64,4.33,7.46,1
1,6178372327000,-0.23,5.9,2.3,1
1,6178422345000,-13.59,2.91,-1.14,1
1,6178472333000,-19.61,-4.82,-2.64,1
1,6178522321000,-15.62,-18.89,6.17,1
1,6178572339000,-1.18,-9.11,2.3,1
1,6178622297000,7.67,-4.56,3.49,1
1,6178672376000,11.73,3.34,10.69,1
1,6178722333000,1.04,0.34,-8.27,1
1,6178782239000,-8.12,-4.9,-6.05,1
1,6178832349000,-18.31,-12.18,2.49,1
1,6178882337000,-14.98,-6.32,3.57,1
1,6178932325000,-17.77,2.26,8.16,1
1,6178982343000,-9.23,1.76,-7.25,1
1,6179032361000,-6.05,6.7,11.37,1
1,6179082349000,-2.75,8.39,5.52,1
1,6179082349000,-2.75,8.39,5.52,1
1,6179152326000,-9.7,1.27,-1.84,1
1,6179202375000,-19.27,-4.59,-0.76,1
1,6179252362000,-15.01,-18.96,10.53,1
1,6179302625000,-1.88,-7.89,0.76,1
1,6179352338000,3.76,-2.53,-3.53,1
1,6179402326000,16.04,0.38,9.51,1
1,6179452344000,-1.61,2.53,-7.7,1
1,6179505109000,2.96,-6.36,-0.99,1
1,6179562238000,-19.38,-19.27,2.49,1
1,6179622327000,-19.61,-9.19,0.76,1
1,6179672345000,-16.21,4.29,6.17,1
1,6179722333000,-10.0,6.7,6.28,1
1,6179772321000,-5.98,8.28,4.06,1
1,6179822339000,-2.22,11.03,-0.08,1
1,6179872327000,-2.26,3.87,-0.76,1
1,6179922223000,-15.7,-0.76,-2.26,1
1,6179922223000,-15.7,-0.76,-2.26,1
1,6180032300000,-3.36,-11.8,4.14,1
1,6180082319000,7.25,-3.87,1.33,1
1,6180132337000,14.48,3.57,9.47,1
1,6180182294000,0.5,1.5,-7.82,1
1,6180232312000,3.64,-6.4,-2.6,1
1,6180282300000,-16.89,-17.24,2.03,1
1,6180332349000,-17.69,-8.2,2.18,1
1,6180382337000,-18.35,-2.41,9.04,1
1,6180432325000,-16.74,1.31,-0.23,1
1,6180482343000,-5.67,8.58,7.31,1
1,6180532361000,-2.11,13.38,3.87,1
1,6180582349000,-1.12,2.91,-3.79,1
1,6180632337000,-16.63,-0.61,3.76,1
1,6180692273000,-19.61,-18.73,-6.78,1
1,6180742231000,-0.76,-15.47,10.73,1
1,6180792310000,5.79,-7.35,-4.37,1
1,6180842298000,14.94,3.83,12.57,1
1,6180892316000,-0.04,2.49,-8.24,1
1,6180892316000,-0.04,2.49,-8.24,1
1,6180952283000,-7.74,-3.87,-7.35,1
1,6181002332000,-17.97,-11.11,2.3,1
1,6181052320000,-17.97,-9.23,3.57,1
1,6181102338000,-12.76,-0.89,7.5,1
1,6181152326000,-8.81,0.34,-6.32,1
1,6181202375000,-8.16,6.59,11.56,1
1,6181252332000,-2.6,8.47,6.4,1
1,6181302320000,-2.14,3.15,-2.26,1
1,6181352338000,-18.58,2.45,-2.41,1
1,6181402326000,-19.61,-14.44,-5.6,1
1,6181452344000,-5.24,-17.08,13.44,1
1,6181502332000,4.21,-7.16,2.18,1
1,6181552320000,10.84,4.25,12.6,1
1,6181602338000,-4.02,0.19,-8.27,1
1,6181652326000,-7.16,4.29,-1.18,1
1,6181702344000,-18.16,-7.63,-8.88,1
1,6181752332000,-12.22,-7.31,6.21,1
1,6181802594000,-15.75,-9.34,0.46,1
1,6181852338000,-14.21,-2.26,0.04,1
1,6181902326000,-8.88,5.79,8.05,1
1,6181952344000,-5.24,4.37,3.95,1
1,6182002637000,-0.27,5.6,3.49,1
1,6182052320000,-12.15,0.61,-2.96,1
1,6182102338000,-19.3,-6.63,1.57,1
1,6182152326000,-16.63,-18.92,2.37,1
1,6182202375000,0.31,-7.74,5.6,1
1,6182252332000,2.15,-0.95,-1.92,1
1,6182302320000,12.18,0.57,10.5,1
1,6182352338000,-0.99,0.38,-10.08,1
1,6182402326000,3.79,-5.2,-1.18,1
1,6182452314000,-18.73,-18.2,-0.69,1
1,6182502393000,-18.77,-10.11,0.53,1
1,6182552320000,-19.53,-1.92,6.55,1
1,6182602338000,-15.43,3.87,1.04,1
1,6182652326000,-4.44,9.92,4.79,1
1,6182702344000,-3.06,11.07,2.72,1
1,6182752332000,0.69,3.83,-0.69,1
1,6182802320000,-14.6,0.93,0.19,1
1,6182852369000,-19.61,-16.04,-5.75,1
1,6182902326000,-1.65,-15.21,11.65,1
1,6182952344000,3.91,-3.98,-1.04,1
1,6183062299000,-0.46,-0.23,-8.05,1
1,6183062299000,-0.46,-0.23,-8.05,1
1,6183112317000,-3.98,-2.18,-3.15,1
1,6183162275000,-19.3,-12.3,-7.31,1
1,6183212293000,-15.17,-5.67,4.18,1
1,6183262342000,-15.05,-1.57,1.69,1
1,6183312330000,-7.4,2.07,-0.76,1
1,6183372297000,-9.58,7.35,7.16,1
1,6183422254000,-0.95,5.6,3.87,1
1,6183472333000,-0.27,2.3,-1.76,1
1,6183522321000,-15.83,2.34,-2.14,1
1,6183572339000,-19.61,-9.53,-0.65,1
1,6183622358000,-12.64,-17.35,13.06,1
1,6183672345000,-0.11,-5.9,-4.52,1
1,6183722333000,4.02,-0.76,-2.14,1
1,6183772321000,8.24,5.83,16.51,1
1,6183822339000,1.23,-2.49,-10.8,1
1,6183872327000,-11.73,-14.63,0.89,1
1,6183922345000,-16.63,-11.26,2.79,1
1,6183972333000,-19.23,-10.15,0.27,1
1,6184022321000,-19.61,-3.17,1.8,1
1,6184072339000,-13.44,7.97,12.41,1
1,6184122327000,-4.67,7.44,1.65,1
1,6184172345000,-0.5,9.47,3.38,1
1,6184222333000,4.48,4.52,1.08,1
1,6184272321000,-5.63,0.0,-0.95,1
1,6184332257000,-19.57,-10.5,-1.99,1
1,6184382337000,-8.01,-11.65,13.44,1
1,6184432294000,-2.75,-6.32,-0.84,1
1,6184482343000,1.69,-1.99,-2.56,1
1,6184532331000,13.02,7.67,12.18,1
1,6184582319000,2.49,0.46,-8.27,1
1,6184632337000,-11.45,-10.38,-5.94,1
1,6184682325000,-17.88,-12.76,5.86,1
1,6184732373000,-15.32,-9.28,7.08,1
1,6184782331000,-16.89,-0.46,7.86,1
1,6184832349000,-9.04,2.26,-6.28,1
1,6184882337000,-8.12,9.34,10.95,1
1,6184932325000,-1.5,5.94,1.84,1
1,6184982343000,1.46,3.87,0.34,1
1,6185032331000,-9.49,2.03,-1.5,1
1,6185082380000,-19.42,-8.39,-4.29,1
1,6185132337000,-14.06,-18.66,13.48,1
1,6185182325000,-3.76,-6.59,-1.12,1
1,6185232373000,2.6,-3.6,-3.79,1
1,6185282239000,14.71,3.99,12.95,1
1,6185332349000,1.5,0.84,-6.74,1
1,6185384229000,1.31,-9.28,-2.64,1
1,6185442243000,-19.5,-16.55,6.13,1
1,6185492292000,-19.42,-5.52,0.11,1
1,6185542310000,-16.09,-0.76,6.82,1
1,6185592298000,-11.11,2.98,9.47,1
1,6185642316000,-4.79,9.0,5.05,1
1,6185692304000,-0.27,6.59,2.22,1
1,6185742292000,-2.72,0.42,-0.89,1
1,6185792310000,-17.27,-0.95,-0.72,1
1,6185842298000,-19.61,-16.47,-1.99,1
1,6185892316000,-2.37,-11.33,9.92,1
1,6185942304000,1.69,-5.82,-3.11,1
1,6185992292000,14.02,0.57,14.82,1
1,6186042310000,1.38,2.76,-5.2,1
1,6186092298000,-3.64,-3.53,-5.37,1
1,6186142316000,-19.57,-10.92,-2.83,1
1,6186192304000,-11.6,-5.75,2.79,1
1,6186242292000,-18.58,-7.89,4.44,1
1,6186292310000,-13.53,2.56,1.04,1
1,6186342328000,-7.16,6.36,4.99,1
1,6186392316000,-4.48,4.79,6.28,1
1,6186442304000,-1.57,8.31,3.99,1
1,6186492231000,-0.89,1.76,-2.49,1
1,6186492231000,-0.89,1.76,-2.49,1
1,6186552259000,-17.5,-2.07,2.07,1
1,6186602338000,-18.28,-19.19,0.5,1
1,6186652326000,-2.37,-6.28,6.78,1
1,6186702344000,1.76,-4.29,-4.94,1
1,6186752332000,15.32,1.18,15.85,1
1,6186802320000,2.15,1.65,-6.28,1
1,6186852338000,-5.71,-6.47,-6.24,1
1,6186902326000,-18.43,-9.89,1.14,1
1,6186952344000,-15.24,-5.01,2.18,1
1,6187002332000,-16.13,-5.52,8.69,1
1,6187052320000,-7.44,0.99,2.45,1
1,6187102338000,-8.01,5.28,5.13,1
1,6187152326000,-3.72,3.21,7.89,1
1,6187202344000,-1.04,4.37,1.69,1
1,6187252332000,-14.06,1.57,-0.99,1
1,6187302320000,-19.46,-8.58,0.19,1
1,6187352338000,-16.17,-19.23,4.1,1
1,6187402326000,-0.19,-7.01,1.92,1
1,6187452344000,5.13,-3.41,0.27,1
1,6187502332000,10.15,6.82,13.82,1
1,6187552320000,1.08,1.61,-8.39,1
1,6187612287000,-10.61,-5.05,-4.1,1
1,6187672345000,-16.4,-11.92,2.07,1
1,6187722364000,-16.7,-7.74,6.24,1
1,6187772321000,-12.83,1.8,9.23,1
1,6187822339000,-7.31,2.41,-0.84,1
1,6187872358000,-5.24,4.21,7.46,1
1,6187922376000,0.19,7.27,4.86,1
1,6187972333000,-4.4,1.84,-1.42,1
1,6188022321000,-19.5,1.23,-4.59,1
1,6188072339000,-19.42,-18.07,1.5,1
1,6188132276000,-3.45,-9.43,6.63,1
1,6188182233000,1.33,-3.98,-5.43,1
1,6188232343000,14.94,3.15,12.03,1
1,6188282331000,1.08,1.76,-10.0,1
1,6188332349000,-3.17,-4.75,-4.56,1
1,6188332349000,-3.17,-4.75,-4.56,1
1,6188395978000,-19.61,-16.21,0.84,1
1,6188452344000,-13.63,-5.67,3.49,1
1,6188502332000,-15.55,-2.26,5.86,1
1,6188552320000,-7.01,3.95,2.37,1
1,6188602338000,-8.39,5.13,5.24,1
1,6188652326000,-0.65,8.81,8.05,1
1,6188702344000,-2.11,1.92,-1.42,1
1,6188752271000,-18.77,3.06,-1.04,1
1,6188802320000,-19.61,-17.54,-4.37,1
1,6188852277000,-1.73,-12.6,10.38,1
1,6188902356000,3.21,-4.52,-5.13,1
1,6188952344000,16.86,-0.11,14.14,1
1,6189002332000,2.15,1.5,-4.18,1
1,6189052320000,-1.5,-1.42,-5.24,1
1,6189102369000,-16.55,-13.17,-1.65,1
1,6189152356000,-18.05,-9.7,2.56,1
1,6189202344000,-19.11,-4.52,8.62,1
1,6189252332000,-12.07,6.13,7.86,1
1,6189302350000,-8.31,4.29,0.38,1
1,6189352338000,-3.83,3.26,7.44,1
1,6189402295000,0.95,4.99,3.64,1
1,6189472272000,-10.65,1.84,-1.5,1
1,6189522321000,-19.61,-10.57,-6.13,1
1,6189572278000,-12.18,-17.54,11.56,1
1,6189622266000,-0.57,-7.08,0.57,1
1,6189672345000,5.41,-2.49,-0.38,1
1,6189722394000,13.87,6.82,14.21,1
1,6189772351000,-0.27,0.08,-9.15,1
1,6189822248000,-10.31,-8.85,-5.09,1
1,6189872327000,-18.16,-10.65,4.29,1
1,6189922376000,-16.7,-7.46,4.99,1
1,6189972425000,-16.44,-1.04,10.19,1
1,6190022321000,-8.88,1.61,-6.66,1
1,6190072339000,-6.4,7.06,10.12,1
1,6190122327000,-1.88,7.16,4.67,1
1,6190172345000,-0.61,2.18,-0.72,1
1,6190222364000,-15.55,2.76,-1.5,1
1,6190272229000,-19.61,-12.53,0.23,1
1,6190322339000,-9.92,-14.9,10.99,1
1,6190372358000,-0.53,-6.85,0.11,1
1,6190422345000,6.4,-2.79,3.41,1
1,6190472333000,7.35,6.05,8.01,1
1,6190522321000,-0.15,1.8,-6.43,1
1,6190572248000,-11.37,-9.66,-5.52,1
1,6190622327000,-15.4,-10.42,1.76,1
1,6190672345000,-15.62,-8.66,7.12,1
1,6190722333000,-14.9,0.57,7.78,1
1,6190792310000,-6.93,0.57,-3.41,1
1,6190842237000,-6.43,3.64,4.52,1
1,6190892347000,-1.14,9.81,2.45,1
1,6190942273000,-0.27,1.99,-2.22,1
1,6190992292000,-16.55,0.42,-1.42,1
1,6191042310000,-19.61,-17.82,3.6,1
1,6191092298000,-5.98,-10.23,9.7,1
1,6191142316000,-2.91,-6.74,-2.98,1
1,6191192304000,5.24,-1.5,3.21,1
1,6191242292000,4.18,9.81,5.24,1
1,6191292310000,0.27,-1.31,-5.48,1
1,6191292310000,0.27,-1.31,-5.48,1
1,6191353193000,-15.43,-10.08,-4.82,1
1,6191412305000,-12.64,-10.53,8.54,1
1,6191472364000,-16.93,-6.74,-1.65,1
1,6191522321000,-12.87,4.71,2.18,1
1,6191572339000,-8.92,6.47,3.11,1
1,6191622358000,-2.96,6.55,6.66,1
1,6191672315000,0.61,5.9,0.89,1
1,6191722333000,-5.2,0.31,-1.42,1
1,6191772229000,-16.47,-2.37,3.34,1
1,6191822309000,-17.46,-17.35,1.92,1
1,6191872327000,-2.6,-4.9,6.85,1
1,6191922345000,-2.53,-3.49,-3.95,1
1,6191972333000,10.53,2.87,4.44,1
1,6192022321000,1.14,2.91,-3.57,1
1,6192072339000,-0.95,-0.11,-2.53,1
1,6192122327000,-14.06,-14.37,-9.34,1
1,6192172315000,-13.44,-8.88,7.06,1
1,6192222333000,-16.85,-4.99,-4.37,1
1,6192272321000,-17.35,0.99,9.47,1
1,6192322309000,-6.32,-2.37,3.17,1
1,6192372327000,-5.24,2.64,1.84,1
1,6192422345000,-1.99,9.51,3.34,1
1,6192472303000,0.76,3.11,-1.31,1
1,6192522260000,-12.37,1.46,-1.12,1
1,6192572339000,-19.61,-10.11,-5.71,1
1,6192622327000,-12.37,-12.49,7.27,1
1,6192682264000,-4.67,-8.39,-0.69,1
1,6192732343000,10.19,-5.86,10.27,1
1,6192782331000,-1.95,2.07,-2.34,1
1,6192832349000,-2.72,7.01,-2.68,1
1,6192886060000,-6.4,-1.5,-5.94,1
1,6192942212000,-19.27,-15.28,4.82,1
1,6192992261000,-13.1,-6.02,2.34,1
1,6193042341000,-11.3,-2.91,0.99,1
1,6193092298000,-6.55,-2.6,2.18,1
1,6193142316000,-2.79,1.46,4.48,1
1,6193192304000,-3.91,4.75,5.52,1
1,6193242292000,-0.95,2.91,0.46,1
1,6193292371000,-11.99,3.06,-1.33,1
1,6193342298000,-19.61,-11.18,-8.54,1
1,6193392316000,-16.44,-7.27,0.93,1
1,6193442304000,-9.53,-12.34,6.89,1
1,6193492292000,-0.5,-6.82,-4.33,1
1,6193542310000,9.7,3.41,10.8,1
1,6193592298000,1.38,2.83,-8.08,1
1,6193642316000,2.15,-2.6,-3.83,1
1,6193692304000,-14.94,-16.17,-8.58,1
1,6193742292000,-19.04,-13.78,2.3,1
1,6193792310000,-12.56,-2.41,11.14,1
1,6193842298000,-15.09,1.38,0.72,1
1,6193892316000,-6.74,2.91,8.54,1
1,6193942304000,-3.02,4.02,6.47,1
1,6193992261000,0.57,1.31,-0.3,1
1,6194042341000,-3.68,2.22,-1.57,1
1,6194092298000,-18.96,1.92,-10.11,1
1,6194142316000,-18.2,-14.37,8.54,1
1,6194192273000,-3.36,-10.88,8.54,1
1,6194242292000,-1.12,-5.75,-1.69,1
1,6194294477000,3.3,2.49,-0.42,1
1,6194294477000,3.3,2.49,-0.42,1
1,6194352277000,5.79,7.25,0.65,1
1,6194402326000,3.41,-0.99,-3.17,1
1,6194452527000,-10.42,-14.75,-6.55,1
1,6194502271000,-19.61,-13.67,4.4,1
1,6194552320000,-15.62,2.56,11.35,1
1,6194602338000,-9.38,3.57,-3.76,1
1,6194652326000,-3.95,3.95,6.89,1
1,6194702375000,-5.13,6.02,7.93,1
1,6194752332000,-0.42,3.72,0.57,1
1,6194802320000,-8.73,1.42,-1.31,1
1,6194852277000,-19.61,-6.59,-8.62,1
1,6194902326000,-11.54,-15.09,10.08,1
1,6194952344000,-3.26,-6.66,3.87,1
1,6195002332000,-1.14,-2.37,-5.98,1
1,6195052320000,8.58,0.8,1.76,1
1,6195102338000,3.91,3.34,-5.41,1
1,6195152326000,1.5,-1.12,-1.69,1
1,6195202344000,-16.09,-15.28,-6.17,1
1,6195252301000,-19.61,-9.85,0.38,1
1,6195302350000,-16.59,1.57,9.28,1
1,6195352338000,-11.18,2.79,-6.36,1
1,6195402326000,-7.55,7.5,10.12,1
1,6195452375000,-1.8,6.89,5.01,1
1,6195502362000,1.27,4.79,1.65,1
1,6195552381000,-5.28,1.46,-0.53,1
1,6195612287000,-19.61,-4.33,-6.28,1
1,6195672345000,-12.76,-16.93,9.72,1
1,6195722272000,0.04,-5.86,-2.53,1
1,6195772321000,9.53,-5.56,7.86,1
1,6195840345000,2.98,5.83,1.92,1
1,6195892286000,0.65,0.95,-4.59,1
1,6195942304000,-12.83,-9.81,-9.3,1
1,6195992261000,-19.38,-9.04,2.56,1
1,6196042310000,-18.2,-0.61,7.16,1
1,6196092298000,-11.26,2.53,-6.82,1
1,6196142316000,-5.43,6.28,8.5,1
1,6196192304000,-4.4,8.12,4.29,1
1,6196242292000,1.23,6.32,2.96,1
1,6196292310000,-3.79,1.23,-0.84,1
1,6196342298000,-19.42,2.49,-1.42,1
1,6196392316000,-18.66,-18.66,3.53,1
1,6196442304000,-4.14,-9.85,5.33,1
1,6196492322000,-0.76,-5.33,-4.59,1
1,6196542341000,15.66,1.8,11.3,1
1,6196592328000,6.32,4.71,-1.14,1
1,6196642316000,-2.56,-2.26,-10.46,1
1,6196692273000,-19.04,-10.84,1.27,1
1,6196742322000,-15.32,-7.04,2.87,1
1,6196792310000,-19.19,-7.31,4.86,1
1,6196842298000,-13.4,2.98,-5.56,1
1,6196892316000,-6.78,6.4,4.14,1
1,6196892316000,-6.78,6.4,4.14,1
1,6196948255000,-5.24,7.67,7.4,1
1,6197002332000,0.38,6.89,2.87,1
1,6197052320000,-6.82,1.08,-0.61,1
1,6197102338000,-19.61,-1.23,-2.87,1
1,6197152326000,-17.05,-19.5,9.19,1
1,6197202344000,-3.17,-8.05,2.34,1
1,6197252332000,1.18,-3.17,-3.76,1
1,6197302320000,12.87,4.4,6.44,1
1,6197352338000,1.08,1.23,-4.99,1
1,6197402326000,3.11,-8.92,-3.11,1
1,6197452344000,-19.57,-14.79,2.72,1
1,6197502332000,-16.36,-7.5,0.76,1
1,6197552320000,-19.61,-3.68,5.33,1
1,6197602338000,-13.95,5.94,0.93,1
1,6197652326000,-8.5,8.73,8.24,1
1,6197702344000,-3.87,9.58,4.99,1
1,6197752332000,2.07,3.91,1.5,1
1,6197802350000,-10.69,0.19,0.95,1
1,6197852369000,-19.61,-8.58,-5.43,1
1,6197902356000,-9.89,-17.77,10.76,1
1,6197954480000,-0.99,-7.27,-3.53,1
1,6198012281000,9.72,-0.38,0.31,1
1,6198072339000,7.7,1.69,5.37,1
1,6198122327000,1.33,-2.91,-6.28,1
1,6198172345000,-12.3,-14.9,-0.5,1
1,6198222333000,-19.34,-9.47,3.99,1
1,6198272321000,-19.38,-4.48,5.33,1
1,6198322339000,-8.77,3.11,4.02,1
1,6198372327000,-6.7,6.36,4.14,1
1,6198422345000,-3.95,8.96,7.12,1
1,6198472333000,0.04,6.28,1.12,1
1,6198522321000,-4.21,2.45,-2.75,1
1,6198572217000,-19.04,-1.23,3.45,1
1,6198642377000,-17.92,-19.11,3.45,1
1,6198692212000,-0.42,-9.7,-2.18,1
1,6198742383000,10.73,-4.37,6.51,1
1,6198792279000,5.48,4.25,3.26,1
1,6198842206000,-1.65,1.95,-7.82,1
1,6198892316000,-11.3,-6.82,-2.37,1
1,6198942304000,-19.57,-11.3,0.46,1
1,6198992292000,-16.24,-8.88,2.68,1
1,6199042310000,-14.82,-0.42,2.26,1
1,6199092298000,-8.31,3.99,2.68,1
1,6199142377000,-7.89,6.32,6.93,1
1,6199192304000,-1.8,11.07,3.95,1
1,6199242292000,2.6,2.72,-0.8,1
1,6199242292000,2.6,2.72,-0.8,1
1,6199298414000,-13.59,0.76,0.57,1
1,6199352338000,-19.61,-15.85,-3.68,1
1,6199402326000,-3.11,-14.18,10.84,1
1,6199452344000,1.14,-6.97,-2.22,1
1,6199502332000,14.29,-3.3,10.76,1
1,6199552320000,2.45,3.34,-3.26,1
1,6199602338000,-1.23,-2.98,-5.98,1
1,6199652326000,-18.58,-7.97,-6.17,1
1,6199702344000,-17.24,-8.96,3.3,1
1,6199752332000,-18.66,-6.97,-0.61,1
1,6199802320000,-16.44,5.63,-4.67,1
1,6199852338000,-4.06,6.74,5.79,1
1,6199902326000,-4.52,8.54,7.67,1
1,6199952344000,-1.23,8.69,2.26,1
1,6200002515000,-2.53,2.15,-0.27,1
1,6200052320000,-19.57,2.22,-5.28,1
1,6200102338000,-14.9,-18.85,8.39,1
1,6200152326000,-3.11,-9.04,3.53,1
1,6200202314000,1.42,-2.49,-2.53,1
1,6200252332000,11.41,6.47,3.91,1
1,6200302320000,3.02,1.38,-4.25,1
1,6200352369000,0.53,-5.33,-6.21,1
1,6200402265000,-17.27,-13.59,-2.72,1
1,6200452344000,-17.31,-9.23,3.49,1
1,6200502332000,-18.66,-4.99,6.89,1
1,6200552320000,-12.79,4.33,1.08,1
1,6200602338000,-7.12,8.69,6.78,1
1,6200652326000,-3.06,7.59,3.72,1
1,6200702375000,1.08,6.89,2.64,1
1,6200752332000,-3.49,2.34,-1.76,1
1,6200802320000,-19.46,-1.84,0.65,1
1,6200852338000,-17.5,-19.04,6.55,1
1,6200902601000,-3.49,-10.38,4.48,1
1,6200952344000,3.64,-3.41,-4.4,1
1,6201002332000,14.37,5.13,13.59,1
1,6201052320000,1.31,1.95,-12.98,1
1,6201102338000,-2.6,-4.75,-2.68,1
1,6201152326000,-19.19,-15.85,-3.15,1
1,6201202344000,-17.88,-9.28,5.75,1
1,6201252362000,-16.21,-0.99,4.44,1
1,6201302320000,-9.3,0.93,-3.68,1
1,6201352338000,-9.04,8.66,11.56,1
1,6201402326000,-2.72,2.76,2.53,1
1,6201452344000,1.92,5.22,-0.61,1
1,6201502332000,-12.03,4.86,-4.21,1
1,6201552320000,-19.61,-5.05,-2.72,1
1,6201602369000,-15.6,-18.35,8.08,1
1,6201652326000,-3.53,-10.42,1.61,1
1,6201704816000,1.95,-2.68,-1.99,1
1,6201762342000,14.71,2.96,11.26,1
1,6201822278000,2.18,2.18,-7.08,1
1,6201875989000,-4.59,-7.04,-5.86,1
1,6201932294000,-19.61,-15.28,-0.72,1
1,6201982343000,-17.24,-3.06,11.56,1
1,6202032331000,-13.63,1.95,-5.43,1
1,6202082349000,-4.9,6.82,8.2,1
1,6202132337000,-4.56,6.51,4.18,1
1,6202182325000,0.61,6.17,2.53,1
1,6202232343000,-1.5,1.76,-2.3,1
1,6202282300000,-18.47,0.27,-0.11,1
1,6202332349000,-19.23,-19.3,4.44,1
1,6202382337000,-5.41,-10.88,6.24,1
1,6202432294000,0.42,-3.87,-3.3,1
1,6202482373000,5.37,-1.84,-2.79,1
1,6202532331000,7.16,8.24,4.1,1
1,6202582349000,1.76,1.88,-4.99,1
1,6202632367000,-3.17,-10.08,-1.84,1
1,6202682325000,-19.61,-19.3,2.3,1
1,6202732312000,-19.61,-7.01,2.87,1
1,6202782331000,-14.71,8.43,5.37,1
1,6202832349000,-10.34,8.35,0.84,1
1,6202882337000,-2.6,8.85,7.67,1
1,6202932325000,0.84,5.01,1.99,1
1,6202982343000,-4.14,0.11,-2.68,1
1,6203032300000,-18.77,-3.34,0.61,1
1,6203082349000,-16.78,-19.57,3.91,1
1,6203132337000,-4.59,-9.34,3.68,1
1,6203182325000,3.21,-4.25,-1.76,1
1,6203232221000,13.59,4.33,12.79,1
1,6203282331000,1.8,1.38,-9.38,1
1,6203332349000,0.99,-4.37,-2.98,1
1,6203382306000,-17.73,-15.28,-8.12,1
1,6203432325000,-17.77,-7.4,3.76,1
1,6203482343000,-18.77,-0.5,4.99,1
1,6203532331000,-10.46,0.46,-6.09,1
1,6203582349000,-4.33,5.71,8.28,1
1,6203632337000,-3.98,9.3,7.4,1
1,6203632337000,-3.98,9.3,7.4,1
1,6203702314000,-2.6,2.37,-1.08,1
1,6203752271000,-17.43,-0.34,-2.41,1
1,6203802320000,-19.61,-17.73,-0.69,1
1,6203852338000,-3.83,-14.48,11.5,1
1,6203902326000,0.99,-4.02,-2.53,1
1,6203952344000,11.03,0.11,4.21,1
1,6204002576000,3.83,3.02,2.53,1
1,6204052320000,0.84,-1.73,-6.21,1
1,6204102338000,-12.15,-13.67,-3.17,1
1,6204152326000,-17.62,-10.31,1.95,1
1,6204202375000,-19.42,-6.43,6.09,1
1,6204252362000,-14.6,5.28,8.43,1
1,6204302320000,-9.92,4.25,1.73,1
1,6204352338000,-5.82,6.02,7.25,1
1,6204402326000,-1.08,7.46,2.91,1
1,6204452344000,-3.76,1.54,-2.11,1
1,6204512311000,-19.08,-1.84,-2.03,1
1,6204572309000,-15.28,-19.46,9.38,1
1,6204622205000,-1.57,-6.13,-1.12,1
1,6204672345000,2.15,-0.89,-0.53,1
1,6204722333000,13.29,2.91,9.23,1
1,6204772321000,1.31,0.57,-8.47,1
1,6204822309000,0.8,-8.43,-1.12,1
1,6204872358000,-19.53,-18.47,-2.72,1
1,6204922376000,-19.61,-9.89,2.56,1
1,6204972333000,-18.89,1.95,8.31,1
1,6205022321000,-13.78,3.26,2.72,1
1,6205072339000,-1.69,9.19,2.3,1
1,6205132245000,-5.43,13.06,4.56,1
1,6205182325000,0.57,2.79,-1.69,1
1,6205232343000,-13.67,-1.95,0.23,1
1,6205282331000,-19.61,-18.12,-1.42,1
1,6205332349000,-5.79,-12.87,10.34,1
1,6205382306000,-0.04,-4.48,-1.92,1
1,6205433881000,4.25,0.42,0.23,1
1,6205433881000,4.25,0.42,0.23,1
1,6205502729000,5.83,5.13,2.11,1
1,6205552320000,0.34,-5.33,0.93,1
1,6205612287000,-17.35,-16.51,-2.18,1
1,6205672437000,-15.83,-7.7,0.99,1
1,6205722333000,-19.61,-2.98,2.87,1
1,6205772321000,-12.03,6.89,4.94,1
1,6205822309000,-7.46,7.63,5.24,1
1,6205872205000,-2.6,10.27,5.09,1
1,6205922345000,1.92,4.1,-1.57,1
1,6205972333000,-12.45,1.57,-2.83,1
1,6206022321000,-19.61,-12.83,-3.57,1
1,6206072339000,-11.33,-17.2,12.72,1
1,6206122327000,-0.76,-6.28,-0.99,1
1,6206172651000,5.79,-3.41,3.3,1
1,6206222333000,11.75,2.56,8.35,1
1,6206272229000,1.54,1.46,-6.09,1
1,6206322614000,-0.38,-9.77,0.15,1
1,6206372327000,-19.61,-15.85,-0.34,1
1,6206442304000,-16.74,-6.82,1.31,1
1,6206492261000,-13.38,1.76,6.13,1
1,6206542341000,-11.65,2.76,3.06,1
1,6206592267000,-4.71,7.46,7.46,1
1,6206642316000,-0.11,4.94,1.69,1
1,6206692304000,-9.43,-0.04,-0.69,1
1,6206742322000,-19.5,-4.94,-2.68,1
1,6206792310000,-18.05,-19.34,1.69,1
1,6206842298000,-0.27,-10.5,6.21,1
1,6206892316000,6.28,-6.24,3.26,1
1,6206942304000,11.69,4.6,10.53,1
1,6206992261000,2.64,0.38,-7.65,1
1,6207042310000,-2.34,-5.6,-4.02,1
1,6207092298000,-19.61,-13.14,-3.11,1
1,6207142316000,-18.05,-7.27,1.73,1
1,6207192304000,-17.67,-1.46,9.92,1
1,6207242292000,-11.18,1.88,-4.79,1
1,6207292310000,-8.01,3.91,6.21,1
1,6207342206000,-3.26,10.76,5.41,1
1,6207392316000,-1.42,6.51,-0.27,1
1,6207442304000,-10.99,0.61,0.34,1
1,6207492292000,-19.57,-7.4,-6.82,1
1,6207542310000,-10.92,-18.31,13.14,1
1,6207592298000,-1.76,-8.54,0.57,1
1,6207642316000,9.51,-2.14,4.02,1
1,6207692304000,3.95,4.71,0.53,1
1,6207742292000,-2.41,1.69,-5.43,1
1,6207792341000,-14.52,-3.57,-0.84,1
1,6207842328000,-18.54,-11.8,-1.99,1
1,6207892316000,-14.67,-7.78,6.89,1
1,6207942304000,-14.98,-1.5,2.37,1
1,6207992261000,-9.08,2.45,2.37,1
1,6208042310000,-7.16,4.75,2.6,1
1,6208092298000,-0.46,12.57,5.67,1
1,6208142316000,-2.68,5.28,-1.95,1
1,6208192365000,-16.47,2.45,-4.48,1
1,6208242292000,-18.28,-18.2,6.78,1
1,6208292310000,-3.95,-8.5,6.89,1
1,6208342298000,0.04,-1.42,-2.83,1
1,6208392316000,11.18,6.78,4.02,1
1,6208442304000,3.83,1.99,-7.35,1
1,6208492292000,-4.21,-1.8,-4.79,1
1,6208542310000,-19.61,-10.42,3.45,1
1,6208592298000,-17.62,-10.61,5.33,1
1,6208642316000,-18.16,-4.99,0.84,1
1,6208692304000,-11.3,2.91,2.07,1
1,6208742322000,-7.04,2.96,5.98,1
1,6208792310000,-5.52,5.28,6.85,1
1,6208842298000,-0.76,8.16,3.79,1
1,6208892316000,-0.27,1.69,-1.76,1
1,6208942304000,-15.36,1.95,2.22,1
1,6208992261000,-19.61,-14.4,-7.12,1
1,6209042310000,-6.93,-12.6,12.53,1
1,6209042310000,-6.93,-12.6,12.53,1
1,6209102308000,-0.11,-4.79,-0.91,1
1,6209152326000,9.89,0.72,7.31,1
1,6209202344000,3.76,2.3,-2.6,1
1,6209252332000,0.0,-0.42,-4.44,1
1,6209312299000,-13.57,-9.04,-2.22,1
1,6209362348000,-18.47,-7.16,2.72,1
1,6209422315000,-16.89,-1.99,8.5,1
1,6209472333000,-10.69,0.84,-5.48,1
1,6209522321000,-5.41,7.97,9.0,1
1,6209572339000,-3.11,9.66,7.63,1
1,6209622327000,0.84,2.64,-0.61,1
1,6209672315000,-12.26,1.42,-1.61,1
1,6209722333000,-19.61,-6.7,-4.82,1
1,6209772321000,-14.18,-18.66,14.25,1
1,6209822309000,-1.92,-6.78,-0.61,1
1,6209872327000,6.51,-3.3,3.99,1
1,6209922345000,8.69,6.82,10.84,1
1,6209972364000,-0.57,0.23,-11.26,1
1,6210022321000,-3.02,-2.75,-2.3,1
1,6210072339000,-18.47,-9.66,-3.26,1
1,6210122327000,-18.31,-5.63,3.21,1
1,6210172315000,-17.35,-1.69,7.55,1
1,6210222333000,-10.42,-1.46,-9.81,1
1,6210272260000,-8.27,9.04,11.54,1
1,6210332288000,-2.91,6.97,7.86,1
1,6210382337000,-3.15,3.34,-2.49,1
1,6210432325000,-17.97,3.72,-0.91,1
1,6210482343000,-19.61,-15.28,-2.64,1
1,6210532361000,-5.48,-16.97,13.44,1
1,6210582380000,0.23,-5.13,-1.99,1
1,6210632337000,13.63,-0.84,6.97,1
1,6210682355000,2.91,1.42,-2.11,1
1,6210732343000,-1.76,-1.69,-5.82,1
1,6210782209000,-15.36,-4.9,-2.3,1
1,6210832349000,-15.83,-8.73,2.96,1
1,6210882337000,-19.3,-7.44,6.13,1
1,6210932325000,-15.6,1.27,8.66,1
1,6210982343000,-6.32,1.95,-3.6,1
1,6211032331000,-5.86,5.48,6.74,1
1,6211082349000,-4.56,13.95,4.21,1
1,6211132337000,0.53,3.83,-0.46,1
1,6211182294000,-14.94,1.69,-2.3,1
1,6211232343000,-19.61,-16.4,1.08,1
1,6211282331000,-6.24,-14.37,9.28,1
1,6211332349000,0.46,-6.24,-2.72,1
1,6211382337000,10.0,-0.53,7.44,1
1,6211432325000,2.96,5.09,-2.91,1
1,6211432325000,2.96,5.09,-2.91,1
1,6211502301000,2.3,-3.95,-2.83,1
1,6211552289000,-19.61,-13.63,-1.12,1
1,6211602338000,-16.32,-6.63,3.57,1
1,6211652326000,-18.12,0.84,12.68,1
1,6211702344000,-10.88,1.14,-5.52,1
1,6211752332000,-4.63,7.55,11.14,1
1,6211802320000,-2.64,9.0,6.4,1
1,6211852369000,1.18,2.79,-1.65,1
1,6211902356000,-13.95,2.72,-2.37,1
1,6211962262000,-19.61,-14.44,-6.43,1
1,6212022382000,-4.48,-14.21,11.14,1
1,6212072248000,0.65,-4.29,-2.11,1
1,6212122327000,15.32,-0.23,9.04,1
1,6212172315000,1.14,-1.18,-5.75,1
1,6212222333000,-0.04,-1.76,-4.48,1
1,6212272229000,-13.91,-9.28,-2.87,1
1,6212322339000,-19.61,-10.19,2.3,1
1,6212372327000,-18.05,-5.63,3.87,1
1,6212422345000,-9.04,-3.36,2.56,1
1,6212472333000,-5.9,6.13,8.89,1
1,6212522321000,-6.13,5.94,5.79,1
1,6212572339000,0.08,6.51,2.49,1
1,6212622327000,-7.55,2.18,-2.3,1
1,6212672315000,-19.53,-0.23,0.65,1
1,6212722333000,-19.5,-19.38,3.34,1
1,6212772321000,-4.18,-12.15,6.59,1
1,6212822309000,0.23,-3.72,-2.11,1
1,6212882276000,9.92,-0.08,4.6,1
1,6212932355000,0.15,2.64,-4.9,1
1,6212982343000,2.68,-4.1,-3.3,1
1,6213032331000,-13.99,-17.46,2.34,1
1,6213082349000,-19.61,-12.53,2.07,1
1,6213132337000,-19.61,-4.56,3.21,1
1,6213182325000,-17.54,6.63,5.18,1
1,6213232343000,-4.06,9.62,2.87,1
1,6213282331000,-4.71,11.8,3.87,1
1,6213332319000,0.8,5.33,-0.46,1
1,6213382337000,-7.82,0.8,-2.6,1
1,6213432325000,-19.53,-7.93,1.14,1
1,6213482343000,-15.62,-19.11,10.5,1
1,6213532331000,-2.68,-7.86,1.38,1
1,6213582349000,1.04,-3.21,-3.79,1
1,6213632306000,10.12,1.84,1.73,1
1,6213682294000,1.38,5.48,1.88,1
1,6213732343000,2.03,-4.59,-5.41,1
1,6213792310000,-15.43,-16.09,-3.06,1
1,6213842298000,-19.61,-14.52,0.5,1
1,6213892255000,-13.48,-3.83,8.85,1
1,6213942304000,-10.88,-2.41,-4.82,1
1,6213992292000,-5.41,9.81,5.22,1
1,6214042310000,-1.46,5.43,2.18,1
1,6214092298000,-4.37,1.61,0.95,1
1,6214142225000,-16.4,1.65,-2.22,1
1,6214192304000,-19.61,-9.81,-1.88,1
1,6214242292000,-12.6,-18.47,12.95,1
1,6214292371000,8.43,-4.75,4.52,1
1,6214342328000,8.43,-4.75,4.52,1
1,6214392316000,10.8,6.02,10.23,1
1,6214442212000,2.22,0.5,-4.94,1
1,6214492292000,-1.38,-10.65,-3.95,1
1,6214542310000,-19.57,-16.97,-0.8,1
1,6214592298000,-19.08,-7.25,2.76,1
1,6214642316000,-16.66,3.53,14.1,1
1,6214692304000,-8.92,2.07,-4.14,1
1,6214742322000,-6.51,6.59,10.12,1
1,6214792341000,-1.99,7.55,3.38,1
1,6214842298000,-3.76,1.8,-2.56,1
1,6214892316000,-17.27,-0.27,-0.08,1
1,6214892316000,-17.27,-0.27,-0.08,1
1,6214952314000,-19.61,-16.17,-0.46,1
1,6215002271000,-6.55,-14.75,8.73,1
1,6215052320000,1.88,-7.35,-3.06,1
1,6215102338000,11.8,-3.15,11.26,1
1,6215152326000,2.11,1.08,2.07,1
1,6215202344000,3.34,-2.07,-4.29,1
1,6215252851000,-4.52,-8.12,-3.91,1
1,6215302320000,-19.61,-17.43,-2.98,1
1,6215352338000,-19.61,-8.62,3.79,1
1,6215402326000,-18.5,2.87,2.96,1
1,6215452344000,-10.92,6.21,-0.61,1
1,6215502332000,-6.47,9.3,9.3,1
1,6215552320000,-2.11,6.13,1.69,1
1,6215602338000,2.26,1.84,-1.08,1
1,6215652326000,-11.07,1.18,-0.57,1
1,6215702375000,-19.61,-10.04,-1.14,1
1,6215752332000,-12.18,-17.73,13.48,1
1,6215812268000,-2.3,-7.65,-0.04,1
1,6215872327000,3.91,1.5,0.11,1
1,6215922345000,6.05,4.29,6.02,1
1,6215972333000,1.61,1.27,-6.43,1
1,6216022351000,-6.78,-10.38,-1.38,1
1,6216072339000,-18.81,-9.43,1.69,1
1,6216122327000,-18.05,-6.13,3.26,1
1,6216172315000,-13.48,-4.75,6.78,1
1,6216222333000,-11.54,-2.22,-3.15,1
1,6216272229000,-6.7,8.73,11.41,1
1,6216322339000,-1.5,9.28,4.9,1
1,6216372327000,1.14,1.38,-0.19,1
1,6216422345000,-11.69,1.76,-2.6,1
1,6216472333000,-19.61,-10.27,0.93,1
1,6216522321000,-11.65,-12.98,14.67,1
1,6216572339000,-3.57,-3.06,-0.08,1
1,6216622236000,0.42,1.46,-3.06,1
1,6216672315000,8.77,8.69,-4.59,1
1,6216722333000,1.95,4.06,1.88,1
1,6216772321000,0.95,-7.7,5.33,1
1,6216822339000,-16.17,-13.72,-4.37,1
1,6216872327000,-18.54,-9.15,1.61,1
1,6216922345000,-18.66,-0.3,2.11,1
1,6216972364000,-13.59,1.69,1.38,1
1,6217022321000,-4.94,8.69,8.16,1
1,6217072339000,-2.45,8.01,4.82,1
1,6217122327000,1.76,3.3,1.08,1
1,6217172315000,-7.46,0.53,-1.88,1
1,6217222211000,-19.61,-5.05,-1.18,1
1,6217272321000,-15.28,-17.24,10.31,1
1,6217322309000,-2.72,-7.35,2.53,1
1,6217372327000,-0.69,-3.87,-3.11,1
1,6217422376000,11.35,0.72,7.21,1
1,6217472333000,2.87,3.64,-4.9,1
1,6217522321000,2.83,-1.99,-2.83,1
1,6217572339000,-16.89,-16.4,-4.86,1
1,6217622327000,-19.61,-10.08,1.12,1
1,6217672315000,-16.13,-0.65,9.34,1
1,6217722333000,-13.06,4.1,-0.3,1
1,6217772321000,-4.33,7.55,6.7,1
1,6217822309000,-3.6,9.51,5.86,1
1,6217872327000,1.46,3.45,0.04,1
1,6217922345000,-10.04,1.14,-0.08,1
1,6217972333000,-19.61,-8.2,-2.03,1
1,6218022321000,-14.75,-17.05,11.22,1
1,6218072248000,-1.99,-5.71,-0.04,1
1,6218122358000,0.65,-0.72,-1.95,1
1,6218172315000,12.64,6.66,7.74,1
1,6218222333000,2.03,0.65,-4.94,1
1,6218272321000,-0.08,-2.68,-1.8,1
1,6218322278000,-17.16,-16.47,-3.11,1
1,6218372327000,-18.89,-9.08,2.49,1
1,6218422345000,-16.7,1.33,10.99,1
1,6218472333000,-10.15,0.46,-4.86,1
1,6218522321000,-5.6,4.25,8.12,1
1,6218572339000,-3.91,7.74,5.83,1
1,6218622327000,0.15,5.94,0.23,1
1,6218672345000,-10.27,0.8,-1.12,1
1,6218722333000,-19.61,-7.4,-4.14,1
1,6218772321000,-12.87,-16.7,10.46,1
1,6218822309000,-1.61,-7.65,-0.11,1
1,6218872327000,2.6,-2.98,-0.19,1
1,6218922254000,12.22,4.14,10.46,1
1,6218972333000,2.91,-0.95,-6.63,1
1,6219022321000,-0.61,-6.89,-0.08,1
1,6219072370000,-19.61,-16.85,-0.42,1
1,6219122327000,-18.28,-6.66,1.61,1
1,6219172345000,-13.21,3.64,9.0,1
1,6219222364000,-12.26,3.49,-0.15,1
1,6219272321000,-5.79,6.13,8.05,1
1,6219322339000,-1.04,10.34,4.48,1
1,6219372327000,-4.4,0.95,-2.53,1
1,6219432264000,-17.31,-0.8,-1.99,1
1,6219482282000,-19.04,-19.57,4.52,1
1,6219532361000,-2.53,-6.78,4.99,1
1,6219582349000,0.76,-2.83,-1.99,1
1,6219632337000,13.18,7.46,12.45,1
1,6219682355000,3.87,-0.46,-8.01,1
1,6219732343000,-4.52,-1.8,-3.11,1
1,6219782239000,-19.19,-10.53,-1.57,1
1,6219832349000,-11.41,-5.94,2.68,1
1,6219882367000,-17.77,-7.5,0.61,1
1,6219932325000,-14.82,2.11,4.37,1
1,6219982343000,-11.56,3.21,3.68,1
1,6220032331000,-4.18,5.75,8.05,1
1,6220082380000,1.18,7.55,2.98,1
1,6220132306000,-2.37,1.18,-0.91,1
1,6220182294000,-18.58,3.34,-1.76,1
1,6220232343000,-19.61,-17.73,0.08,1
1,6220292249000,-2.96,-7.65,9.66,1
1,6220342328000,-0.69,-5.86,-2.03,1
1,6220392316000,13.67,0.72,14.75,1
1,6220442304000,2.6,3.6,-6.59,1
1,6220492292000,-1.57,1.08,-3.83,1
1,6220492292000,-1.57,1.08,-3.83,1
1,6220552320000,-15.05,-4.75,-8.92,1
1,6220602277000,-14.4,-8.62,8.08,1
1,6220652326000,-17.24,-4.67,-4.94,1
1,6220702344000,-11.5,1.12,5.37,1
1,6220752332000,-11.54,3.06,-0.69,1
1,6220802350000,-3.34,8.73,10.5,1
1,6220852338000,-0.69,6.78,3.15,1
1,6220902326000,-5.09,0.89,-0.27,1
1,6220952375000,-18.24,2.11,-1.5,1
1,6221002332000,-19.61,-17.05,0.19,1
1,6221052320000,-4.82,-10.65,9.08,1
1,6221102338000,-0.19,-3.91,-3.11,1
1,6221162305000,10.65,0.38,8.35,1
1,6221222272000,2.79,1.8,-5.56,1
1,6221272382000,-2.14,-4.86,-1.33,1
1,6221322309000,-19.61,-12.07,-1.14,1
1,6221372327000,-15.79,-4.79,1.14,1
1,6221422345000,-17.01,-1.53,9.47,1
1,6221472333000,-7.82,2.45,-0.91,1
1,6221522382000,-5.33,7.16,5.05,1
1,6221572339000,-1.12,6.74,6.63,1
1,6221622327000,-1.42,2.76,0.23,1
1,6221672345000,-15.79,1.84,-0.08,1
1,6221722333000,-19.61,-8.77,-3.21,1
1,6221772321000,-13.06,-14.79,7.01,1
1,6221822309000,-0.23,-5.94,0.93,1
1,6221872327000,4.82,-4.02,1.61,1
1,6221922345000,9.19,3.95,8.12,1
1,6221972333000,1.54,2.03,-6.89,1
1,6222032239000,-12.15,-1.23,-2.68,1
1,6222082349000,-16.28,-11.03,2.64,1
1,6222132337000,-12.87,0.93,6.93,1
1,6222192334000,-13.29,0.93,6.93,1
1,6222242231000,-10.5,2.6,0.99,1
1,6222292371000,-5.24,4.1,6.44,1
1,6222342298000,-0.04,10.57,4.9,1
1,6222392316000,-2.45,4.6,-1.33,1
1,6222442304000,-16.63,1.76,-6.02,1
1,6222492322000,-19.61,-15.98,3.17,1
1,6222542310000,-2.07,-8.81,6.93,1
1,6222592298000,1.23,-3.72,-2.14,1
1,6222642316000,12.11,0.23,9.89,1
1,6222692334000,0.99,2.79,-8.08,1
1,6222742292000,-0.27,-3.06,-1.14,1
1,6222792310000,-18.66,-8.12,0.08,1
1,6222842298000,-17.05,-6.78,0.42,1
1,6222892316000,-12.76,-3.17,5.22,1
1,6222942304000,-7.78,2.11,9.51,1
1,6222992292000,-9.7,3.99,-1.88,1
1,6223042310000,-1.95,5.18,10.08,1
1,6223092298000,-0.84,2.79,0.93,1
1,6223142316000,-13.99,3.21,-1.31,1
1,6223192334000,-19.61,-10.19,-3.72,1
1,6223242322000,-12.22,-15.05,8.96,1
1,6223292310000,-0.84,-6.05,0.5,1
1,6223342298000,2.22,-2.26,0.42,1
1,6223392316000,11.69,5.33,11.37,1
1,6223442304000,1.14,0.46,-5.18,1
1,6223495588000,-1.33,-6.05,-0.89,1
1,6223495588000,-1.33,-6.05,-0.89,1
1,6223552320000,-19.5,-15.05,-1.31,1
1,6223602338000,-13.33,-3.41,1.65,1
1,6223652326000,-14.94,-1.53,8.08,1
1,6223702344000,-12.83,1.08,4.14,1
1,6223752393000,-5.2,4.37,2.45,1
1,6223802320000,-1.42,10.92,6.85,1
1,6223852338000,-1.88,2.91,-0.8,1
1,6223902326000,-15.85,0.38,-2.79,1
1,6223952344000,-19.61,-16.63,-0.5,1
1,6224002515000,-6.74,-11.37,10.61,1
1,6224052320000,-0.27,-4.86,-3.11,1
1,6224102338000,8.89,-2.79,6.63,1
1,6224152326000,5.52,3.3,-0.76,1
1,6224202344000,0.72,3.21,-3.41,1
1,6224252332000,-8.92,-5.37,-4.06,1
1,6224302320000,-19.57,-10.61,2.03,1
1,6224352369000,-16.74,-7.44,-0.61,1
1,6224402326000,-18.01,-2.03,5.56,1
1,6224452375000,-13.63,3.34,-2.83,1
1,6224502332000,-4.14,8.16,8.43,1
1,6224552320000,-2.64,8.35,4.44,1
1,6224602338000,1.57,5.13,0.27,1
1,6224652356000,-2.3,1.69,-0.99,1
1,6224702314000,-18.35,1.73,-5.43,1
1,6224752332000,-15.6,-16.36,9.43,1
1,6224802320000,-6.51,-11.03,3.11,1
1,6224852338000,0.34,-4.79,-3.49,1
1,6224912275000,10.57,6.44,10.73,1
1,6224972333000,0.5,1.12,-11.03,1
1,6225022321000,-9.28,-5.05,-1.08,1
1,6225072339000,-19.61,-11.92,-1.31,1
1,6225122327000,-14.75,-6.63,4.6,1
1,6225172345000,-14.29,0.65,6.93,1
1,6225222333000,-8.24,2.11,-4.37,1
1,6225272260000,-4.99,6.59,7.78,1
1,6225322339000,-0.08,5.05,3.99,1
1,6225372327000,1.84,0.84,-0.15,1
1,6225422345000,-13.53,3.38,1.88,1
1,6225472333000,-19.61,-11.54,-3.53,1
1,6225522321000,-10.11,-12.49,8.69,1
1,6225572339000,-2.26,-5.43,-1.73,1
1,6225622327000,1.76,-4.1,0.42,1
1,6225672345000,3.02,8.35,8.73,1
1,6225722333000,-4.79,3.6,-7.4,1
1,6225772321000,-0.08,-1.23,-1.04,1
1,6225822339000,-19.27,-14.56,-7.5,1
1,6225872327000,-14.06,-4.86,3.11,1
1,6225922376000,-16.82,-2.64,3.83,1
1,6225972364000,-11.3,3.45,-3.76,1
1,6226022321000,-9.72,8.16,3.99,1
1,6226072370000,-2.22,3.99,7.63,1
1,6226122358000,1.38,3.68,1.92,1
1,6226172376000,-10.04,3.02,-1.23,1
1,6226222211000,-19.46,-1.61,-0.65,1
1,6226272382000,-15.94,-16.74,7.08,1
1,6226322339000,-2.14,-6.43,4.29,1
1,6226372327000,0.42,-2.87,-3.3,1
1,6226422345000,15.89,2.68,13.87,1
1,6226472333000,0.57,0.31,-8.05,1
1,6226522321000,0.0,-3.95,-0.76,1
1,6226572339000,-18.66,-12.79,2.98,1
1,6226622327000,-17.43,-5.56,0.8,1
1,6226672345000,-18.92,-1.95,7.44,1
1,6226722333000,-12.22,-0.15,3.76,1
1,6226772321000,-6.85,5.79,3.45,1
1,6226822217000,-2.68,10.42,9.38,1
1,6226872327000,1.04,6.32,1.12,1
1,6226922345000,-3.3,0.42,-1.12,1
1,6226972364000,-19.61,-4.86,-5.71,1
1,6227022321000,-15.09,-17.24,12.49,1
1,6227072370000,-3.21,-7.01,1.14,1
1,6227122358000,0.31,-3.83,-3.57,1
1,6227172345000,13.72,0.46,11.96,1
1,6227222303000,0.72,3.41,-6.89,1
1,6227272321000,-6.55,-1.46,-5.86,1
1,6227322309000,-19.38,-8.43,1.5,1
1,6227372358000,-14.02,-7.74,7.7,1
1,6227422345000,-18.62,-5.01,-0.08,1
1,6227472333000,-11.84,4.1,-2.83,1
1,6227522321000,-5.2,5.43,6.02,1
1,6227572339000,-3.11,7.5,6.13,1
1,6227622327000,0.89,5.98,3.41,1
1,6227672345000,-6.17,0.15,-0.04,1
1,6227722333000,-19.61,-4.29,-1.8,1
1,6227772321000,-16.82,-17.86,4.48,1
1,6227822339000,-0.57,-7.4,2.03,1
1,6227872327000,0.08,-3.34,-2.72,1
1,6227932325000,9.43,7.59,11.41,1
1,6227982343000,-4.33,3.17,-9.58,1
1,6228032331000,0.93,-0.76,0.31,1
1,6228082349000,-16.32,-14.02,-8.77,1
1,6228132337000,-16.02,-11.37,7.35,1
1,6228182294000,-18.35,-3.87,-1.65,1
1,6228232343000,-14.25,2.96,6.09,1
1,6228282331000,-9.47,4.9,2.72,1
1,6228332319000,-3.76,8.31,6.97,1
1,6228382337000,-0.53,8.43,2.79,1
1,6228432325000,-3.95,0.61,-0.27,1
1,6228482343000,-19.3,0.42,-4.79,1
1,6228532331000,-19.34,-19.08,3.41,1
1,6228582380000,-2.68,-9.62,6.93,1
1,6228632337000,-0.99,-4.1,-2.22,1
1,6228682294000,11.18,2.79,10.88,1
1,6228732343000,1.33,1.84,-7.21,1
1,6228782331000,1.57,-1.18,-0.99,1
1,6228842298000,-13.14,-5.09,-4.18,1
1,6228892316000,-19.15,-9.89,2.96,1
1,6228942304000,-16.02,-3.11,4.99,1
1,6228992322000,-9.89,5.28,7.7,1
1,6229042310000,-10.11,2.98,-0.34,1
1,6229092298000,-3.02,5.22,8.89,1
1,6229142316000,-0.23,7.16,2.07,1
1,6229192304000,-6.97,2.03,-0.42,1
1,6229242292000,-19.61,-0.5,-6.51,1
1,6229292310000,-18.5,-18.12,6.51,1
1,6229342298000,-3.26,-6.21,5.98,1
1,6229392316000,-1.5,-5.52,-3.6,1
1,6229442304000,11.14,0.89,11.26,1
1,6229492292000,2.56,2.18,-4.9,1
1,6229542310000,-0.38,0.11,-2.11,1
1,6229592298000,-15.83,-8.31,-7.25,1
1,6229642316000,-17.27,-9.04,2.49,1
1,6229692304000,-15.55,-3.41,7.08,1
1,6229742292000,-11.88,4.21,7.25,1
1,6229792310000,-10.08,2.26,-0.34,1
1,6229842298000,-4.75,3.99,7.86,1
1,6229892316000,0.93,7.25,4.33,1
1,6229942304000,-1.69,2.68,-1.18,1
1,6229992261000,-16.97,3.41,-3.87,1
1,6229992261000,-16.97,3.41,-3.87,1
1,6230082349000,-7.46,-12.79,-1.69,1
1,6230142347000,-0.34,-6.43,-1.69,1
1,6230192243000,9.0,-3.21,6.97,1
1,6230242322000,3.64,4.4,1.5,1
1,6230292249000,0.53,-0.08,-3.3,1
1,6230342298000,-14.52,-4.48,-2.91,1
1,6230392316000,-17.39,-10.92,0.57,1
1,6230442304000,-16.28,-4.82,3.72,1
1,6230492292000,-13.82,3.06,11.45,1
1,6230542310000,-8.35,1.46,-3.53,1
1,6230592298000,-6.13,4.48,6.93,1
1,6230642316000,-0.57,6.44,4.21,1
1,6230692304000,-3.11,2.91,-0.5,1
1,6230742292000,-14.86,2.53,-2.34,1
1,6230792310000,-19.61,-15.24,-0.84,1
1,6230842298000,-3.72,-8.2,12.3,1
1,6230892316000,-0.65,-4.48,-2.34,1
1,6230892316000,-0.65,-4.48,-2.34,1
1,6230952283000,5.43,-0.53,0.04,1
1,6231002362000,3.6,2.53,-3.41,1
1,6231052289000,-0.69,0.0,-3.41,1
1,6231102338000,-16.36,-6.55,-3.72,1
1,6231152356000,-19.0,-9.34,2.41,1
1,6231202344000,-15.32,-4.18,7.16,1
1,6231252332000,-10.15,3.15,9.47,1
1,6231302320000,-9.85,1.33,-1.73,1
1,6231352338000,-4.33,5.18,7.97,1
1,6231402326000,0.38,8.2,3.57,1
1,6231452344000,-3.98,2.15,-1.18,1
1,6231502362000,-19.04,0.23,-7.63,1
1,6231552259000,-18.66,-18.47,7.7,1
1,6231602338000,-2.22,-7.27,5.94,1
1,6231652326000,1.14,-4.06,-3.87,1
1,6231702344000,13.76,0.99,15.75,1
1,6231752332000,1.33,2.45,-7.35,1
1,6231802320000,-0.84,-0.95,-2.79,1
1,6231852338000,-19.38,-7.93,-4.1,1
1,6231902326000,-15.05,-6.55,1.69,1
1,6231952344000,-16.21,-6.63,4.52,1
1,6232002485000,-10.53,2.26,4.1,1
1,6232052320000,-8.5,3.45,1.65,1
1,6232102338000,-3.49,5.18,9.34,1
1,6232152326000,-0.5,6.02,1.61,1
1,6232202344000,-9.89,1.23,0.99,1
1,6232252332000,-19.61,-4.06,-2.79,1
1,6232302320000,-18.28,-17.86,1.23,1
1,6232352338000,-1.42,-5.71,5.13,1
1,6232402326000,0.08,-3.91,-3.53,1
1,6232452344000,12.6,-0.15,12.03,1
1,6232502332000,0.72,2.98,-4.18,1
1,6232552320000,1.69,-1.42,-1.38,1
1,6232602338000,-15.32,-8.66,-5.2,1
1,6232652326000,-17.16,-8.27,1.18,1
1,6232702344000,-17.39,-4.56,5.52,1
1,6232752332000,-14.1,3.26,7.06,1
1,6232802320000,-7.97,2.34,-0.5,1
1,6232852338000,-6.05,4.9,7.35,1
1,6232902326000,0.0,8.69,3.15,1
1,6232952344000,-4.63,1.73,-0.72,1
1,6233012250000,-15.6,-0.19,-2.49,1
1,6233062360000,-14.48,-16.13,10.23,1
1,6233122297000,-1.95,-5.6,2.83,1
1,6233172345000,-0.15,-1.88,-3.17,1
1,6233222242000,11.3,6.63,5.6,1
1,6233272321000,1.57,1.99,-3.91,1
1,6233322339000,1.95,-5.24,-0.27,1
1,6233372327000,-18.77,-15.98,-3.02,1
1,6233422345000,-15.47,-6.17,1.42,1
1,6233472364000,-18.69,-1.33,4.52,1
1,6233522321000,-10.53,1.57,4.21,1
1,6233572339000,-6.21,6.21,2.3,1
1,6233622327000,-0.69,9.19,8.39,1
1,6233672345000,0.53,4.48,0.8,1
1,6233722333000,-12.18,1.42,0.38,1
1,6233772351000,-19.61,-9.04,-7.86,1
1,6233822339000,-11.88,-14.67,12.34,1
1,6233872327000,-2.3,-5.86,0.69,1
1,6233922345000,-0.04,-2.98,-3.87,1
1,6233972333000,10.53,6.32,13.21,1
1,6234022321000,1.12,1.46,-7.97,1
1,6234072339000,0.19,-2.45,-0.38,1
1,6234122236000,-18.39,-10.42,-8.35,1
1,6234172345000,-16.93,-5.67,3.49,1
1,6234222333000,-14.86,-2.07,7.27,1
1,6234272321000,-6.89,-0.61,4.21,1
1,6234322339000,-9.28,4.21,0.34,1
1,6234372327000,-1.5,9.34,11.8,1
1,6234422345000,-0.27,5.18,0.31,1
1,6234472333000,-14.75,3.26,-2.91,1
1,6234522321000,-19.61,-10.31,-7.27,1
1,6234572339000,-8.66,-14.48,11.88,1
1,6234622327000,-1.14,-5.52,-1.92,1
1,6234672345000,3.99,-1.95,-0.53,1
1,6234722333000,8.69,4.75,6.02,1
1,6234772321000,2.64,1.27,-2.45,1
1,6234822339000,-7.59,-7.21,-5.86,1
1,6234872327000,-19.61,-14.29,1.5,1
1,6234922345000,-14.75,-4.44,2.98,1
1,6234972333000,-12.22,4.86,10.27,1
1,6235022351000,-8.85,1.61,-6.02,1
1,6235072339000,-6.09,5.6,9.15,1
1,6235122327000,-0.19,8.89,3.99,1
1,6235172315000,-2.41,2.49,-0.95,1
1,6235222272000,-18.77,3.34,-5.05,1
1,6235272260000,-19.61,-15.75,0.46,1
1,6235322339000,-2.11,-9.11,8.28,1
1,6235372327000,1.14,-4.82,-2.14,1
1,6235432233000,10.61,-0.5,8.08,1
1,6235482343000,0.57,2.41,-6.51,1
1,6235532331000,2.64,-4.82,-0.99,1
1,6235582257000,-18.07,-14.9,-2.07,1
1,6235632337000,-16.55,-7.27,0.11,1
1,6235682325000,-17.31,-3.26,5.28,1
1,6235732343000,-11.22,4.86,6.02,1
1,6235782331000,-9.3,5.83,-2.68,1
1,6235832319000,-2.6,8.66,11.07,1
1,6235882337000,0.23,4.63,0.53,1
1,6235932325000,-8.85,0.69,-1.04,1
1,6235982343000,-18.96,-7.5,-4.21,1
1,6236032331000,-14.21,-17.35,9.23,1
1,6236082349000,-0.95,-4.99,1.57,1
1,6236132337000,0.57,-3.6,-4.99,1
1,6236182325000,10.76,-0.34,8.39,1
1,6236232343000,0.84,3.79,-5.18,1
1,6236282331000,2.3,-2.79,-1.18,1
1,6236332349000,-14.75,-13.87,-1.53,1
1,6236382337000,-18.07,-8.77,-0.08,1
1,6236432325000,-18.62,-3.79,3.72,1
1,6236482343000,-11.99,5.9,6.13,1
1,6236532331000,-8.08,6.85,2.07,1
1,6236582349000,-1.88,7.78,7.59,1
1,6236632337000,1.18,5.01,2.96,1
1,6236682325000,-7.31,0.19,0.61,1
1,6236732343000,-19.61,-4.44,-1.73,1
1,6236782331000,-18.81,-17.97,-2.53,1
1,6236832319000,0.04,-6.51,6.93,1
1,6236882215000,-0.46,-4.9,-1.95,1
1,6236932325000,11.56,-0.19,11.41,1
1,6236982343000,2.41,1.99,-5.41,1
1,6237032331000,-1.53,-2.11,-2.34,1
1,6237092237000,-19.61,-5.48,-5.13,1
1,6237142316000,-17.2,-4.99,2.49,1
1,6237192304000,-16.93,-4.75,7.7,1
1,6237242292000,-13.17,3.15,-5.13,1
1,6237292310000,-7.27,4.02,3.91,1
1,6237342298000,-3.34,12.11,11.22,1
1,6237392316000,-1.33,4.29,0.42,1
1,6237442365000,-15.47,-0.34,-1.53,1
1,6237492261000,-19.61,-10.95,-1.53,1
1,6237542371000,-12.07,-16.02,7.93,1
1,6237592298000,-0.34,-5.9,-0.53,1
1,6237642347000,4.37,-4.71,2.26,1
1,6237692334000,7.21,7.27,8.54,1
1,6237742292000,0.46,1.88,-6.63,1
1,6237792279000,-16.74,-0.99,-4.33,1
1,6237842328000,-14.9,-11.22,5.86,1
1,6237892347000,-16.17,-7.31,-3.21,1
1,6237942304000,-14.98,-2.3,6.36,1
1,6237992322000,-10.23,1.99,-0.08,1
1,6238042310000,-7.08,3.91,3.79,1
1,6238092206000,-2.26,10.57,8.2,1
1,6238142347000,-0.27,2.79,0.27,1
1,6238192304000,-14.86,1.57,-2.49,1
1,6238242322000,-19.61,-15.89,-0.95,1
1,6238292341000,-5.86,-10.0,12.41,1
1,6238342328000,-1.65,-5.18,-2.91,1
1,6238392316000,1.92,-0.57,-1.14,1
1,6238442304000,9.23,8.58,10.76,1
1,6238492292000,1.46,1.38,-4.75,1
1,6238542310000,-0.91,-7.97,-2.07,1
1,6238592328000,-19.61,-13.38,-4.75,1
1,6238642347000,-19.0,-8.08,1.88,1
1,6238692334000,-14.79,0.57,7.55,1
1,6238742353000,-10.5,1.73,-3.3,1
1,6238792371000,-8.96,5.98,5.79,1
1,6238842328000,-1.99,8.66,6.93,1
1,6238892316000,-2.22,3.87,0.38,1
1,6238942304000,-11.75,0.0,-0.91,1
1,6238992292000,-19.61,-12.07,-1.65,1
1,6239042310000,-11.26,-12.83,4.94,1
1,6239092298000,-0.42,-5.37,0.72,1
1,6239142225000,-0.23,-3.11,-1.38,1
1,6239192243000,11.69,6.02,14.82,1
1,6239242322000,2.18,-0.61,-6.7,1
1,6239292371000,-6.24,-6.66,-0.69,1
1,6239342756000,-19.5,-12.22,-1.61,1
1,6239392347000,-17.82,-6.21,0.65,1
1,6239442395000,-14.82,0.42,10.53,1
1,6239492322000,-11.14,3.02,-2.56,1
1,6239542341000,-7.12,4.9,6.02,1
1,6239592328000,-1.84,9.66,5.63,1
1,6239642316000,-4.29,3.26,0.38,1
1,6239692334000,-15.7,1.99,-2.45,1
1,6239742292000,-19.61,-14.9,-1.73,1
1,6239792341000,-7.86,-14.44,9.66,1
1,6239842389000,-1.04,-6.21,-0.91,1
1,6239892316000,6.4,0.76,4.71,1
1,6239942304000,5.24,7.7,2.37,1
1,6239992261000,-0.76,1.65,-5.37,1
1,6240042310000,-16.28,-1.73,-1.04,1
1,6240092328000,-19.19,-12.6,2.07,1
1,6240142316000,-14.86,-7.25,5.13,1
1,6240192304000,-13.17,-2.83,-0.91,1
1,6240242292000,-12.6,0.19,5.41,1
1,6240242292000,-12.6,0.19,5.41,1
1,6240302320000,-7.12,4.29,2.76,1
1,6240352338000,-1.27,10.53,5.18,1
1,6240402356000,-8.77,2.56,-0.34,1
1,6240452375000,-17.08,-0.23,-5.2,1
1,6240502393000,-18.85,-18.43,5.48,1
1,6240552320000,-4.14,-8.35,4.37,1
1,6240602338000,0.31,-4.75,-2.41,1
1,6240652326000,10.8,1.5,12.45,1
1,6240702375000,3.38,2.91,-5.75,1
1,6240752332000,2.26,1.12,0.38,1
1,6240802259000,-11.6,-9.77,-10.8,1
1,6240852338000,-19.57,-11.03,3.02,1
1,6240902326000,-9.15,-2.3,7.89,1
1,6240952344000,-7.78,-0.53,3.57,1
1,6241002332000,-10.76,1.92,1.31,1
1,6241052320000,-4.67,8.16,10.12,1
1,6241102338000,-0.42,8.2,1.27,1
1,6241152326000,-10.65,1.57,-1.61,1
1,6241202375000,-19.42,-7.65,-8.43,1
1,6241252332000,-10.92,-15.85,11.26,1
1,6241302320000,-0.23,-6.55,0.04,1
1,6241352338000,8.2,-5.43,4.86,1
1,6241402356000,5.71,4.14,3.83,1
1,6241452344000,-3.91,3.95,-5.67,1
1,6241502332000,-11.99,-0.8,-2.14,1
1,6241552320000,-17.35,-11.69,0.15,1
1,6241602338000,-12.49,-7.4,5.18,1
1,6241652326000,-14.75,-4.94,2.49,1
1,6241702344000,-9.58,1.5,1.14,1
1,6241752332000,-7.01,3.17,5.6,1
1,6241802350000,-2.11,4.44,7.25,1
1,6241852338000,-0.04,5.28,-2.07,1
1,6241902326000,-12.03,3.15,-0.42,1
1,6241952344000,-19.46,-6.85,-5.82,1
1,6242002637000,-12.26,-17.39,11.45,1
1,6242052320000,-1.14,-7.25,-0.5,1
1,6242102338000,8.96,-3.98,5.41,1
1,6242152326000,5.37,5.9,5.98,1
1,6242202344000,0.08,1.46,-6.24,1
1,6242255323000,-7.12,-5.48,-0.8,1
1,6242312238000,-19.38,-11.37,-1.95,1
1,6242372297000,-14.71,-4.48,5.18,1
1,6242422345000,-12.98,3.15,9.77,1
1,6242472333000,-9.15,0.95,-1.04,1
1,6242522321000,-5.67,4.86,7.12,1
1,6242572339000,-0.15,7.4,0.46,1
1,6242622327000,-7.21,4.02,-0.08,1
1,6242672254000,-17.12,-0.38,-6.24,1
1,6242722333000,-17.46,-17.69,6.09,1
1,6242772321000,1.42,-8.27,8.5,1
1,6242822339000,6.93,-3.45,3.79,1
1,6242872327000,5.86,3.99,2.68,1
1,6242922345000,-2.6,4.02,-5.94,1
1,6242972333000,-10.15,-0.38,-0.11,1
1,6243022321000,-18.77,-11.37,-4.94,1
1,6243082319000,-13.76,-8.01,1.57,1
1,6243132276000,-16.13,-3.72,1.88,1
1,6243182325000,-10.99,2.41,1.61,1
1,6243232343000,-8.2,4.99,6.13,1
1,6243282331000,-1.8,8.12,7.27,1
1,6243332349000,-0.3,4.18,-0.19,1
1,6243382306000,-13.82,4.44,-1.73,1
1,6243432325000,-19.61,-7.5,-5.13,1
1,6243482343000,-12.45,-17.39,11.69,1
1,6243532331000,-1.57,-7.27,1.5,1
1,6243582349000,3.79,-2.14,-0.19,1
1,6243582349000,3.79,-2.14,-0.19,1
1,6243648786000,10.65,5.18,8.5,1
1,6243702344000,-3.87,0.23,-5.24,1
1,6243752332000,-18.5,-5.6,-2.56,1
1,6243802320000,-16.17,-6.4,2.56,1
1,6243852369000,-12.79,-4.86,2.98,1
1,6243902326000,-15.4,1.31,3.64,1
1,6243952375000,-7.93,3.41,2.91,1
1,6244002607000,-4.9,5.33,8.89,1
1,6244052350000,0.0,7.86,4.29,1
1,6244102338000,-4.52,3.53,-2.03,1
1,6244152265000,-18.31,3.34,-4.63,1
1,6244202375000,-19.27,-18.28,1.73,1
1,6244252332000,-3.6,-7.78,6.13,1
1,6244302320000,0.69,-4.48,-3.02,1
1,6244352369000,13.06,3.76,9.23,1
1,6244402326000,4.14,1.92,-4.52,1
1,6244452344000,-2.45,-2.26,-5.24,1
1,6244502332000,-18.69,-7.86,-0.38,1
1,6244552320000,-17.82,-8.58,2.18,1
1,6244602338000,-17.12,-5.09,3.21,1
1,6244652356000,-11.14,3.6,4.02,1
1,6244702344000,-9.81,4.99,1.69,1
1,6244752332000,-2.53,7.78,8.96,1
1,6244802320000,-1.12,6.47,1.69,1
1,6244852369000,-8.58,1.14,0.19,1
1,6244902326000,-19.3,-1.46,-1.18,1
1,6244952344000,-18.28,-19.15,3.87,1
1,6245002332000,-3.3,-10.57,5.13,1
1,6245052320000,0.5,-3.45,-1.95,1
1,6245102338000,13.91,1.04,11.41,1
1,6245152356000,1.38,4.63,-4.18,1
1,6245202405000,1.14,-5.13,-0.61,1
1,6245252332000,-17.82,-18.62,1.73,1
1,6245302350000,-15.94,-8.05,0.15,1
1,6245352399000,-19.15,-3.91,4.6,1
1,6245402326000,-14.18,5.05,5.41,1
1,6245452344000,-7.35,6.78,1.42,1
1,6245502332000,-3.64,5.6,7.67,1
1,6245552320000,0.84,7.74,2.76,1
1,6245602338000,-6.09,2.03,-1.53,1
1,6245652326000,-19.3,-2.75,-5.94,1
1,6245702375000,-14.63,-18.2,11.6,1
1,6245752332000,-3.83,-5.09,3.15,1
1,6245802320000,-0.72,-2.87,-3.11,1
1,6245862287000,12.18,1.76,10.5,1
1,6245932325000,1.38,1.88,-4.29,1
1,6245982282000,-6.66,-12.37,-1.18,1
1,6246032361000,-18.73,-11.84,2.18,1
1,6246082288000,-15.09,-4.75,2.53,1
1,6246132337000,-12.26,1.42,7.93,1
1,6246182325000,-11.5,1.95,1.23,1
1,6246232343000,-3.79,6.32,9.11,1
1,6246282239000,-0.15,7.25,2.96,1
1,6246332349000,-5.94,-0.19,-1.88,1
1,6246382245000,-19.38,-4.25,-4.44,1
1,6246432325000,-17.62,-19.38,6.13,1
1,6246482343000,-2.53,-6.47,4.9,1
1,6246532331000,-0.42,-3.72,-2.83,1
1,6246582349000,10.31,-0.46,9.0,1
1,6246632337000,3.41,3.91,-3.64,1
1,6246682325000,0.89,-1.76,-2.07,1
1,6246732343000,-17.86,-13.67,-2.11,1
1,6246782331000,-14.25,-6.13,0.34,1
1,6246832349000,-15.24,-3.64,2.98,1
1,6246882367000,-12.6,3.3,9.92,1
1,6246932325000,-8.77,3.38,0.15,1
1,6246982343000,-3.91,8.05,9.7,1
1,6247032331000,-0.5,7.27,0.38,1
1,6247082349000,-10.46,1.69,-0.46,1
1,6247132337000,-19.61,-7.25,-8.54,1
1,6247182325000,-12.18,-17.5,15.05,1
1,6247232343000,-1.31,-4.56,2.15,1
1,6247282300000,0.69,-2.41,-4.79,1
1,6247332258000,13.95,0.61,11.5,1
1,6247392255000,1.12,0.89,-6.13,1
1,6247442334000,-4.02,-6.51,-0.19,1
1,6247492231000,-19.61,-12.79,-0.3,1
1,6247542249000,-19.19,-4.14,2.53,1
1,6247592298000,-13.14,0.72,2.87,1
1,6247642347000,-11.3,1.42,9.3,1
1,6247692304000,-4.86,7.27,4.37,1
1,6247692304000,-4.86,7.27,4.37,1
1,6247752301000,-0.8,9.34,3.91,1
1,6247802350000,-1.69,1.73,-2.87,1
1,6247862287000,-17.39,-1.12,-2.18,1
1,6247922345000,-16.89,-19.3,11.84,1
1,6247972333000,-2.45,-6.59,-0.46,1
1,6248022321000,1.12,-2.6,-1.14,1
1,6248072339000,12.11,6.24,13.48,1
1,6248122327000,1.76,0.76,-8.88,1
1,6248172345000,1.54,-1.46,-1.42,1
1,6248222333000,-14.52,-12.87,0.11,1
1,6248272321000,-18.54,-8.88,1.57,1
1,6248322339000,-15.24,-0.46,10.95,1
1,6248372358000,-14.33,1.95,-4.56,1
1,6248422345000,-5.94,5.71,9.23,1
1,6248472333000,-3.34,6.51,5.83,1
1,6248522351000,0.34,5.41,1.27,1
1,6248572339000,-7.5,2.68,-0.99,1
1,6248622236000,-19.08,-2.79,-6.51,1
1,6248672345000,-12.91,-16.63,15.75,1
1,6248722333000,-3.49,-6.43,1.04,1
1,6248772351000,0.15,-2.34,-2.98,1
1,6248822339000,11.18,5.24,3.91,1
1,6248872327000,3.26,0.84,-0.38,1
1,6248922345000,2.76,-4.56,-3.49,1
1,6248972333000,-13.57,-17.12,1.95,1
1,6249022321000,-18.77,-10.61,-0.76,1
1,6249072370000,-19.34,-3.41,2.64,1
1,6249122358000,-13.44,3.64,3.68,1
1,6249172345000,-10.76,6.78,8.31,1
1,6249222333000,-2.79,7.4,5.83,1
1,6249272321000,0.61,6.02,0.53,1
1,6249322309000,-8.16,1.8,-0.91,1
1,6249372327000,-19.57,-7.01,-7.63,1
1,6249422345000,-12.18,-17.69,9.92,1
1,6249472333000,-2.83,-9.15,-0.38,1
1,6249522321000,6.63,-5.43,3.64,1
1,6249572339000,10.53,4.63,10.95,1
1,6249622327000,1.27,2.87,-7.78,1
1,6249672345000,-5.41,-1.57,-4.9,1
1,6249722272000,-19.61,-14.02,1.08,1
1,6249772321000,-19.34,-9.3,2.34,1
1,6249822339000,-12.18,-3.3,9.08,1
1,6249872327000,-10.04,-0.89,-8.62,1
1,6249922376000,-8.85,8.85,11.54,1
1,6249972364000,-3.11,4.06,6.17,1
1,6250022321000,-1.12,3.53,0.42,1
1,6250072339000,-10.99,1.31,-1.99,1
1,6250122327000,-19.61,-6.21,-3.49,1
1,6250172376000,-14.98,-19.15,10.42,1
1,6250222333000,-0.72,-5.79,0.76,1
1,6250282239000,4.14,-2.96,-1.23,1
1,6250332380000,7.31,8.12,7.78,1
1,6250382367000,0.89,1.18,-6.82,1
1,6250432325000,-10.65,-5.82,-4.44,1
1,6250482343000,-19.08,-11.99,2.6,1
1,6250532331000,-14.71,-6.85,4.48,1
1,6250582349000,-14.63,-0.99,6.32,1
1,6250632337000,-9.28,0.76,-1.8,1
1,6250682325000,-6.97,5.24,6.44,1
1,6250732343000,-1.73,6.17,4.21,1
1,6250782331000,-6.51,1.04,0.53,1
1,6250832319000,-17.16,0.34,-2.26,1
1,6250882337000,-19.61,-17.62,-2.53,1
1,6250932325000,-3.11,-12.11,9.96,1
1,6250992383000,1.18,-3.72,-2.26,1
1,6251042279000,13.02,3.99,8.47,1
1,6251092298000,1.88,3.45,-3.91,1
1,6251142316000,1.8,-4.71,-2.14,1
1,6251192212000,-15.7,-11.65,-0.15,1
1,6251242261000,-17.5,-9.49,-0.15,1
1,6251292310000,-16.74,-4.33,5.33,1
1,6251342298000,-11.73,3.6,9.96,1
1,6251392316000,-11.37,1.46,1.54,1
1,6251442304000,-4.63,6.93,8.73,1
1,6251492292000,-4.56,5.37,1.5,1
1,6251542310000,-11.33,1.84,-1.53,1
1,6251592298000,-16.36,-6.17,-3.68,1
1,6251642316000,-15.94,-18.73,7.12,1
1,6251692304000,-0.72,-6.82,2.87,1
1,6251742292000,1.65,-1.18,-0.99,1
1,6251792249000,11.26,8.39,11.69,1
1,6251842328000,2.41,1.42,-7.27,1
1,6251892316000,-0.95,-6.4,-0.76,1
1,6251942304000,-19.61,-10.34,-1.61,1
1,6251992292000,-14.94,-7.12,3.17,1
1,6252042310000,-17.35,-3.76,1.12,1
1,6252092298000,-13.4,3.64,4.14,1
1,6252142316000,-9.08,3.11,8.2,1
1,6252192304000,-4.18,4.29,3.26,1
1,6252242292000,1.23,5.56,2.18,1
1,6252292310000,-4.56,4.71,-0.34,1
1,6252342298000,-14.1,3.21,-5.75,1
1,6252392316000,-19.5,-15.89,2.41,1
1,6252442304000,-1.33,-12.53,10.53,1
1,6252492292000,0.76,-4.56,-1.04,1
1,6252542310000,13.57,1.27,9.92,1
1,6252592298000,2.07,0.84,-10.11,1
1,6252644147000,-6.05,-2.6,-2.91,1
1,6252644147000,-6.05,-2.6,-2.91,1
1,6252702283000,-18.81,-9.3,1.84,1
1,6252752332000,-11.11,-5.01,6.05,1
1,6252802320000,-16.82,-1.57,7.16,1
1,6252852369000,-9.43,0.89,-5.24,1
1,6252902356000,-7.12,5.24,6.36,1
1,6252952344000,-1.53,8.35,6.47,1
1,6253002332000,-1.33,4.33,-0.95,1
1,6253052320000,-14.94,3.41,-1.76,1
1,6253102338000,-19.61,-12.53,-5.2,1
1,6253152326000,-9.92,-15.89,13.57,1
1,6253202344000,-0.15,-7.16,0.15,1
1,6253252332000,9.0,-2.53,6.09,1
1,6253302320000,3.87,3.76,0.31,1
1,6253352338000,-2.64,2.64,-5.79,1
1,6253402326000,-15.66,-0.15,-1.57,1
1,6253452344000,-17.2,-11.22,0.27,1
1,6253502332000,-14.06,-9.47,5.9,1
1,6253552320000,-14.98,-0.57,4.29,1
1,6253602338000,-11.03,0.04,-3.36,1
1,6253652326000,-3.91,6.93,8.31,1
1,6253702344000,-0.42,5.6,3.34,1
1,6253752332000,-7.4,1.14,0.76,1
1,6253862134000,-19.04,-17.88,-1.65,1
1,6253862134000,-19.04,-17.88,-1.65,1
1,6253912641000,-1.8,-8.92,7.86,1
1,6253962293000,3.02,-5.6,-0.95,1
1,6254012281000,13.06,0.15,10.5,1
1,6254062360000,2.87,2.18,-6.05,1
1,6254112348000,-1.42,-3.11,-3.11,1
1,6254172345000,-19.61,-11.18,-2.68,1
1,6254222333000,-14.48,-5.48,1.92,1
1,6254272321000,-18.39,-2.64,6.85,1
1,6254322339000,-10.5,2.15,-4.9,1
1,6254372327000,-3.95,4.75,8.81,1
1,6254422376000,-3.64,6.02,6.36,1
1,6254472333000,-2.37,3.17,0.76,1
1,6254522321000,-13.21,2.87,-0.69,1
1,6254572248000,-19.61,-10.19,-4.25,1
1,6254622327000,-12.26,-13.44,6.28,1
1,6254672345000,-0.27,-6.17,1.04,1
1,6254722333000,7.5,-7.59,1.73,1
1,6254772321000,4.94,5.63,9.66,1
1,6254822339000,1.23,0.53,-6.63,1
1,6254872327000,-7.78,-4.75,-1.88,1
1,6254922345000,-19.38,-13.02,0.08,1
1,6254972333000,-14.98,-4.21,2.79,1
1,6255022321000,-14.25,-0.8,8.35,1
1,6255072339000,-8.77,0.08,-2.68,1
1,6255122327000,-5.86,5.71,6.24,1
1,6255172345000,-1.69,6.78,6.89,1
1,6255222333000,-4.59,2.64,-0.19,1
1,6255272229000,-17.58,3.26,-0.91,1
1,6255322339000,-19.61,-15.17,-5.2,1
1,6255372327000,-7.27,-15.79,12.98,1
1,6255422345000,0.11,-6.32,-1.31,1
1,6255472394000,10.88,0.31,4.94,1
1,6255525892000,5.79,5.01,-0.53,1
1,6255582288000,-1.5,-1.99,-6.55,1
1,6255632337000,-19.61,-11.54,3.17,1
1,6255682325000,-14.44,-8.05,4.29,1
1,6255732343000,-17.2,-3.98,5.13,1
1,6255782361000,-12.37,1.31,-5.43,1
1,6255832349000,-6.51,5.48,6.82,1
1,6255882337000,-2.83,8.24,8.08,1
1,6255932233000,-0.34,5.75,1.04,1
1,6255982343000,-10.88,2.37,-0.04,1
1,6256032331000,-19.61,-5.52,-6.21,1
1,6256082349000,-17.62,-17.05,2.26,1
1,6256132337000,-2.14,-7.78,4.44,1
1,6256182325000,8.2,-8.54,3.79,1
1,6256232343000,4.1,1.88,6.28,1
1,6256282300000,-1.33,2.76,-7.44,1
1,6256332349000,-13.33,0.04,-1.38,1
1,6256382337000,-19.61,-14.37,-1.69,1
1,6256432325000,-16.97,-9.49,2.83,1
1,6256482343000,-12.22,-0.27,6.55,1
1,6256532331000,-5.98,2.56,-2.87,1
1,6256582349000,-7.55,6.47,7.12,1
1,6256632337000,-0.42,2.98,4.71,1
1,6256682294000,-1.95,0.46,1.04,1
1,6256732343000,-17.69,3.21,2.76,1
1,6256782270000,-19.61,-12.18,-11.07,1
1,6256832349000,-5.79,-12.49,12.98,1
1,6256882337000,0.8,-6.78,-4.21,1
1,6256932325000,14.06,-6.09,13.33,1
1,6256982343000,2.96,1.31,-5.48,1
1,6257032331000,0.19,0.53,-3.06,1
1,6257092237000,-16.74,-6.32,-1.76,1
1,6257142316000,-19.61,-7.74,-0.72,1
1,6257192304000,-12.83,-0.84,10.76,1
1,6257242292000,-12.26,1.18,0.11,1
1,6257292310000,-4.79,2.83,2.53,1
1,6257342298000,-4.14,10.53,9.47,1
1,6257392316000,-2.03,3.68,0.15,1
1,6257442304000,-14.33,0.57,-0.69,1
1,6257492292000,-19.61,-10.95,-1.5,1
1,6257542310000,-12.56,-17.05,7.55,1
1,6257592298000,-0.65,-4.99,-0.84,1
1,6257642316000,1.99,-1.38,-1.57,1
1,6257692304000,12.79,6.63,13.82,1
1,6257742292000,0.65,0.27,-7.65,1
1,6257792310000,-3.53,-10.8,-0.19,1
1,6257842298000,-19.42,-10.46,0.46,1
1,6257892316000,-18.43,-6.89,1.31,1
1,6257942304000,-17.24,-0.5,2.64,1
1,6257992261000,-10.76,0.23,7.27,1
1,6258042341000,-6.97,3.91,4.21,1
1,6258092298000,-3.91,7.86,6.93,1
1,6258142316000,-7.16,3.53,1.14,1
1,6258192304000,-12.83,2.07,-3.41,1
1,6258242292000,-19.61,-15.05,-4.94,1
1,6258292310000,-4.02,-13.95,12.83,1
1,6258342298000,0.69,-4.86,-2.98,1
1,6258392255000,10.65,2.22,5.56,1
1,6258442334000,2.83,4.99,-3.49,1
1,6258492292000,2.64,-2.41,-2.53,1
1,6258542218000,-11.75,-15.66,-2.68,1
1,6258592298000,-19.38,-12.49,0.99,1
1,6258642316000,-15.75,-4.33,3.3,1
1,6258692304000,-10.08,3.15,8.12,1
1,6258742292000,-11.69,4.79,-3.26,1
1,6258792310000,-3.83,8.05,9.66,1
1,6258842298000,0.42,7.08,-0.04,1
1,6258842298000,0.42,7.08,-0.04,1
1,6258912336000,-13.33,1.04,-2.98,1
1,6258962293000,-19.61,-18.73,2.72,1
1,6259012342000,-3.87,-9.23,7.4,1
1,6259072339000,1.88,0.11,-3.91,1
1,6259132306000,12.3,3.57,1.5,1
1,6259182264000,0.95,2.37,-6.85,1
1,6259232343000,3.06,-3.91,-1.38,1
1,6259292341000,-16.44,-18.62,2.41,1
1,6259342298000,-19.61,-13.17,-1.99,1
1,6259392316000,-15.79,3.06,6.78,1
1,6259442304000,-12.98,2.15,1.38,1
1,6259492292000,-3.26,10.53,8.85,1
1,6259542310000,-0.19,8.5,3.21,1
1,6259592298000,-4.9,0.0,-0.99,1
1,6259642316000,-19.5,0.34,-1.33,1
1,6259692304000,-19.19,-19.57,1.54,1
1,6259742292000,-3.3,-8.01,5.05,1
1,6259792310000,1.92,-4.25,-2.22,1
1,6259842298000,9.66,-1.61,4.75,1
1,6259892316000,2.3,4.56,-3.95,1
1,6259942304000,3.26,0.23,-0.27,1
1,6259942304000,3.26,0.23,-0.27,1
1,6260002485000,-2.37,-14.71,1.18,1
1,6260058973000,-19.61,-13.76,-3.17,1
1,6260112317000,-17.97,1.42,9.23,1
1,6260172284000,-14.29,1.5,0.15,1
1,6260222333000,-4.52,11.88,7.31,1
1,6260272260000,-2.72,8.92,2.72,1
1,6260322339000,-4.18,0.46,-1.65,1
1,6260372327000,-18.39,-2.56,-2.72,1
1,6260432233000,-18.81,-19.61,4.63,1
1,6260482343000,-1.99,-7.46,1.65,1
1,6260535413000,1.99,-1.73,-1.08,1
1,6260592328000,12.53,6.93,11.88,1
1,6260642316000,2.22,-0.15,-5.37,1
1,6260692304000,-0.8,-9.0,-1.08,1
1,6260742292000,-19.61,-12.49,-1.65,1
1,6260792310000,-19.53,-7.74,1.42,1
1,6260842298000,-12.83,3.21,12.15,1
1,6260892316000,-12.91,1.18,-0.23,1
1,6260942304000,-4.79,5.79,7.78,1
1,6260992292000,-2.37,11.07,4.1,1
1,6261042310000,-3.11,0.95,-0.57,1
1,6261092298000,-16.59,-0.34,-4.52,1
1,6261142316000,-19.61,-18.81,6.55,1
1,6261192304000,-2.22,-10.11,6.59,1
1,6261242292000,0.53,-3.34,-2.83,1
1,6261292310000,9.66,2.76,6.44,1
1,6261342298000,2.03,5.37,-3.57,1
1,6261392316000,1.84,-5.43,-1.99,1
1,6261444288000,-18.01,-12.72,-2.72,1
1,6261444288000,-18.01,-12.72,-2.72,1
1,6261502301000,-16.51,-8.81,1.33,1
1,6261552320000,-14.98,-3.21,4.75,1
1,6261602338000,-9.19,11.96,10.38,1
1,6261712140000,-2.79,11.96,10.38,1
1,6261712140000,-2.79,11.96,10.38,1
1,6261762281000,-3.91,3.41,-1.88,1
1,6261812391000,-15.94,-0.53,-3.3,1
1,6261862348000,-19.61,-17.97,-2.14,1
1,6261912336000,-1.31,-11.99,10.27,1
1,6261962232000,1.18,-4.02,-3.36,1
1,6262022290000,6.89,1.8,1.61,1
1,6262072339000,2.26,2.45,-6.4,1
1,6262122327000,1.88,-3.83,-0.5,1
1,6262172345000,-15.89,-17.16,2.34,1
1,6262222333000,-19.61,-10.84,-0.99,1
1,6262272321000,-18.43,-2.91,4.18,1
1,6262322339000,-10.11,2.07,5.18,1
1,6262372358000,-6.13,7.5,3.34,1
1,6262422345000,-3.41,10.5,7.63,1
1,6262472333000,0.23,4.18,1.42,1
1,6262522321000,-13.72,0.27,-0.08,1
1,6262572339000,-19.61,-12.6,-2.37,1
1,6262622327000,-12.87,-18.92,10.04,1
1,6262672345000,0.08,-7.4,-1.5,1
1,6262722303000,11.26,-3.45,8.66,1
1,6262772382000,1.92,7.25,3.99,1
1,6262822339000,-1.92,-0.3,-6.78,1
1,6262872358000,-7.12,-4.86,-1.33,1
1,6262922345000,-19.61,-10.0,-5.98,1
1,6262972333000,-15.83,-5.9,4.75,1
1,6263022321000,-16.59,-0.76,4.48,1
1,6263072339000,-9.3,-1.73,-7.78,1
1,6263122327000,-5.6,4.6,9.11,1
1,6263172345000,-4.25,9.92,6.44,1
1,6263222333000,-3.76,2.34,-0.46,1
1,6263272321000,-16.55,-0.08,-3.06,1
1,6263322339000,-19.61,-16.7,-0.61,1
1,6263372327000,-6.59,-14.37,11.73,1
1,6263422345000,1.14,-5.86,-1.33,1
1,6263472333000,8.85,-0.5,6.97,1
1,6263522321000,2.98,7.12,1.23,1
1,6263572339000,-0.04,-1.27,-5.13,1
1,6263622236000,-18.07,-2.53,-2.6,1
1,6263672345000,-15.94,-10.69,2.87,1
1,6263722333000,-15.7,-8.31,3.49,1
1,6263772321000,-12.26,0.0,8.12,1
1,6263822309000,-10.15,-0.3,0.04,1
1,6263872327000,-6.32,4.56,6.17,1
1,6263922345000,-2.79,9.53,4.63,1
1,6263972364000,-7.31,0.76,-1.08,1
1,6264022321000,-17.08,-0.3,-2.18,1
1,6264072339000,-19.46,-19.19,0.42,1
1,6264122327000,-0.11,-9.15,9.19,1
1,6264172345000,1.04,-3.06,-2.37,1
1,6264222333000,11.73,4.79,9.08,1
1,6264272321000,1.38,1.84,-2.75,1
1,6264322339000,2.26,-6.02,-4.02,1
1,6264372327000,-18.28,-11.6,-3.83,1
1,6264422376000,-15.85,-8.58,1.95,1
1,6264472333000,-16.89,-5.43,6.7,1
1,6264522321000,-14.29,4.21,6.02,1
1,6264572339000,-10.95,3.99,1.33,1
1,6264622327000,-2.53,8.08,10.53,1
1,6264672345000,-0.61,6.59,0.42,1
1,6264722303000,-9.19,-0.19,0.27,1
1,6264772321000,-19.61,-7.04,-1.31,1
1,6264822370000,-16.36,-18.05,3.87,1
1,6264872297000,-0.46,-5.52,2.53,1
1,6264922345000,1.84,-3.41,-2.96,1
1,6264972333000,9.11,7.7,15.13,1
1,6265022321000,1.42,1.61,-9.19,1
1,6265073865000,-8.69,-5.86,-4.86,1
1,6265132276000,-18.73,-12.15,1.99,1
1,6265182325000,-14.6,-9.28,4.21,1
1,6265232343000,-14.52,-0.99,7.86,1
1,6265282331000,-10.69,3.21,-2.87,1
1,6265332349000,-6.59,4.52,4.94,1
1,6265382337000,-2.11,8.66,5.83,1
1,6265432325000,-4.94,3.21,-0.04,1
1,6265482312000,-12.83,1.57,-1.04,1
1,6265532331000,-19.61,-16.55,-5.71,1
1,6265582349000,-5.79,-10.65,13.87,1
1,6265632306000,-0.3,-7.44,-1.12,1
1,6265682325000,5.05,-0.3,2.3,1
1,6265732343000,9.38,9.53,3.49,1
1,6265782331000,-0.89,2.6,-6.59,1
1,6265832349000,-19.46,-11.73,-4.29,1
1,6265882337000,-11.37,-11.69,8.47,1
1,6265932325000,-14.29,-7.7,-5.48,1
1,6265982343000,-12.98,-2.53,1.76,1
1,6266032331000,-11.84,2.79,-2.64,1
1,6266082349000,-7.82,7.35,10.53,1
1,6266132337000,-3.49,11.54,5.75,1
1,6266182325000,-1.12,1.57,-0.61,1
1,6266232373000,-14.94,-1.14,-2.26,1
1,6266282331000,-19.61,-17.46,-2.56,1
1,6266332349000,-3.87,-11.41,11.75,1
1,6266382337000,0.53,-5.75,-1.31,1
1,6266432294000,7.59,-2.18,6.63,1
1,6266482343000,3.83,6.32,2.68,1
1,6266532331000,-3.06,1.27,-5.09,1
1,6266582349000,-18.77,-3.17,-6.36,1
1,6266632337000,-11.8,-13.06,8.66,1
1,6266682325000,-11.56,-7.01,-5.71,1
1,6266740339000,-10.99,-4.67,0.5,1
1,6266792279000,-9.7,4.44,6.82,1
1,6266844587000,-3.98,2.68,-0.91,1
1,6266844587000,-3.98,2.68,-0.91,1
1,6266902265000,-1.95,13.63,5.01,1
1,6266952344000,-0.89,-1.53,3.68,1
1,6267002301000,-19.0,-3.41,4.25,1
1,6267052320000,-16.04,-15.4,4.67,1
1,6267102338000,-4.79,-7.08,2.34,1
1,6267152265000,-2.64,-7.21,-0.99,1
1,6267202344000,5.05,-1.42,3.49,1
1,6267252332000,8.96,10.73,4.1,1
1,6267302320000,0.34,-0.19,-5.18,1
1,6267352369000,-16.66,-0.15,-8.58,1
1,6267402295000,-10.04,-12.49,3.38,1
1,6267452344000,-5.71,-7.55,-2.98,1
1,6267502332000,-18.85,-11.88,-6.28,1
1,6267552320000,-12.11,-1.84,-4.94,1
1,6267602338000,-13.4,1.69,-0.5,1
1,6267652326000,-8.2,8.85,-0.57,1
1,6267702344000,-1.95,15.43,3.06,1
1,6267752332000,-2.72,-1.95,9.77,1
1,6267802320000,-18.12,2.87,-1.73,1
1,6267852338000,-18.05,-17.86,9.38,1
1,6267902326000,-6.7,-8.96,3.6,1
1,6267952344000,-0.8,-3.57,-1.95,1
1,6268002546000,3.3,1.73,-3.87,1
1,6268052320000,6.85,9.11,0.53,1
1,6268106946000,7.35,-3.06,-3.21,1
1,6268162244000,-13.72,-16.4,-9.34,1
1,6268222333000,-14.02,-9.23,0.65,1
1,6268272351000,-19.53,2.56,3.15,1
1,6268322370000,-9.19,4.9,-5.43,1
1,6268372327000,-6.85,12.57,4.86,1
1,6268422345000,-3.17,12.45,5.86,1
1,6268472333000,1.99,0.61,3.26,1
1,6268522321000,-9.53,-4.14,-1.04,1
1,6268572370000,-19.61,-11.88,-8.66,1
1,6268622327000,-8.92,-12.41,12.22,1
1,6268672345000,-5.33,-1.69,-0.65,1
1,6268722303000,-0.99,-2.56,-6.05,1
1,6268772321000,7.16,2.11,-1.53,1
1,6268822339000,4.79,7.08,5.41,1
1,6268872327000,5.28,-3.83,-2.07,1
1,6268932233000,-15.36,-18.24,-11.37,1
1,6268982312000,-19.61,-10.84,1.14,1
1,6269032331000,-16.09,6.44,7.06,1
1,6269082349000,-8.43,4.67,0.5,1
1,6269132337000,-5.33,9.77,4.99,1
1,6269182325000,-1.65,8.54,3.91,1
1,6269232343000,-1.8,0.27,-0.04,1
1,6269282300000,-16.4,-0.3,-1.73,1
1,6269342298000,-19.61,-18.2,-5.13,1
1,6269392316000,-3.68,-8.31,5.43,1
1,6269442304000,0.23,-2.91,-3.53,1
1,6269442304000,0.23,-2.91,-3.53,1
1,6269512372000,11.07,1.88,4.52,1
1,6269562238000,2.49,1.73,-4.02,1
1,6269612409000,1.99,-5.56,-2.49,1
1,6269662336000,-19.15,-15.62,-3.98,1
1,6269722333000,-19.27,-7.89,0.0,1
1,6269772321000,-12.76,0.15,6.28,1
1,6269822339000,-9.28,2.83,1.88,1
1,6269872327000,-7.5,4.67,3.87,1
1,6269922345000,-0.84,9.51,7.06,1
1,6269972333000,1.27,3.99,-1.23,1
1,6270026716000,-13.82,-0.38,-2.72,1
1,6270082349000,-19.61,-18.12,-1.14,1
1,6270132337000,-4.02,-12.22,5.94,1
1,6270182325000,1.57,-4.94,-2.83,1
1,6270232343000,8.66,-1.99,2.83,1
1,6270292249000,0.08,6.66,1.12,1
1,6270342328000,4.71,-2.64,-0.76,1
1,6270392316000,-10.34,-16.78,-2.11,1
1,6270442304000,-19.61,-17.27,-1.14,1
1,6270492292000,-19.61,-4.71,0.5,1
1,6270542310000,-18.39,8.5,12.45,1
1,6270592328000,-5.79,9.81,6.74,1
1,6270642316000,-0.84,11.37,4.33,1
1,6270692365000,1.57,1.18,-0.11,1
1,6270742292000,-15.47,0.23,-1.73,1
1,6270794965000,-19.61,-16.51,-5.41,1
1,6270794965000,-19.61,-16.51,-5.41,1
1,6270852369000,-3.34,-12.22,10.53,1
1,6270902326000,2.76,-3.64,-2.37,1
1,6270952375000,14.75,-1.5,13.21,1
1,6271002362000,0.53,1.14,-8.27,1
1,6271052350000,-0.08,-1.65,-4.18,1
1,6271102338000,-17.43,-6.89,-3.36,1
1,6271152356000,-19.19,-11.37,1.95,1
1,6271202344000,-15.28,-6.82,7.5,1
1,6271252362000,-12.6,2.37,7.01,1
1,6271302320000,-10.57,0.89,-3.06,1
1,6271352338000,-5.52,6.63,11.03,1
1,6271402326000,-3.57,7.12,2.87,1
1,6271452344000,-12.6,1.14,-1.33,1
1,6271502332000,-16.09,-2.07,-1.8,1
1,6271552320000,-18.85,-19.57,3.34,1
1,6271602338000,-2.56,-8.88,4.99,1
1,6271652326000,2.49,-1.92,-2.96,1
1,6271702344000,11.41,7.46,4.52,1
1,6271752362000,2.34,3.41,-1.31,1
1,6271802320000,3.06,-3.98,-4.1,1
1,6271852277000,-13.48,-14.67,-5.75,1
1,6271902326000,-18.85,-11.14,2.98,1
1,6271952344000,-16.02,-3.21,7.93,1
1,6272002576000,-10.99,2.56,6.36,1
1,6272052320000,-10.23,2.53,3.79,1
1,6272102369000,-5.56,4.52,7.08,1
1,6272152326000,-4.21,9.08,1.99,1
1,6272202344000,-10.69,1.73,-2.3,1
1,6272252332000,-19.19,-8.96,-9.96,1
1,6272302320000,-9.08,-15.94,12.79,1
1,6272352338000,-0.3,-6.09,-0.61,1
1,6272402356000,3.76,-0.99,-2.96,1
1,6272452344000,15.21,1.5,7.4,1
1,6272502332000,2.41,0.72,-6.66,1
1,6272556867000,-0.57,-8.2,-6.02,1
1,6272612317000,-19.61,-17.39,8.96,1
1,6272672315000,-19.5,-7.08,0.23,1
1,6272722333000,-10.8,3.11,5.6,1
1,6272772321000,-5.71,7.06,5.18,1
1,6272822339000,-3.91,8.5,6.02,1
1,6272872297000,-0.11,4.1,1.65,1
1,6272922345000,-9.92,1.27,-1.23,1
1,6272972242000,-19.53,-8.85,-4.71,1
1,6273022290000,-14.67,-19.15,9.58,1
1,6273072309000,-1.04,-7.21,0.0,1
1,6273122327000,2.22,-2.91,-1.04,1
1,6273172345000,12.45,3.21,12.49,1
1,6273222303000,0.61,1.18,-6.74,1
1,6273272321000,1.18,-7.78,-1.08,1
1,6273322339000,-19.42,-18.28,-1.84,1
1,6273372327000,-19.0,-8.05,0.57,1
1,6273422345000,-18.39,0.84,10.99,1
1,6273472333000,-13.91,2.11,-4.94,1
1,6273522321000,-4.37,10.23,11.07,1
1,6273572339000,-1.42,7.63,3.64,1
1,6273622327000,0.76,1.73,-0.61,1
1,6273672345000,-11.8,-0.23,-0.23,1
1,6273722333000,-19.61,-12.83,-4.02,1
1,6273772321000,-9.77,-17.12,12.45,1
1,6273832257000,-0.04,-5.75,-1.46,1
1,6273882337000,3.57,-1.08,-0.23,1
1,6273932325000,12.37,5.18,9.66,1
1,6273982343000,1.73,1.69,-5.98,1
1,6274032361000,-0.46,-8.16,-1.88,1
1,6274092298000,-19.61,-17.01,-1.04,1
1,6274142286000,-19.61,-6.55,3.26,1
1,6274192304000,-14.33,4.48,8.92,1
1,6274242322000,-9.81,3.87,-5.13,1
1,6274292310000,-3.26,6.28,8.5,1
1,6274342298000,-0.61,5.79,3.53,1
1,6274392316000,-5.48,1.08,-1.88,1
1,6274442304000,-19.27,-1.12,-2.53,1
1,6274492292000,-19.5,-18.92,1.33,1
1,6274560315000,-3.36,-11.41,7.46,1
1,6274560315000,-3.36,-11.41,7.46,1
1,6274612317000,2.91,-3.41,-0.99,1
1,6274662366000,12.76,5.41,11.41,1
1,6274712293000,0.57,2.34,-6.89,1
1,6274772290000,1.73,-6.97,-1.69,1
1,6274822339000,-19.61,-17.05,-2.07,1
1,6274872571000,-18.05,-7.5,1.5,1
1,6274922345000,-16.97,1.84,14.44,1
1,6274972333000,-13.4,0.65,-8.27,1
1,6275022321000,-5.43,5.9,9.58,1
1,6275072339000,-2.91,7.21,5.79,1
1,6275122327000,-1.38,3.21,-1.08,1
1,6275172345000,-15.75,1.38,-1.04,1
1,6275222272000,-19.61,-15.7,-5.67,1
1,6275272260000,-8.2,-16.36,13.72,1
1,6275322278000,-0.08,-6.09,-0.46,1
1,6275372327000,5.37,0.08,0.23,1
1,6275422345000,8.62,5.9,7.01,1
1,6275472333000,1.08,0.99,-7.89,1
1,6275524549000,-3.72,-10.53,-5.6,1
1,6275582319000,-19.61,-16.09,-1.14,1
1,6275632337000,-18.81,-5.24,4.71,1
1,6275682325000,-17.12,6.82,7.01,1
1,6275732343000,-8.47,2.64,2.22,1
1,6275782331000,-5.56,4.18,7.01,1
1,6275832349000,-0.89,7.16,4.67,1
1,6275882337000,-4.86,2.72,-2.18,1
1,6275932325000,-18.54,1.42,-4.14,1
1,6275982404000,-18.73,-19.0,6.28,1
1,6276032331000,-4.71,-10.72,6.55,1
1,6276082380000,-0.57,-4.02,-3.6,1
1,6276132306000,8.85,2.76,0.76,1
1,6276182325000,6.02,5.79,1.12,1
1,6276232343000,-0.15,1.08,-6.82,1
1,6276292310000,-11.03,-12.49,-6.59,1
1,6276342298000,-19.23,-10.95,3.79,1
1,6276392316000,-13.1,-5.94,7.12,1
1,6276442304000,-11.99,6.02,12.26,1
1,6276492292000,-9.85,2.87,-5.94,1
1,6276492292000,-9.85,2.87,-5.94,1
1,6276552289000,-2.75,8.81,10.34,1
1,6276602338000,-1.31,4.67,-1.33,1
1,6276652326000,-16.02,0.99,-2.18,1
1,6276702344000,-19.61,-14.25,-2.34,1
1,6276752362000,-10.23,-18.07,12.45,1
1,6276802320000,0.0,-5.67,-2.14,1
1,6276852338000,10.27,-2.56,4.37,1
1,6276902326000,9.28,4.86,6.36,1
1,6276952344000,-0.65,1.33,-7.27,1
1,6277012281000,-10.04,-8.73,-2.96,1
1,6277072339000,-16.36,-11.37,2.76,1
1,6277122327000,-14.94,-6.36,3.72,1
1,6277172345000,-13.78,3.06,8.2,1
1,6277222364000,-9.47,3.34,1.54,1
1,6277272351000,-3.53,4.67,8.69,1
1,6277342328000,-0.46,5.83,3.99,1
1,6277392255000,-10.99,1.33,0.38,1
1,6277442334000,-19.61,-4.82,-4.56,1
1,6277492292000,-14.67,-19.5,10.12,1
1,6277542249000,-2.34,-8.05,-0.15,1
1,6277592298000,4.94,-4.14,-2.22,1
1,6277642316000,10.88,4.79,13.76,1
1,6277692304000,0.76,-0.46,-11.37,1
1,6277742292000,-9.81,-4.56,-2.98,1
1,6277792310000,-19.42,-14.14,1.5,1
1,6277842298000,-17.46,-6.32,4.14,1
1,6277892316000,-17.24,0.8,8.35,1
1,6277942304000,-9.04,2.96,-2.96,1
1,6277992292000,-3.68,7.12,8.58,1
1,6278042310000,-1.73,7.35,4.63,1
1,6278092298000,-3.17,-0.46,-0.46,1
1,6278142316000,-18.73,-0.65,-0.27,1
1,6278192304000,-19.61,-18.69,-4.02,1
1,6278242292000,-3.36,-12.79,10.34,1
1,6278292310000,1.73,-5.67,-3.49,1
1,6278342298000,14.25,1.73,14.18,1
1,6278392316000,-0.38,5.56,-7.7,1
1,6278442304000,-7.27,0.84,-1.92,1
1,6278492231000,-12.98,-7.25,-2.14,1
1,6278542310000,-17.01,-10.95,-1.84,1
1,6278592328000,-15.17,-6.4,2.18,1
1,6278642347000,-17.67,-2.98,4.44,1
1,6278692304000,-9.3,2.96,-1.5,1
1,6278742292000,-6.43,9.51,8.66,1
1,6278792310000,-1.88,7.01,5.13,1
1,6278842298000,-6.13,1.18,-1.23,1
1,6278892316000,-19.08,1.38,-2.64,1
1,6278942304000,-19.61,-18.12,1.27,1
1,6278992292000,-6.85,-14.44,6.74,1
1,6279042249000,0.31,-4.63,-2.79,1
1,6279092298000,6.66,0.04,-1.8,1
1,6279142316000,8.12,2.64,8.35,1
1,6279192273000,-0.69,-4.06,-12.41,1
1,6279242292000,-17.24,-11.75,-2.68,1
1,6279292279000,-17.24,-11.22,3.11,1
1,6279342298000,-18.2,-5.05,3.49,1
1,6279392316000,-17.92,7.55,1.18,1
1,6279442304000,-7.27,6.05,2.34,1
1,6279492292000,-5.9,12.15,6.74,1
1,6279542310000,-1.61,8.81,1.33,1
1,6279592298000,1.12,-1.5,0.19,1
1,6279642377000,-14.52,-1.18,-2.87,1
1,6279692334000,-19.57,-17.86,5.52,1
1,6279742292000,-4.29,-7.82,6.89,1
1,6279792341000,-3.11,-4.29,-3.45,1
1,6279842298000,2.6,-0.08,-3.36,1
1,6279842298000,2.6,-0.08,-3.36,1
1,6279902326000,11.37,7.59,2.15,1
1,6279952344000,1.23,-2.56,-0.8,1
1,6280002546000,-8.92,-15.89,-4.25,1
1,6280052320000,-17.97,-12.37,1.54,1
1,6280052320000,-17.97,-12.37,1.54,1
1,6280162305000,-14.48,4.06,1.99,1
1,6280222333000,-11.84,7.25,10.12,1
1,6280272260000,-2.98,11.84,5.98,1
1,6280322339000,1.42,1.33,0.69,1
1,6280372297000,-13.44,0.0,-1.33,1
1,6280422254000,-19.61,-14.25,-8.08,1
1,6280472333000,-5.13,-14.02,11.35,1
1,6280522321000,0.23,-6.74,-0.5,1
1,6280576154000,5.18,0.99,-0.53,1
1,6280632337000,6.4,8.47,2.34,1
1,6280682325000,-1.95,-1.33,-7.21,1
1,6280732343000,-19.5,-10.34,-5.98,1
1,6280782331000,-14.98,-11.65,7.25,1
1,6280832349000,-11.95,-6.05,-3.15,1
1,6280882306000,-13.1,0.27,3.57,1
1,6280932325000,-12.34,2.22,2.96,1
1,6280982343000,-4.59,12.98,6.78,1
1,6281042341000,0.42,4.86,0.19,1
1,6281094251000,-16.66,-1.38,-4.75,1
1,6281094251000,-16.66,-1.38,-4.75,1
1,6281152295000,-19.61,-18.62,1.57,1
1,6281202344000,-1.57,-12.3,5.79,1
1,6281252332000,2.03,-3.06,-1.61,1
1,6281302320000,11.8,7.06,5.37,1
1,6281352338000,2.45,1.27,-3.45,1
1,6281402997000,1.57,-6.51,-3.95,1
1,6281452283000,-18.31,-19.0,-1.08,1
1,6281502332000,-12.56,-8.35,4.18,1
1,6281552320000,-16.09,-4.52,1.95,1
1,6281602338000,-11.18,3.83,4.9,1
1,6281652326000,-11.99,5.98,3.91,1
1,6281702375000,-3.79,6.28,7.16,1
1,6281752332000,-0.04,5.48,1.04,1
1,6281802320000,-10.88,-0.08,-2.96,1
1,6281852338000,-19.34,-11.07,-1.14,1
1,6281902326000,-12.79,-17.92,9.81,1
1,6281952344000,-0.11,-5.05,0.95,1
1,6282002637000,1.04,-3.64,-3.21,1
1,6282052259000,12.07,4.63,13.8,1
1,6282102338000,1.08,-1.42,-8.69,1
1,6282152326000,-4.06,-6.89,-3.3,1
1,6282202344000,-19.61,-14.98,-2.87,1
1,6282252332000,-15.01,-7.08,3.17,1
1,6282302320000,-19.34,-3.83,5.01,1
1,6282352369000,-11.99,2.07,-2.83,1
1,6282422315000,-4.71,8.39,8.54,1
1,6282472333000,-2.41,9.58,4.4,1
1,6282522321000,-2.37,2.83,-1.99,1
1,6282572339000,-16.09,0.08,-0.53,1
1,6282622327000,-19.61,-15.36,-0.76,1
1,6282672345000,-8.81,-16.21,12.18,1
1,6282722303000,0.99,-5.43,-2.37,1
1,6282772321000,10.57,-1.14,6.63,1
1,6282822339000,3.11,3.87,1.8,1
1,6282872297000,-0.42,-0.76,-7.12,1
1,6282922345000,-16.02,-7.86,-0.95,1
1,6282972333000,-14.52,-9.58,1.54,1
1,6283022321000,-17.77,-8.77,6.44,1
1,6283072339000,-13.99,-1.23,1.31,1
1,6283122327000,-7.74,3.91,-1.76,1
1,6283172345000,-5.67,7.27,10.19,1
1,6283222303000,-0.61,8.05,2.91,1
1,6283272321000,-0.99,0.95,-1.18,1
1,6283323499000,-16.78,-0.5,0.15,1
1,6283382276000,-19.61,-18.58,-0.76,1
1,6283432325000,-1.42,-4.44,9.51,1
1,6283482312000,-0.19,-4.71,-4.48,1
1,6283532270000,8.69,-2.11,7.89,1
1,6283582349000,1.46,4.4,-1.53,1
1,6283632367000,-1.31,-1.18,-5.71,1
1,6283682325000,-18.24,-9.7,-2.87,1
1,6283732312000,-16.51,-8.92,2.45,1
1,6283782331000,-17.39,-8.62,-0.65,1
1,6283832380000,-14.4,1.99,9.15,1
1,6283882337000,-11.8,3.38,-3.06,1
1,6283932325000,-5.52,9.77,9.51,1
1,6283982343000,-0.84,10.61,4.02,1
1,6284032331000,-0.42,1.8,-0.84,1
1,6284082349000,-16.21,1.23,-2.56,1
1,6284132337000,-19.61,-16.89,1.14,1
1,6284182325000,-7.74,-13.48,11.6,1
1,6284232312000,-1.84,-5.94,-2.56,1
1,6284282331000,2.56,-1.92,-2.07,1
1,6284332349000,11.03,9.51,12.79,1
1,6284382306000,0.61,-0.04,-9.08,1
1,6284432264000,-14.71,-8.12,-5.13,1
1,6284482343000,-17.77,-13.44,5.9,1
1,6284532331000,-15.62,-8.73,3.76,1
1,6284582319000,-16.63,-0.3,4.14,1
1,6284632337000,-10.19,3.99,0.04,1
1,6284682325000,-5.52,7.35,9.08,1
1,6284732312000,-2.41,9.47,3.57,1
1,6284782331000,-1.42,1.8,-0.76,1
1,6284832349000,-14.67,0.95,-2.37,1
1,6284882306000,-19.61,-15.21,-1.99,1
1,6284932355000,-7.97,-12.26,13.21,1
1,6284982343000,-2.3,-6.51,-0.69,1
1,6285032331000,1.84,-0.61,-2.75,1
1,6285082349000,14.41,6.32,9.66,1
1,6285132337000,1.54,0.08,-7.4,1
1,6285192334000,-9.0,-9.23,-6.24,1
1,6285242231000,-19.15,-11.65,4.29,1
1,6285292341000,-18.77,-8.01,4.94,1
1,6285342267000,-16.66,1.18,8.5,1
1,6285392347000,-11.84,1.57,-0.65,1
1,6285442304000,-4.48,4.82,6.13,1
1,6285492292000,-2.11,9.81,3.99,1
1,6285542310000,-1.23,2.56,-1.14,1
1,6285592359000,-15.55,-1.42,-1.5,1
1,6285592359000,-15.55,-1.42,-1.5,1
1,6285662275000,-17.12,-18.35,5.48,1
1,6285722242000,-1.73,-7.12,0.99,1
1,6285772351000,6.74,-2.91,1.61,1
1,6285822339000,6.63,8.5,7.5,1
1,6285872297000,-1.99,4.71,-12.64,1
1,6285922284000,-15.01,-5.79,-0.08,1
1,6285972333000,-19.61,-17.82,-1.04,1
1,6286022321000,-15.98,-9.72,-0.61,1
1,6286072339000,-10.69,-0.38,4.82,1
1,6286122327000,-10.65,0.15,-2.3,1
1,6286172406000,-6.66,7.74,9.77,1
1,6286222333000,-4.25,8.12,3.49,1
1,6286272321000,-8.77,-1.99,-2.72,1
1,6286322339000,-17.43,-3.79,0.57,1
1,6286372327000,-19.38,-19.46,-0.5,1
1,6286422345000,-0.89,-10.11,5.71,1
1,6286472333000,2.03,-3.79,-2.07,1
1,6286522321000,12.64,2.15,5.94,1
1,6286572370000,1.73,-1.46,-2.07,1
1,6286622327000,1.31,-5.67,-3.83,1
1,6286672345000,-16.32,-18.69,2.49,1
1,6286722303000,-19.61,-15.28,0.15,1
1,6286772321000,-19.19,-2.56,2.26,1
1,6286822339000,-12.6,4.37,4.33,1
1,6286872297000,-5.82,9.0,0.72,1
1,6286922223000,-3.06,11.37,5.22,1
1,6286972333000,-0.8,1.8,-0.11,1
1,6287022321000,-15.75,-2.98,0.0,1
1,6287072370000,-19.61,-18.69,0.11,1
1,6287122327000,-3.49,-13.76,11.03,1
1,6287172284000,2.11,-5.9,-4.79,1
1,6287222303000,12.41,-1.53,7.74,1
1,6287272321000,1.54,6.09,3.34,1
1,6287322339000,1.04,0.84,-5.71,1
1,6287382520000,-8.08,-12.95,-6.82,1
1,6287432355000,-18.16,-12.03,3.41,1
1,6287482343000,-14.79,-3.68,5.6,1
1,6287532331000,-10.57,1.8,3.11,1
1,6287582349000,-7.46,2.22,1.76,1
1,6287632337000,-6.21,5.41,8.35,1
1,6287682325000,-1.76,6.51,1.95,1
1,6287732373000,-9.85,-0.46,-2.22,1
1,6287782361000,-18.69,-8.66,0.72,1
1,6287832349000,-16.09,-19.3,4.06,1
1,6287882367000,-0.5,-7.31,2.91,1
1,6287932325000,3.02,-1.8,-1.69,1
1,6287982282000,13.76,4.94,9.15,1
1,6288032331000,-1.42,0.42,-5.48,1
1,6288082380000,2.72,-6.51,0.23,1
1,6288132337000,-16.85,-19.46,0.08,1
1,6288182355000,-19.61,-11.45,0.11,1
1,6288232343000,-19.5,-3.3,2.18,1
1,6288282361000,-13.21,5.13,5.52,1
1,6288332349000,-8.96,7.93,2.26,1
1,6288382367000,-3.45,11.73,4.29,1
1,6288432325000,3.72,1.99,0.8,1
1,6288482312000,-10.99,-1.92,-1.53,1
1,6288532361000,-19.61,-17.86,-1.8,1
1,6288582349000,-0.72,-11.65,10.53,1
1,6288632337000,0.5,-4.52,-1.33,1
1,6288682325000,3.79,4.37,-1.33,1
1,6288732343000,10.88,5.48,5.83,1
1,6288782331000,2.37,0.65,-3.83,1
1,6288842328000,-4.06,-14.02,-5.48,1
1,6288892286000,-19.61,-13.59,3.49,1
1,6288942304000,-15.83,-3.34,6.44,1
1,6288992292000,-11.84,6.47,4.56,1
1,6289042341000,-10.61,5.75,0.99,1
1,6289092206000,-3.3,7.63,6.47,1
1,6289142408000,1.61,6.85,-0.08,1
1,6289142408000,1.61,6.85,-0.08,1
1,6289202283000,-6.55,-0.3,-1.33,1
1,6289252362000,-19.61,-11.75,2.07,1
1,6289302320000,-14.86,-18.77,4.99,1
1,6289352308000,-0.11,-6.66,0.38,1
1,6289402326000,3.83,-4.06,1.18,1
1,6289452344000,10.69,7.86,13.21,1
1,6289502332000,1.27,0.57,-7.74,1
1,6289552320000,-4.21,-10.53,-2.18,1
1,6289602338000,-19.61,-15.13,-1.76,1
1,6289652326000,-18.01,-9.23,6.63,1
1,6289702344000,-16.24,-0.46,8.16,1
1,6289752332000,-8.5,1.18,-6.28,1
1,6289802320000,-7.16,7.08,8.81,1
1,6289852369000,-2.96,8.2,4.86,1
1,6289902326000,0.27,2.68,-1.31,1
1,6289952344000,-13.25,-0.57,-0.57,1
1,6290002729000,-19.61,-13.95,0.15,1
1,6290052289000,-10.8,-16.78,7.86,1
1,6290102338000,-0.19,-7.31,-1.5,1
1,6290152326000,9.0,-4.75,5.6,1
1,6290202344000,4.63,9.58,8.62,1
1,6290262952000,0.04,-0.19,-6.89,1
1,6290322309000,-16.47,-10.65,-7.65,1
1,6290372327000,-11.33,-11.11,8.77,1
1,6290422345000,-17.27,-6.89,-5.05,1
1,6290472333000,-12.49,1.92,3.68,1
1,6290522321000,-11.26,5.98,6.24,1
1,6290572339000,-4.94,5.05,6.7,1
1,6290622236000,-0.34,7.06,3.53,1
1,6290672345000,-8.39,0.5,-1.14,1
1,6290722303000,-19.3,-3.34,-1.73,1
1,6290772321000,-17.58,-19.61,5.13,1
1,6290822339000,-1.61,-6.24,5.28,1
1,6290872327000,2.34,-0.99,-2.98,1
1,6290932264000,7.63,2.41,-2.18,1
1,6290982343000,2.41,0.65,-5.41,1
1,6291032331000,4.21,-4.06,-1.92,1
1,6291092298000,-14.71,-18.05,-2.87,1
1,6291142316000,-19.61,-14.21,0.76,1
1,6291192304000,-19.38,-2.3,2.98,1
1,6291242292000,-15.36,4.52,6.51,1
1,6291292310000,-4.52,8.89,2.96,1
1,6291342298000,-0.57,9.19,4.82,1
1,6291392316000,-3.34,-0.23,-0.34,1
1,6291442304000,-15.55,0.42,-1.42,1
1,6291492292000,-19.61,-18.69,0.72,1
1,6291542310000,-2.14,-10.08,10.69,1
1,6291592298000,0.34,-5.09,-3.34,1
1,6291643872000,8.05,0.27,3.76,1
1,6291643872000,8.05,0.27,3.76,1
1,6291702344000,5.56,5.75,1.65,1
1,6291752271000,2.41,-6.32,-3.57,1
1,6291802320000,-17.62,-17.43,0.5,1
1,6291852338000,-13.48,-7.35,1.08,1
1,6291902326000,-16.17,-4.59,3.21,1
1,6291952344000,-8.31,2.98,6.97,1
1,6292002515000,-9.72,3.34,1.88,1
1,6292052320000,-1.69,7.86,8.66,1
1,6292102338000,0.65,3.99,0.04,1
1,6292152326000,-11.99,-0.04,-0.46,1
1,6292202283000,-19.61,-10.04,-1.84,1
1,6292252332000,-13.82,-18.69,9.43,1
1,6292302320000,-1.12,-5.98,-0.38,1
1,6292352338000,2.03,-2.98,-2.11,1
1,6292402326000,10.92,6.47,15.36,1
1,6292452344000,0.08,-0.11,-10.42,1
1,6292502332000,-2.14,-2.45,-1.99,1
1,6292552320000,-18.01,-9.72,-3.68,1
1,6292602369000,-17.54,-10.65,2.72,1
1,6292652326000,-16.74,-7.4,6.09,1
1,6292702344000,-10.61,1.57,6.44,1
1,6292752332000,-8.66,1.8,2.56,1
1,6292802320000,-5.24,3.41,6.66,1
1,6292852338000,-1.42,8.58,2.18,1
1,6292902326000,-4.18,0.76,-0.61,1
1,6293062116000,-0.72,-5.24,5.05,1
1,6293062116000,-0.72,-5.24,5.05,1
1,6293062116000,-0.72,-5.24,5.05,1
1,6293112287000,-0.99,-3.64,-2.79,1
1,6293162397000,9.38,3.17,4.71,1
1,6293212293000,2.87,2.68,-2.18,1
1,6293262342000,-0.11,-5.56,-4.37,1
1,6293322278000,-19.61,-13.99,0.99,1
1,6293372266000,-16.04,-7.82,2.76,1
1,6293422345000,-15.66,-4.59,6.66,1
1,6293472333000,-10.57,1.84,1.23,1
1,6293522321000,-7.4,5.43,3.21,1
1,6293572339000,-1.5,3.99,6.85,1
1,6293622327000,1.08,3.38,0.69,1
1,6293672376000,-9.0,1.61,-0.38,1
1,6293722242000,-19.61,-5.33,-8.81,1
1,6293772321000,-12.41,-16.24,10.61,1
1,6293822339000,-1.92,-6.17,-0.27,1
1,6293872449000,3.06,-3.26,-1.18,1
1,6293922345000,11.96,4.48,11.99,1
1,6293972333000,0.8,0.65,-6.02,1
1,6294022321000,1.38,-7.27,-1.31,1
1,6294072339000,-18.66,-18.28,-1.04,1
1,6294122327000,-18.24,-7.93,0.89,1
1,6294172345000,-16.63,-2.34,8.2,1
1,6294222303000,-9.58,2.45,2.83,1
1,6294272321000,-7.44,7.5,4.6,1
1,6294322339000,-1.57,6.17,5.18,1
1,6294372358000,0.57,1.42,-0.53,1
1,6294422345000,-12.79,0.61,-1.42,1
1,6294482251000,-19.61,-13.78,-2.14,1
1,6294532331000,-3.6,-11.8,13.53,1
1,6294582349000,0.5,-4.02,-3.87,1
1,6294632337000,6.17,1.23,2.15,1
1,6294682325000,5.05,4.52,4.21,1
1,6294732343000,2.03,-0.23,-4.56,1
1,6294792249000,-13.1,-11.88,-2.11,1
1,6294842298000,-19.08,-10.19,1.27,1
1,6294892316000,-17.54,-6.02,5.37,1
1,6294942304000,-9.34,4.82,10.8,1
1,6294992261000,-9.11,3.64,-2.3,1
1,6295042310000,-2.72,7.12,9.81,1
1,6295092298000,-1.65,2.34,0.42,1
1,6295142347000,-12.22,0.89,-0.72,1
1,6295192304000,-19.5,-10.27,-2.64,1
1,6295242322000,-12.18,-13.91,6.13,1
1,6295242322000,-12.18,-13.91,6.13,1
1,6295302320000,-0.34,-6.02,-0.42,1
1,6295352399000,2.22,0.31,0.0,1
1,6295402326000,9.15,8.31,9.28,1
1,6295452344000,0.31,1.65,-6.78,1
1,6295502271000,-13.99,-5.43,-4.14,1
1,6295552320000,-17.73,-16.4,6.93,1
1,6295602338000,-17.39,-6.59,-2.3,1
1,6295652326000,-12.76,1.61,8.89,1
1,6295702344000,-8.85,-0.23,-2.14,1
1,6295752332000,-2.91,5.98,4.75,1
1,6295802320000,-0.8,8.77,4.44,1
1,6295852308000,-0.8,3.68,-1.5,1
1,6295902326000,-14.9,0.8,1.99,1
1,6295952344000,-19.61,-14.25,-4.99,1
1,6296002546000,-14.1,-13.53,3.15,1
1,6296052320000,-3.36,-7.55,-0.34,1
1,6296102338000,1.57,-5.52,-2.96,1
1,6296152326000,11.07,3.38,13.91,1
1,6296202344000,-1.08,-0.27,-5.79,1
1,6296252362000,-2.49,-1.04,-5.98,1
1,6296302320000,-19.57,-12.76,-4.63,1
1,6296352338000,-19.19,-10.46,2.45,1
1,6296402326000,-17.05,-4.9,11.5,1
1,6296452344000,-11.03,0.53,-0.34,1
1,6296502332000,-3.57,1.18,2.15,1
1,6296552320000,-3.15,2.96,6.05,1
1,6296602338000,-0.5,5.13,1.54,1
1,6296652326000,-1.5,2.26,-1.53,1
1,6296702344000,-17.88,2.3,3.06,1
1,6296752332000,-19.61,-14.14,-11.07,1
1,6296802320000,-8.66,-11.56,11.37,1
1,6296852338000,-4.02,-8.16,-2.34,1
1,6296902326000,9.85,-6.59,6.89,1
1,6296952344000,2.6,5.01,3.6,1
1,6297002362000,2.56,3.06,-3.3,1
1,6297052320000,-2.11,-4.4,-8.69,1
1,6297112378000,-19.61,-16.4,-3.95,1
1,6297172284000,-16.09,-7.89,-0.46,1
1,6297222333000,-14.86,3.06,-0.19,1
1,6297272321000,-7.86,3.38,8.5,1
1,6297322339000,-5.43,4.86,4.02,1
1,6297372327000,1.65,5.18,1.95,1
1,6297422345000,4.52,1.04,0.19,1
1,6297472333000,-3.06,0.38,-2.3,1
1,6297522321000,-19.15,-8.16,-4.63,1
1,6297572339000,-15.17,-10.76,6.93,1
1,6297622327000,-7.97,-7.97,2.22,1
1,6297672345000,-2.45,-7.04,-1.76,1
1,6297722333000,3.95,0.42,1.65,1
1,6297772321000,10.15,8.2,5.22,1
1,6297822339000,2.87,2.03,-4.02,1
1,6297872358000,-9.43,-1.31,-0.04,1
1,6297922345000,-19.57,-9.23,0.57,1
1,6297972333000,-12.6,-6.13,7.93,1
1,6298022321000,-7.97,-5.41,1.46,1
1,6298090375000,-6.55,-3.53,-7.44,1
1,6298142286000,-8.73,-4.25,4.33,1
1,6298192304000,-9.3,3.3,1.38,1
1,6298242292000,-8.69,-0.42,2.64,1
1,6298292310000,-13.57,-6.21,1.95,1
1,6298342298000,-12.07,-3.6,2.03,1
1,6298392347000,-9.28,-4.75,-0.65,1
1,6298442304000,-5.86,-5.2,4.9,1
1,6298492292000,-8.24,-6.02,-0.65,1
1,6489312330000,3.53,10.76,-3.06,4
1,6489362378000,3.26,10.08,0.04,4
1,6489412336000,-5.13,10.57,-2.18,4
1,6489462323000,-3.21,7.4,-4.79,4
1,6489512342000,-1.95,6.59,-4.79,4
1,6489562330000,0.11,12.64,-2.72,4
1,6489612317000,-2.6,18.12,-0.57,4
1,6489662336000,-3.83,9.0,-1.18,4
1,6489712323000,-0.34,8.16,-6.47,4
1,6489762342000,4.52,12.11,0.46,4
1,6489812299000,4.94,12.98,3.26,4
1,6489862378000,-1.69,12.37,3.76,4
1,6489912336000,-6.02,9.23,1.57,4
1,6489962323000,-1.69,8.01,-0.04,4
1,6490012281000,3.49,11.75,0.99,4
1,6490062330000,-2.56,10.08,1.23,4
1,6490112317000,-1.23,14.18,-0.38,4
1,6490162366000,1.46,12.98,0.27,4
1,6490212323000,2.37,13.14,2.83,4
1,6490262403000,0.69,15.51,5.75,4
1,6490312360000,-2.53,12.83,5.37,4
1,6490362348000,-2.68,11.18,3.68,4
1,6490412305000,-5.24,12.41,0.38,4
1,6490462293000,0.15,15.24,-0.34,4
1,6490512342000,1.31,9.53,-1.95,4
1,6490562330000,-4.86,6.93,5.52,4
1,6490612348000,-2.87,7.7,4.1,4
1,6490662336000,0.72,7.44,-3.15,4
1,6490712293000,3.34,6.13,-1.18,4
1,6490762342000,1.14,7.12,-0.76,4
1,6490812330000,6.55,10.5,8.05,4
1,6490862348000,-4.14,8.5,7.55,4
1,6490912336000,-1.92,17.39,-2.6,4
1,6490962323000,1.57,13.82,-0.27,4
1,6491012342000,-3.15,9.43,1.84,4
1,6491062360000,-5.28,12.18,0.93,4
1,6491112317000,-4.4,14.29,-2.11,4
1,6491162336000,-1.12,8.24,-1.65,4
1,6491212323000,0.5,10.73,-1.38,4
1,6491262372000,0.38,16.78,10.57,4
1,6491312330000,5.48,5.63,4.4,4
1,6491362348000,9.0,10.73,-2.07,4
1,6491412305000,-3.49,15.02,0.46,4
1,6491462323000,-7.04,19.27,-2.37,4
1,6491512342000,-5.37,13.57,3.11,4
1,6491562330000,1.18,8.43,2.68,4
1,6491612348000,-3.68,4.75,-1.04,4
1,6491662305000,-1.42,1.38,-1.04,4
1,6491712354000,2.83,-0.08,-1.46,4
1,6491762342000,6.47,13.02,-1.69,4
1,6491812330000,-2.91,11.69,2.72,4
1,6491862348000,-5.01,18.2,-0.76,4
1,6491912305000,-5.86,14.33,-0.34,4
1,6491972394000,-3.64,15.09,-5.98,4
1,6492022260000,-0.53,13.95,-0.11,4
1,6492072309000,9.19,7.86,10.31,4
1,6492122327000,10.57,2.96,-0.23,4
1,6492172345000,5.13,9.19,-2.41,4
1,6492222333000,-6.17,18.77,4.6,4
1,6492272351000,-7.63,18.12,-5.52,4
1,6492322339000,-1.76,10.92,3.41,4
1,6492372327000,-3.49,6.7,-1.69,4
1,6492422315000,-3.49,1.65,-1.42,4
1,6492472333000,0.15,-2.56,1.08,4
1,6492522321000,7.25,-1.33,0.34,4
1,6492572339000,1.69,11.73,1.33,4
1,6492622327000,-9.04,19.57,-6.13,4
1,6492672376000,-3.57,13.06,-0.23,4
1,6492722333000,-6.09,16.04,-1.76,4
1,6492772321000,-3.34,13.4,-8.35,4
1,6492822339000,-0.65,14.21,5.9,4
1,6492872327000,9.34,7.31,6.05,4
1,6492922315000,8.89,3.15,-0.95,4
1,6492972333000,2.26,12.03,0.84,4
1,6493022321000,-4.14,17.08,-0.84,4
1,6493072339000,-10.42,16.89,-3.02,4
1,6493122358000,-0.95,9.72,4.48,4
1,6493172345000,-4.56,3.76,-2.37,4
1,6493222303000,-1.65,-0.42,-2.79,4
1,6493272321000,2.49,-4.86,1.27,4
1,6493322339000,6.55,-0.38,2.26,4
1,6493372327000,-1.38,7.89,0.53,4
1,6493422345000,-18.54,19.57,-10.19,4
1,6493472333000,-8.16,13.91,0.11,4
1,6493522321000,-6.66,12.6,-7.55,4
1,6493572339000,2.68,15.94,12.79,4
1,6493622297000,7.7,7.67,0.38,4
1,6493672345000,6.24,0.19,-1.14,4
1,6493722303000,0.46,6.85,0.0,4
1,6493772321000,-15.85,19.53,-14.6,4
1,6493822339000,-5.94,9.43,14.33,4
1,6493872327000,-2.64,3.83,-2.53,4
1,6493922315000,-0.69,-0.57,-4.14,4
1,6493972333000,4.33,-5.94,3.41,4
1,6494022321000,5.9,-1.27,2.68,4
1,6494072400000,-1.84,5.9,-2.64,4
1,6494122327000,-19.34,19.57,-6.74,4
1,6494172345000,-8.05,8.24,-2.98,4
1,6494222333000,-8.39,8.58,2.87,4
1,6494272321000,-0.84,12.11,6.13,4
1,6494322370000,9.19,9.43,3.41,4
1,6494372327000,4.71,4.67,1.73,4
1,6494422345000,-7.82,7.82,1.42,4
1,6494472333000,-18.66,19.46,-10.8,4
1,6494522321000,-9.23,8.77,6.55,4
1,6494572339000,-2.91,3.76,-0.99,4
1,6494622358000,-4.37,0.65,-3.91,4
1,6494672345000,0.8,-2.45,0.42,4
1,6494722364000,7.27,-1.53,1.8,4
1,6494772321000,-1.42,3.76,1.76,4
1,6494822400000,-19.3,19.11,-2.68,4
1,6494872358000,-10.19,9.51,2.6,4
1,6494922376000,-8.96,9.23,-0.84,4
1,6494972333000,-9.66,8.77,-2.11,4
1,6495022351000,-5.37,8.54,7.35,4
1,6495072339000,2.22,12.26,3.21,4
1,6495122327000,1.38,8.73,1.04,4
1,6495172345000,-2.83,8.16,-0.23,4
1,6495222333000,-14.75,13.72,-3.17,4
1,6495272260000,-18.5,10.31,-6.63,4
1,6495322339000,-7.35,3.06,-3.91,4
1,6495372327000,-3.68,5.01,2.87,4
1,6495422345000,-4.99,2.64,1.54,4
1,6495472333000,-3.95,-1.12,-2.22,4
1,6495522321000,-4.21,-0.23,7.97,4
1,6495572736000,-9.7,15.17,-4.21,4
1,6495622327000,-5.94,10.65,-2.83,4
1,6495672345000,-8.85,8.89,-1.14,4
1,6495722333000,-7.74,6.97,-1.18,4
1,6495772351000,-6.97,6.28,-0.15,4
1,6495822339000,-6.82,4.63,-3.64,4
1,6495872327000,-6.21,2.91,-3.68,4
1,6495922345000,-7.63,5.01,0.15,4
1,6495972364000,-7.16,12.95,11.6,4
1,6496022321000,-1.8,17.88,9.23,4
1,6496072339000,-10.69,13.38,1.73,4
1,6496122327000,-11.88,15.47,-0.84,4
1,6496172345000,-6.36,18.58,-16.44,4
1,6496222333000,-2.49,13.33,-1.5,4
1,6496272199000,-12.03,5.18,8.12,4
1,6496322339000,-4.94,4.18,-9.11,4
1,6496372327000,-5.09,-2.83,1.31,4
1,6496422376000,-1.18,1.5,0.93,4
1,6496472333000,-2.87,4.29,-4.79,4
1,6496522321000,-14.25,19.04,-2.45,4
1,6496572339000,-3.41,-0.69,11.18,4
1,6496622327000,-1.61,5.22,-0.15,4
1,6496672345000,-17.5,11.69,0.19,4
1,6496722272000,-11.73,8.69,0.89,4
1,6496772229000,-9.3,14.71,-1.31,4
1,6496822370000,-6.63,12.95,-2.6,4
1,6496872327000,-6.28,8.58,14.75,4
1,6496922345000,2.26,6.93,2.03,4
1,6496972333000,3.45,7.59,0.76,4
1,6497022321000,-9.04,10.92,5.56,4
1,6497072339000,-15.7,11.22,-1.46,4
1,6497122327000,-13.38,12.95,-3.02,4
1,6497172345000,-8.31,6.89,1.95,4
1,6497222333000,-6.28,1.46,-2.41,4
1,6497272321000,-2.26,-1.46,-2.11,4
1,6497322339000,1.88,-2.41,1.65,4
1,6497372510000,2.79,3.68,-0.76,4
1,6497422345000,-15.17,15.51,3.26,4
1,6497472333000,-17.88,6.32,1.27,4
1,6497522351000,-16.89,11.14,0.8,4
1,6497572370000,-12.26,11.26,-6.28,4
1,6497622327000,-8.24,10.0,-1.14,4
1,6497672376000,1.08,13.14,12.37,4
1,6497722364000,7.89,10.65,1.99,4
1,6497772321000,-0.27,1.69,0.65,4
1,6497822339000,-13.76,11.75,-3.68,4
1,6497872327000,-17.46,12.34,-1.5,4
1,6497922345000,-5.71,5.05,6.05,4
1,6497972333000,-3.79,0.53,-2.98,4
1,6498022229000,-1.18,-1.95,-2.45,4
1,6498072339000,3.91,-3.87,1.57,4
1,6498122297000,5.41,-0.5,0.89,4
1,6498172376000,-7.78,9.89,-7.21,4
1,6498222333000,-18.43,13.99,4.75,4
1,6498272351000,-14.6,9.85,0.31,4
1,6498322339000,-14.21,7.93,1.54,4
1,6498372388000,-11.92,7.86,-1.5,4
1,6498422345000,-2.41,12.49,5.94,4
1,6498472333000,5.83,9.72,1.33,4
1,6498522321000,6.36,7.46,1.42,4
1,6498572370000,-5.52,6.66,0.89,4
1,6498622236000,-19.61,18.96,-7.25,4
1,6498672376000,-12.03,4.63,8.08,4
1,6498728101000,-6.02,1.08,2.79,4
1,6498728101000,-6.02,1.08,2.79,4
1,6498783735000,-1.88,-0.8,-2.18,4
1,6498842328000,6.66,-3.95,-0.08,4
1,6498892347000,3.95,0.46,0.38,4
1,6498942334000,-14.14,13.91,-7.21,4
1,6498992322000,-17.5,12.57,3.64,4
1,6499042341000,-11.14,8.31,1.08,4
1,6499092328000,-11.99,1.61,3.53,4
1,6499142347000,-4.06,8.28,2.3,4
1,6499192365000,1.46,9.53,1.46,4
1,6499242322000,10.38,8.54,3.72,4
1,6499292341000,-5.79,3.53,2.91,4
1,6499342328000,-18.77,18.47,-6.4,4
1,6499392347000,-14.86,5.71,3.49,4
1,6499442334000,-4.18,4.21,3.15,4
1,6499492322000,-4.52,-0.04,-1.08,4
1,6499542341000,0.53,-1.88,-0.53,4
1,6499592328000,7.97,-1.65,1.54,4
1,6499642347000,1.23,3.6,-2.22,4
1,6499692334000,-17.05,17.2,-4.4,4
1,6499742322000,-18.16,11.3,5.13,4
1,6499792341000,-8.88,2.37,-0.69,4
1,6499842328000,-10.42,6.63,4.48,4
1,6499892347000,-1.14,12.22,2.15,4
1,6499942334000,5.63,9.62,4.52,4
1,6499992322000,6.7,5.22,1.14,4
1,6500042371000,-7.4,7.82,-0.65,4
1,6500092328000,-19.61,18.5,-3.41,4
1,6500142347000,-10.95,4.18,7.27,4
1,6500192334000,-7.78,3.87,1.95,4
1,6500242353000,-3.95,-0.57,-1.42,4
1,6500302350000,2.45,-2.3,-0.08,4
1,6500352338000,9.66,0.46,-0.91,4
1,6500402326000,-0.04,4.94,0.34,4
1,6500452344000,-18.2,18.05,-0.84,4
1,6500502332000,-13.87,9.23,2.18,4
1,6500552289000,-14.1,3.91,5.79,4
1,6500602338000,-12.49,7.31,-6.43,4
1,6500652326000,-5.82,8.43,6.17,4
1,6500702344000,5.67,12.37,4.63,4
1,6500752332000,1.12,10.92,1.46,4
1,6500802320000,-2.91,7.59,-2.6,4
1,6500852338000,-17.67,12.07,-3.41,4
1,6500902326000,-18.69,5.79,-2.11,4
1,6500952344000,-8.58,0.69,-0.53,4
1,6501002332000,-2.96,6.44,6.28,4
1,6501052289000,-5.6,3.68,0.99,4
1,6501102338000,-4.86,-3.49,-2.14,4
1,6501152326000,-5.33,0.95,14.33,4
1,6501202344000,-11.22,13.91,-2.98,4
1,6501252301000,-9.62,8.28,-2.83,4
1,6501302320000,-7.46,6.21,-0.89,4
1,6501352338000,-7.08,6.97,1.84,4
1,6501402326000,-6.05,5.67,-1.76,4
1,6501452344000,-7.01,3.72,-6.51,4
1,6501502393000,-7.86,2.83,-1.8,4
1,6501552289000,-11.54,1.88,6.85,4
1,6501602338000,-9.49,5.98,-2.56,4
1,6501652326000,-7.31,15.05,14.82,4
1,6501702344000,-9.28,12.26,-0.15,4
1,6501762311000,-6.47,11.14,-0.11,4
1,6501812268000,-13.53,12.26,-4.1,4
1,6501862348000,-11.73,11.22,-10.92,4
1,6501912336000,-7.27,15.85,1.33,4
1,6501962323000,-11.88,10.04,3.21,4
1,6502012281000,-7.35,0.65,-6.85,4
1,6502062330000,-7.01,-2.64,-0.34,4
1,6502112348000,-0.19,4.18,3.34,4
1,6502162336000,-1.73,6.36,0.15,4
1,6502212323000,-7.4,6.51,-1.57,4
1,6502262342000,-15.28,8.43,-2.22,4
1,6502312330000,-3.06,9.38,5.37,4
1,6502362348000,-14.86,7.74,3.72,4
1,6502412336000,-18.58,7.55,-1.08,4
1,6502462323000,-16.85,8.08,0.11,4
1,6502512342000,-6.85,14.44,3.76,4
1,6502562330000,4.99,10.34,11.41,4
1,6502612348000,1.27,7.08,0.89,4
1,6502662336000,1.42,2.49,5.9,4
1,6502712323000,-11.6,5.09,4.02,4
1,6502762342000,-18.81,19.19,-4.4,4
1,6502812330000,-10.5,10.12,5.18,4
1,6502862348000,-5.63,3.06,-0.15,4
1,6502912336000,-2.83,-1.31,-2.49,4
1,6502962323000,1.27,-1.73,-0.95,4
1,6503012250000,4.1,-1.46,1.42,4
1,6503062330000,0.34,1.99,0.46,4
1,6503112348000,-18.31,15.89,-3.06,4
1,6503162336000,-17.05,7.06,3.17,4
1,6503212354000,-19.15,8.08,4.71,4
1,6503262342000,-9.43,10.61,0.04,4
1,6503312330000,-0.89,12.72,6.13,4
1,6503362348000,4.48,11.6,7.93,4
1,6503412305000,-0.42,-0.34,-1.27,4
1,6503462323000,-14.94,4.44,1.61,4
1,6503512342000,-19.46,17.27,-2.37,4
1,6503562330000,-9.04,2.91,2.72,4
1,6503612317000,-5.28,-0.89,0.34,4
1,6503662336000,-1.8,-2.07,-3.34,4
1,6503712323000,3.3,-2.18,0.27,4
1,6503762342000,6.47,-0.08,3.21,4
1,6503812330000,1.33,0.89,-2.41,4
1,6503862348000,-19.42,17.62,-2.26,4
1,6503912366000,-16.59,8.69,2.6,4
1,6503962354000,-13.38,8.73,6.55,4
1,6504012281000,-7.35,11.45,1.69,4
1,6504062299000,-1.88,13.91,3.68,4
1,6504122358000,8.69,13.91,3.68,4
1,6504172284000,-0.42,1.38,0.34,4
1,6504222364000,-15.32,11.26,-2.37,4
1,6504272260000,-19.46,11.6,-1.84,4
1,6504322339000,-7.82,3.53,10.46,4
1,6504372327000,-5.18,1.14,-1.27,4
1,6504422345000,0.08,-0.8,-2.37,4
1,6504472333000,7.63,-1.08,-1.73,4
1,6504522321000,7.67,0.57,1.84,4
1,6504572370000,-4.33,4.02,-2.3,4
1,6504622327000,-19.61,16.04,2.07,4
1,6504672345000,-14.44,6.24,3.38,4
1,6504722364000,-13.17,6.17,0.57,4
1,6504772321000,-5.24,13.57,3.87,4
1,6504822339000,2.3,10.42,7.89,4
1,6504872358000,7.74,9.81,-0.42,4
1,6504922345000,-6.28,0.65,2.11,4
1,6504972333000,-17.35,14.82,-4.44,4
1,6505022321000,-16.59,8.5,0.99,4
1,6505072339000,-6.32,2.56,4.75,4
1,6505122327000,-4.86,-0.57,-0.99,4
1,6505172345000,-0.61,-1.33,-2.26,4
1,6505222333000,8.39,-2.37,1.73,4
1,6505272229000,4.79,1.84,-0.19,4
1,6505322339000,-10.11,9.92,-4.59,4
1,6505372327000,-19.61,14.37,4.9,4
1,6505422376000,-13.44,4.6,3.45,4
1,6505472364000,-12.45,5.75,-0.99,4
1,6505522321000,-6.7,13.06,5.67,4
1,6505572370000,3.06,10.92,3.91,4
1,6505622388000,9.3,9.51,1.18,4
1,6505672376000,-5.63,3.11,-0.53,4
1,6505722333000,-18.5,16.51,-3.3,4
1,6505772321000,-16.51,5.48,-0.65,4
1,6505822339000,-7.08,5.56,6.44,4
1,6505872327000,-5.13,-0.27,0.57,4
1,6505922315000,-0.53,-1.12,-4.52,4
1,6505972333000,9.15,-2.45,5.6,4
1,6506022321000,4.25,2.07,-0.89,4
1,6506072339000,-15.94,14.41,0.04,4
1,6506122327000,-17.16,10.0,1.33,4
1,6506172345000,-12.91,6.51,2.22,4
1,6506222333000,-13.76,7.86,-5.94,4
1,6506272321000,-10.99,2.72,3.21,4
1,6506322339000,-1.76,7.46,6.24,4
1,6506372327000,2.56,9.19,5.01,4
1,6506422315000,-0.91,6.97,-2.03,4
1,6506472333000,-7.63,6.74,-0.91,4
1,6506522321000,-17.27,8.28,-0.27,4
1,6506572339000,-17.16,3.79,-2.37,4
1,6506622327000,-9.04,1.42,-0.69,4
1,6506672345000,-5.6,6.28,3.53,4
1,6506722333000,-4.94,3.45,-0.11,4
1,6506772321000,-4.37,-2.56,-2.64,4
1,6506822339000,-5.63,-2.53,-1.61,4
1,6506872358000,-10.15,9.43,9.0,4
1,6506922345000,-11.14,16.47,-5.28,4
1,6506972333000,-5.01,2.37,-0.76,4
1,6507022321000,-12.07,6.24,-0.5,4
1,6507072339000,-7.16,3.34,1.61,4
1,6507122327000,-9.28,3.72,1.54,4
1,6507172345000,-9.19,2.3,-2.18,4
1,6507222333000,-8.16,0.93,-3.11,4
1,6507272321000,-9.23,3.57,8.85,4
1,6507322339000,-7.97,7.63,0.57,4
1,6507372327000,-8.85,8.2,-0.76,4
1,6507422345000,-6.55,10.76,7.16,4
1,6507472333000,-10.04,11.84,2.53,4
1,6507522321000,-8.35,11.37,0.27,4
1,6507572339000,-14.6,9.0,-4.99,4
1,6507622327000,-16.7,5.22,-5.52,4
1,6507672345000,-9.15,10.92,-5.01,4
1,6507722333000,-8.39,7.63,12.18,4
1,6507772321000,-8.12,5.86,-6.74,4
1,6507822309000,-6.82,-3.49,-1.18,4
1,6507872327000,-3.21,6.7,5.56,4
1,6507922345000,-3.76,5.94,-0.61,4
1,6507972333000,-4.14,0.04,-0.89,4
1,6508022351000,-10.8,8.47,-2.91,4
1,6508072339000,-12.87,13.1,7.25,4
1,6508122327000,1.14,2.6,3.38,4
1,6508172345000,-9.53,7.27,-0.11,4
1,6508222333000,-12.87,6.85,2.18,4
1,6508272321000,-9.3,6.47,2.76,4
1,6508322339000,-12.53,9.11,1.73,4
1,6508372327000,-9.77,5.86,-4.44,4
1,6508422345000,-8.39,9.04,7.82,4
1,6508472333000,-0.99,12.18,5.9,4
1,6508522321000,-2.91,9.15,1.18,4
1,6508572339000,-8.47,10.73,0.53,4
1,6508622327000,-19.04,3.53,2.98,4
1,6508672345000,-18.62,7.97,-5.94,4
1,6508722333000,-10.0,6.4,2.26,4
1,6508772321000,-6.02,1.76,1.12,4
1,6508822339000,-2.11,-2.79,-1.95,4
1,6508872327000,3.15,-2.83,1.31,4
1,6508922345000,4.56,3.06,-2.96,4
1,6508972333000,-12.03,11.18,2.34,4
1,6509022321000,-15.94,7.82,0.8,4
1,6509072309000,-9.49,5.98,4.71,4
1,6509122327000,-17.05,7.06,1.57,4
1,6509122327000,-17.05,7.06,1.57,4
1,6509192304000,-13.53,9.7,-6.66,4
1,6509242566000,-10.61,7.7,10.92,4
1,6509292371000,-2.45,10.76,5.22,4
1,6509342359000,2.3,6.4,-1.31,4
1,6509392347000,-0.72,9.66,-1.23,4
1,6509442334000,-12.64,6.74,4.99,4
1,6509492322000,-19.61,10.34,-1.88,4
1,6509542341000,-13.21,7.35,0.38,4
1,6509592359000,-9.49,5.63,2.56,4
1,6509642347000,-5.98,-2.41,-2.56,4
1,6509692334000,0.93,-2.56,-2.03,4
1,6509742322000,6.44,-2.37,3.49,4
1,6509792341000,1.38,3.99,-3.79,4
1,6509842328000,-18.43,15.24,1.42,4
1,6509892347000,-15.43,8.66,0.04,4
1,6509942395000,-8.43,4.48,4.29,4
1,6509992322000,-14.18,6.32,-0.69,4
1,6510042341000,-11.88,5.86,-3.26,4
1,6510092328000,-8.92,9.15,7.93,4
1,6510142347000,-1.5,10.34,3.34,4
1,6510192334000,3.6,10.31,0.04,4
1,6510242353000,-8.81,10.34,0.69,4
1,6510292341000,-19.42,1.46,5.33,4
1,6510342328000,-16.7,9.08,-3.87,4
1,6510392347000,-11.14,8.5,3.57,4
1,6510442334000,-9.89,3.53,1.18,4
1,6510492322000,-4.79,-2.6,-1.73,4
1,6510542371000,1.12,-3.17,-0.11,4
1,6510592359000,2.37,3.68,0.65,4
1,6510642377000,-14.56,18.24,-0.69,4
1,6510692365000,-2.83,0.38,2.22,4
1,6510742353000,-13.53,6.51,2.37,4
1,6510792341000,-9.58,5.48,0.72,4
1,6510842328000,-13.87,7.5,-1.14,4
1,6510892347000,-13.63,8.5,-8.31,4
1,6510942334000,-11.5,1.5,6.59,4
1,6510992322000,-7.74,8.85,4.86,4
1,6511042341000,1.38,8.89,3.02,4
1,6511092328000,-5.18,9.3,0.23,4
1,6511142347000,-10.08,6.44,0.93,4
1,6511192334000,-18.35,-0.99,4.75,4
1,6511242353000,-10.84,10.95,-2.37,4
1,6511292341000,-10.69,7.08,4.06,4
1,6511342328000,-7.5,2.72,-0.53,4
1,6511392347000,-3.83,-5.56,-2.91,4
1,6511442334000,2.3,-3.79,1.33,4
1,6511492322000,-1.53,8.5,-4.63,4
1,6511602124000,-8.08,1.69,2.03,4
1,6511602124000,-8.08,1.69,2.03,4
1,6511652234000,-12.56,6.93,2.56,4
1,6511702375000,-11.3,5.13,0.0,4
1,6511752332000,-13.44,7.63,-6.02,4
1,6511802320000,-11.99,4.6,-4.06,4
1,6511852338000,-10.31,7.59,11.6,4
1,6511902326000,-0.38,9.11,2.37,4
1,6511952375000,-2.26,9.77,1.18,4
1,6512002485000,-8.58,10.0,-0.95,4
1,6512052320000,-19.27,-0.57,7.89,4
1,6512102338000,-10.11,8.66,-5.28,4
1,6512152326000,-10.38,6.4,6.05,4
1,6512202344000,-7.31,5.63,-0.57,4
1,6512252332000,-4.21,-2.83,-2.83,4
1,6512302320000,0.38,-3.34,-0.61,4
1,6512352338000,-1.57,5.33,-1.95,4
1,6512402326000,-16.59,14.75,3.17,4
1,6512452344000,-1.38,-1.88,4.9,4
1,6512502301000,-15.83,8.35,1.57,4
1,6512552320000,-8.05,4.79,1.04,4
1,6512602338000,-10.76,5.09,-0.38,4
1,6512652326000,-14.18,8.62,-8.2,4
1,6512702344000,-12.6,0.31,3.83,4
1,6512752362000,-9.04,9.11,6.09,4
1,6512802320000,-0.46,10.88,3.68,4
1,6512852369000,-4.86,7.74,1.23,4
1,6512902356000,-8.01,6.66,-3.26,4
1,6512952375000,-15.24,4.1,-5.75,4
1,6513002332000,-15.51,0.76,0.19,4
1,6513052411000,-7.82,1.14,5.63,4
1,6513102369000,-5.71,1.69,1.04,4
1,6513152326000,-2.49,2.34,-0.27,4
1,6513202344000,-5.28,1.65,-3.06,4
1,6513252332000,-7.86,-2.03,1.69,4
1,6513302320000,-15.98,9.3,3.15,4
1,6513352338000,-9.04,10.34,-1.88,4
1,6513402326000,-3.68,5.09,-1.57,4
1,6513452344000,-13.21,8.28,-0.53,4
1,6513502332000,-5.63,3.57,1.12,4
1,6513552320000,-6.55,1.54,0.89,4
1,6513602338000,-9.96,2.53,-0.27,4
1,6513652326000,-10.99,1.92,-2.72,4
1,6513702344000,-9.08,1.5,-2.03,4
1,6513752332000,-9.53,1.46,2.45,4
1,6513802320000,-8.96,4.33,-0.11,4
1,6513852338000,-8.85,9.72,4.9,4
1,6513902295000,-10.72,9.92,0.46,4
1,6513952344000,-7.97,12.53,1.27,4
1,6514002637000,-6.51,11.11,1.73,4
1,6514052320000,-15.17,7.63,-4.63,4
1,6514102338000,-15.09,3.91,-5.24,4
1,6514152326000,-9.77,9.62,-0.99,4
1,6514202314000,-11.99,9.62,5.22,4
1,6514252332000,-10.04,1.14,-6.24,4
1,6514302320000,-6.4,-1.46,0.38,4
1,6514352338000,-3.83,4.6,3.83,4
1,6514402326000,-2.45,8.2,3.6,4
1,6514452344000,-2.49,1.18,-0.72,4
1,6514502301000,-6.78,-2.34,-0.76,4
1,6514552320000,-17.39,15.51,3.02,4
1,6514602338000,-0.61,4.1,4.4,4
1,6514652326000,-10.23,5.9,0.34,4
1,6514702344000,-8.2,4.21,2.3,4
1,6514752332000,-6.66,5.75,1.88,4
1,6514802320000,-6.28,6.85,3.41,4
1,6514852338000,-8.39,7.7,3.64,4
1,6514902295000,-13.57,7.7,-5.41,4
1,6514952344000,-13.44,5.13,-1.14,4
1,6515002301000,-10.27,11.92,8.81,4
1,6515052320000,-2.91,9.66,2.49,4
1,6515102338000,-4.33,8.96,4.1,4
1,6515152326000,-7.65,5.9,-0.15,4
1,6515202344000,-10.8,3.99,1.33,4
1,6515252301000,-16.63,10.76,-1.76,4
1,6515302320000,-16.51,10.5,2.56,4
1,6515352338000,-8.31,2.64,0.65,4
1,6515402326000,-5.01,-3.57,-3.87,4
1,6515452344000,1.61,-3.87,-1.23,4
1,6515502332000,6.7,-1.73,2.26,4
1,6515552320000,0.84,5.37,-4.02,4
1,6515602399000,-18.39,16.17,-1.14,4
1,6515652356000,-14.94,7.67,1.04,4
1,6515702344000,-17.92,5.18,10.23,4
1,6515752332000,-15.05,6.82,-2.14,4
1,6515802320000,-9.38,7.74,-5.75,4
1,6515852338000,-4.86,8.16,10.57,4
1,6515902326000,1.38,9.11,3.95,4
1,6515952344000,3.21,10.0,-2.3,4
1,6516002546000,-4.44,3.49,0.42,4
1,6516052320000,-18.92,13.82,1.04,4
1,6516102338000,-17.27,7.74,-2.11,4
1,6516152326000,-8.5,5.05,3.95,4
1,6516202344000,-6.32,-1.76,-0.27,4
1,6516252332000,-0.38,-1.53,-4.14,4
1,6516302320000,7.35,-2.64,4.06,4
1,6516352338000,4.86,2.26,-0.27,4
1,6516402326000,-8.2,8.5,-0.76,4
1,6516452344000,-19.57,11.56,3.15,4
1,6516502332000,-13.67,5.22,2.53,4
1,6516552289000,-15.89,5.22,-2.37,4
1,6516602338000,-12.68,5.67,2.3,4
1,6516652295000,-4.1,12.37,9.72,4
1,6516702283000,3.79,8.77,0.38,4
1,6516752332000,5.75,5.6,-0.72,4
1,6516802320000,-8.58,5.75,3.6,4
1,6516852369000,-19.61,17.58,-3.6,4
1,6516902326000,-11.92,2.22,3.83,4
1,6516952375000,-6.82,0.19,1.54,4
1,6517002332000,-3.41,-2.56,-1.57,4
1,6517052320000,1.54,-1.23,0.08,4
1,6517102338000,7.89,2.53,4.25,4
1,6517152326000,-0.91,9.23,-0.84,4
1,6517202344000,-19.27,12.49,0.72,4
1,6517252332000,-19.57,5.75,2.03,4
1,6517302320000,-17.5,2.72,1.23,4
1,6517352338000,-11.41,6.85,-3.36,4
1,6517402326000,-7.7,16.04,8.66,4
1,6517452344000,2.87,12.34,5.33,4
1,6517502332000,6.36,8.58,-0.08,4
1,6517552320000,-5.13,1.88,-3.06,4
1,6517602338000,-19.46,10.12,1.46,4
1,6517652326000,-16.02,9.04,-0.57,4
1,6517702344000,-6.36,8.81,3.99,4
1,6517752332000,-6.89,0.04,0.23,4
1,6517802320000,-2.91,-2.79,-2.83,4
1,6517852338000,5.24,-3.15,1.27,4
1,6517902326000,6.44,1.95,-0.38,4
1,6517952344000,-5.82,7.35,-0.08,4
1,6518002912000,-19.61,13.99,3.72,4
1,6518052320000,-14.79,6.47,1.95,4
1,6518102338000,-16.51,7.25,2.53,4
1,6518152326000,-13.1,5.37,-3.68,4
1,6518202497000,-5.63,10.76,6.82,4
1,6518252424000,2.26,10.19,4.63,4
1,6518302320000,5.13,9.51,-0.42,4
1,6518352369000,-2.64,3.21,-0.84,4
1,6518402326000,-16.63,11.3,2.07,4
1,6518452344000,-19.04,8.85,-2.14,4
1,6518502332000,-9.47,6.36,3.64,4
1,6518552320000,-8.01,1.8,1.27,4
1,6518602338000,-3.68,-1.53,-1.95,4
1,6518652326000,2.18,-1.31,0.08,4
1,6518702344000,8.01,4.9,-1.88,4
1,6518752332000,-3.02,6.47,0.08,4
1,6518802320000,-19.27,14.25,1.69,4
1,6518852338000,-12.56,3.21,4.86,4
1,6518902326000,-14.63,6.02,1.84,4
1,6518952344000,-12.6,8.08,-8.62,4
1,6519022321000,-7.01,5.24,7.67,4
1,6519072278000,-0.91,6.55,1.5,4
1,6519122358000,-3.53,8.96,3.3,4
1,6519172315000,-2.83,9.96,-0.65,4
1,6519222364000,-10.99,7.59,0.65,4
1,6519272321000,-19.5,4.48,-4.52,4
1,6519322309000,-11.99,-0.65,-0.08,4
1,6519372327000,-6.09,2.53,0.76,4
1,6519422345000,-4.67,6.51,2.98,4
1,6519472333000,-4.52,2.22,-1.08,4
1,6519522321000,-7.59,-1.84,-0.57,4
1,6519572339000,-7.27,-3.21,3.91,4
1,6519622327000,-12.37,7.82,12.22,4
1,6519672345000,-13.06,15.64,-5.01,4
1,6519722333000,-4.82,4.4,-0.34,4
1,6519772351000,-10.88,4.71,-1.31,4
1,6519822339000,-8.31,4.67,0.95,4
1,6519872327000,-6.89,0.84,3.34,4
1,6519922345000,-11.11,2.11,2.96,4
1,6519972333000,-7.4,5.24,-0.57,4
1,6520022290000,-5.82,5.43,-2.87,4
1,6520072461000,-7.31,5.09,-1.08,4
1,6520122327000,-9.72,3.79,-0.38,4
1,6520172345000,-8.12,1.5,-1.27,4
1,6520222303000,-9.23,1.04,1.23,4
1,6520272260000,-11.22,5.43,2.15,4
1,6520322339000,-8.81,14.86,5.75,4
1,6520372358000,-7.97,11.14,-1.84,4
1,6520422345000,-9.15,9.58,0.23,4
1,6520472333000,-13.06,7.74,-4.06,4
1,6520522321000,-12.79,5.28,-5.6,4
1,6520572339000,-10.65,8.43,-0.23,4
1,6520622327000,-11.14,5.71,4.02,4
1,6520672345000,-8.62,2.79,-3.45,4
1,6520722333000,-6.47,0.27,-0.23,4
1,6520772321000,-2.45,6.93,5.71,4
1,6520822339000,-2.72,6.4,0.61,4
1,6520872327000,-4.33,8.89,1.61,4
1,6520922345000,-15.36,-4.1,1.73,4
1,6520972364000,-9.11,7.7,-2.34,4
1,6521022321000,-13.14,11.41,8.12,4
1,6521072339000,-6.89,4.9,1.65,4
1,6521122297000,-4.9,3.57,-0.57,4
1,6521172345000,-8.31,6.89,-0.3,4
1,6521222303000,-6.4,7.82,4.63,4
1,6521272229000,-7.35,5.94,3.3,4
1,6521322339000,-13.59,6.74,-1.69,4
1,6521372327000,-11.22,7.01,-4.94,4
1,6521422345000,-9.23,10.12,9.89,4
1,6521472333000,-1.84,9.85,4.52,4
1,6521522290000,-1.92,9.28,0.31,4
1,6521572705000,-5.09,12.15,-0.46,4
1,6521622327000,-17.67,5.13,6.66,4
1,6521672345000,-19.61,10.23,-4.94,4
1,6521722333000,-14.4,8.89,2.37,4
1,6521772321000,-8.62,3.02,1.04,4
1,6521822339000,-5.33,-2.6,-2.41,4
1,6521872358000,2.68,-3.83,-2.07,4
1,6521922345000,11.96,1.18,4.63,4
1,6521972333000,-0.76,7.59,-3.87,4
1,6522022321000,-18.5,13.87,4.79,4
1,6522072339000,-11.11,4.52,3.15,4
1,6522122327000,-12.3,6.4,0.8,4
1,6522172376000,-15.6,6.24,-1.18,4
1,6522222303000,-15.28,6.59,-1.8,4
1,6522272321000,-10.34,9.58,7.06,4
1,6522322309000,-1.04,14.1,3.95,4
1,6522372327000,6.09,7.5,2.37,4
1,6522422345000,-1.38,5.71,-1.27,4
1,6522472333000,-17.88,5.28,3.53,4
1,6522522321000,-18.58,12.68,-1.88,4
1,6522572339000,-8.92,9.51,3.02,4
1,6522622327000,-7.89,4.63,1.31,4
1,6522672345000,-5.28,-3.83,-2.98,4
1,6522722333000,2.68,-3.76,-3.36,4
1,6522772321000,7.5,-3.98,4.52,4
1,6522822339000,-2.37,6.51,-4.44,4
1,6522872327000,-19.19,13.21,4.44,4
1,6522922345000,-14.14,4.4,1.27,4
1,6522972333000,-18.58,6.44,3.38,4
1,6523022321000,-14.4,5.71,-0.69,4
1,6523072614000,-9.43,9.51,-0.08,4
1,6523122327000,0.27,14.14,6.93,4
1,6523172345000,5.28,12.37,3.76,4
1,6523222333000,-2.3,2.72,-2.45,4
1,6523272321000,-17.46,10.8,0.95,4
1,6523322339000,-19.23,8.43,-4.14,4
1,6523372358000,-10.46,2.22,2.3,4
1,6523422345000,-6.55,-3.45,1.27,4
1,6523472333000,-0.5,-2.6,-2.07,4
1,6523522290000,8.96,-2.6,4.63,4
1,6523572309000,4.75,1.88,0.19,4
1,6523622327000,-4.9,3.68,-5.37,4
1,6523672345000,-19.61,13.76,7.67,4
1,6523722333000,-14.67,5.48,1.5,4
1,6523772321000,-12.49,3.41,3.87,4
1,6523822370000,-5.67,11.75,4.86,4
1,6523872297000,-0.3,13.8,0.95,4
1,6523922345000,7.63,9.81,5.13,4
1,6523972333000,-11.6,1.54,3.11,4
1,6524022321000,-19.61,15.51,-7.89,4
1,6524022321000,-19.61,15.51,-7.89,4
1,6524092298000,-12.41,2.6,3.76,4
1,6524142316000,-4.14,-1.18,1.14,4
1,6524192334000,0.95,-0.95,-2.03,4
1,6524242322000,10.95,-0.99,4.37,4
1,6524292341000,5.67,1.42,-1.23,4
1,6524342328000,-12.83,11.8,-5.33,4
1,6524392347000,-19.15,9.34,7.16,4
1,6524442334000,-14.9,0.99,6.74,4
1,6524492322000,-12.41,6.55,-4.71,4
1,6524542341000,-5.56,10.99,5.24,4
1,6524592328000,0.65,11.73,6.17,4
1,6524642347000,6.28,11.41,1.42,4
1,6524692334000,-5.94,2.76,-1.27,4
1,6524742322000,-19.27,15.94,-2.56,4
1,6524792341000,-15.43,3.41,2.76,4
1,6524842328000,-5.48,4.4,4.33,4
1,6524892347000,-4.21,-1.65,-1.38,4
1,6524942334000,-0.11,-1.8,-1.76,4
1,6524992322000,7.86,-1.27,-0.3,4
1,6525042341000,6.74,1.04,-0.95,4
1,6525092328000,-15.05,14.1,-8.08,4
1,6525142347000,-18.58,10.19,3.26,4
1,6525192334000,-12.22,2.3,8.43,4
1,6525242353000,-14.48,4.94,2.26,4
1,6525302320000,-8.08,5.98,-3.83,4
1,6525352338000,-0.15,5.83,5.05,4
1,6525402326000,-1.99,8.73,3.83,4
1,6525452344000,-2.26,5.56,-1.69,4
1,6525502332000,-7.55,4.67,-2.14,4
1,6525552350000,-18.16,7.5,-2.37,4
1,6525602338000,-16.28,2.53,-0.27,4
1,6525652326000,-8.08,0.72,0.93,4
1,6525702375000,-6.24,4.02,2.26,4
1,6525752332000,-4.37,3.3,-0.34,4
1,6525802320000,-4.29,0.31,-1.95,4
1,6525852338000,-7.04,-1.14,-0.46,4
1,6525902356000,-9.47,0.95,6.09,4
1,6525952344000,-12.72,10.34,3.26,4
1,6526002729000,-6.82,8.31,-2.14,4
1,6526052320000,-13.44,7.31,-1.99,4
1,6526102369000,-7.7,2.79,-0.95,4
1,6526152326000,-4.4,1.31,0.27,4
1,6526202344000,-9.49,3.79,2.22,4
1,6526252301000,-10.15,3.64,-0.91,4
1,6526302320000,-8.5,2.87,-2.14,4
1,6526352338000,-7.7,2.03,-0.69,4
1,6526402295000,-9.81,-0.23,0.08,4
1,6526472303000,-9.81,1.73,-0.15,4
1,6526522260000,-9.72,6.05,0.95,4
1,6526572339000,-9.89,12.37,4.21,4
1,6526622297000,-9.62,11.26,1.12,4
1,6526672345000,-8.35,8.35,0.15,4
1,6526722333000,-13.29,8.12,-2.22,4
1,6526772290000,-13.29,5.75,-8.05,4
1,6526822339000,-8.73,10.95,-3.45,4
1,6526872327000,-13.1,8.81,6.59,4
1,6526922345000,-10.38,3.17,-6.17,4
1,6526972333000,-8.39,-1.23,0.08,4
1,6527022290000,-4.21,3.17,4.21,4
1,6527072309000,0.0,4.86,1.88,4
1,6527122297000,-2.07,5.98,-1.18,4
1,6527172376000,-5.48,0.04,5.6,4
1,6527222333000,-19.19,12.76,-2.37,4
1,6527272321000,-0.46,3.49,3.83,4
1,6527322339000,-7.59,8.69,1.84,4
1,6527372327000,-14.86,4.25,0.65,4
1,6527422345000,-16.97,4.63,-0.89,4
1,6527472333000,-17.24,10.76,0.93,4
1,6527522290000,-8.43,13.76,4.94,4
1,6527572309000,-2.26,8.62,6.32,4
1,6527622327000,0.53,7.93,5.79,4
1,6527672345000,3.41,10.69,-0.46,4
1,6527722333000,-5.6,2.91,1.18,4
1,6527772321000,-16.09,13.99,-3.45,4
1,6527822339000,-17.54,10.53,0.34,4
1,6527872327000,-10.15,7.21,4.21,4
1,6527922315000,-6.21,0.08,-2.18,4
1,6527972333000,-0.53,-0.57,-1.99,4
1,6528022290000,4.71,-1.84,-1.08,4
1,6528072309000,5.6,-0.76,-0.27,4
1,6528122327000,-0.5,1.76,-1.12,4
1,6528172376000,-19.0,17.24,-1.38,4
1,6528222333000,-15.36,9.08,3.68,4
1,6528272321000,-14.94,8.73,0.72,4
1,6528322339000,-11.3,9.72,-8.2,4
1,6528372327000,-5.67,12.34,11.75,4
1,6528422315000,2.98,15.24,8.28,4
1,6528472333000,2.11,8.62,-3.72,4
1,6528522290000,-7.27,2.83,-2.22,4
1,6528572309000,-19.5,14.21,-2.75,4
1,6528622327000,-13.76,8.05,5.9,4
1,6528672345000,-5.56,7.27,1.65,4
1,6528722333000,-4.25,-1.53,-1.88,4
1,6528772321000,1.31,-2.45,-6.24,4
1,6528822339000,5.75,-3.21,2.53,4
1,6528872327000,1.99,1.95,-0.38,4
1,6528922345000,-9.53,6.66,0.46,4
1,6528972364000,-18.43,13.14,2.83,4
1,6529022290000,-12.79,8.77,1.84,4
1,6529072309000,-16.04,8.35,-4.1,4
1,6529122327000,-10.27,8.12,4.9,4
1,6529172345000,-2.34,13.33,6.44,4
1,6529222333000,4.63,11.35,0.34,4
1,6529272321000,3.02,3.95,-1.31,4
1,6529322339000,-10.69,9.15,-0.42,4
1,6529372327000,-19.61,14.63,-1.73,4
1,6529422345000,-9.28,2.76,5.01,4
1,6529472333000,-6.78,-2.03,0.04,4
1,6529522351000,-1.08,-1.8,-5.48,4
1,6529572309000,8.85,-1.65,6.09,4
1,6529622327000,7.35,4.52,-0.34,4
1,6529672345000,-7.27,8.16,-2.45,4
1,6529722333000,-19.61,14.79,2.83,4
1,6529772321000,-18.39,3.38,6.4,4
1,6529822339000,-11.33,3.49,-1.23,4
1,6529872327000,-8.43,12.41,3.68,4
1,6529922345000,-0.19,12.6,4.44,4
1,6529972333000,7.16,13.33,2.91,4
1,6530022626000,-0.84,2.22,0.46,4
1,6530072309000,-16.78,10.08,-3.6,4
1,6530122327000,-18.85,13.67,-0.5,4
1,6530172345000,-7.5,6.17,5.28,4
1,6530222333000,-5.75,-0.42,0.95,4
1,6530272260000,-2.87,-2.07,-1.95,4
1,6530322339000,4.02,-1.8,1.08,4
1,6530372327000,8.81,2.22,-0.5,4
1,6530422345000,1.46,2.98,-2.6,4
1,6530422345000,1.46,2.98,-2.6,4
1,6530422345000,1.46,2.98,-2.6,4
1,6530533735000,-15.79,7.93,3.21,4
1,6530592328000,-14.6,4.44,1.76,4
1,6530642347000,-10.69,3.91,-3.02,4
1,6530692334000,-4.21,9.7,5.79,4
1,6530742322000,1.8,9.77,2.26,4
1,6530792341000,6.28,11.26,-0.61,4
1,6530842328000,-7.04,5.01,1.5,4
1,6530892347000,-19.04,16.89,0.65,4
1,6530942334000,-14.86,6.36,1.54,4
1,6530992322000,-8.73,3.3,2.53,4
1,6531042341000,-5.82,-1.46,-2.64,4
1,6531092328000,0.99,-2.22,-0.3,4
1,6531142347000,10.31,-0.19,2.22,4
1,6531192334000,6.85,3.49,-3.41,4
1,6531242353000,-16.7,16.47,-3.57,4
1,6531292341000,-16.4,9.15,2.37,4
1,6531342328000,-15.24,3.11,5.41,4
1,6531392347000,-18.39,4.75,0.15,4
1,6531442334000,-12.34,5.83,-6.47,4
1,6531492322000,-3.26,0.89,8.81,4
1,6531542310000,-4.52,7.25,1.42,4
1,6531592298000,0.46,5.79,2.37,4
1,6531642347000,-3.26,5.98,0.08,4
1,6531692334000,-13.87,9.89,-1.31,4
1,6531742322000,-13.29,4.33,-0.57,4
1,6531792341000,-11.73,0.0,-0.11,4
1,6531842328000,-8.43,2.76,1.27,4
1,6531892347000,-11.18,7.21,5.41,4
1,6531942334000,-11.14,6.85,2.76,4
1,6531992292000,-3.49,2.11,-1.27,4
1,6532042341000,-1.31,-1.5,1.8,4
1,6532092328000,-6.36,-0.46,0.76,4
1,6532142347000,-7.86,-1.14,3.15,4
1,6532192334000,-9.7,3.72,2.11,4
1,6532242322000,-11.33,8.01,-0.08,4
1,6532292371000,-6.21,2.34,3.83,4
1,6532342328000,-10.99,0.27,4.48,4
1,6532392347000,-15.75,0.8,-5.71,4
1,6532442334000,-7.5,-1.42,-2.6,4
1,6552942304000,-0.15,9.15,-0.34,0
1,6552992292000,0.11,9.19,2.76,0
1,6553042310000,-4.06,7.4,4.02,0
1,6553092298000,-2.87,7.93,3.21,0
1,6553142347000,-0.19,10.04,4.82,0
1,6553192273000,-0.19,11.37,4.63,0
1,6553242292000,-1.73,9.15,2.91,0
1,6553292310000,-3.3,5.48,-2.07,0
1,6553342298000,-5.05,16.21,5.98,0
1,6553392316000,-1.12,7.35,-1.38,0
1,6553442304000,2.56,8.43,-2.87,0
1,6553492292000,-3.15,12.22,3.41,0
1,6553542310000,-5.43,7.7,3.15,0
1,6553592298000,-3.87,7.06,2.91,0
1,6553642316000,-1.53,9.3,2.07,0
1,6553692304000,2.45,9.77,1.73,0
1,6553742292000,0.57,9.28,0.84,0
1,6553792310000,0.08,9.72,2.22,0
1,6553842267000,-2.26,9.72,2.03,0
1,6553892347000,-1.46,9.81,2.15,0
1,6553942304000,0.27,12.57,5.37,0
1,6553992261000,-3.06,13.18,6.47,0
1,6554042432000,-6.05,8.66,-0.04,0
1,6554092328000,-5.43,7.21,-1.12,0
1,6554142316000,-3.49,7.16,0.65,0
1,6554192304000,-4.33,3.91,1.76,0
1,6554242292000,-3.36,5.63,1.84,0
1,6554292310000,-0.61,11.69,4.86,0
1,6554342298000,0.84,14.06,1.57,0
1,6554392316000,0.11,6.17,3.02,0
1,6554442304000,-5.24,7.01,5.13,0
1,6554492292000,-0.53,12.53,0.5,0
1,6554542310000,2.49,19.23,8.89,0
1,6554592298000,-4.63,9.47,-5.2,0
1,6554642316000,-4.86,5.52,-2.6,0
1,6554692304000,-0.3,12.03,5.98,0
1,6554742292000,4.99,12.91,7.59,0
1,6554792310000,-1.95,10.8,6.74,0
1,6554842298000,-2.56,14.56,0.31,0
1,6554892316000,-2.6,8.96,-3.3,0
1,6554942304000,-3.49,5.13,-4.94,0
1,6554992292000,-4.63,3.76,3.76,0
1,6555042310000,-5.28,3.64,1.38,0
1,6555092328000,-2.96,13.76,5.41,0
1,6555142316000,3.49,14.56,4.67,0
1,6555192304000,-1.46,2.56,1.69,0
1,6555242292000,-2.6,8.66,-2.34,0
1,6555292310000,1.31,19.57,12.72,0
1,6555342359000,-4.99,13.06,-4.33,0
1,6555392408000,-6.59,6.97,-6.17,0
1,6555442304000,-0.15,13.8,7.93,0
1,6555492292000,6.7,14.02,8.96,0
1,6555542310000,-2.68,7.5,5.71,0
1,6555592298000,-4.75,3.64,-3.3,0
1,6555642316000,-2.22,4.29,-4.75,0
1,6555692304000,-3.6,14.18,-3.68,0
1,6555742292000,-3.49,3.6,5.52,0
1,6555792310000,-8.08,7.82,3.06,0
1,6555842298000,-1.31,13.82,2.96,0
1,6555892347000,5.83,7.86,9.04,0
1,6555942304000,-0.65,13.18,2.87,0
1,6555992261000,-7.27,19.0,1.65,0
1,6556042310000,-4.4,4.33,-3.36,0
1,6556092298000,-1.99,9.19,1.46,0
1,6556142316000,4.21,15.66,8.12,0
1,6556192304000,-1.5,9.58,7.5,0
1,6556242292000,-4.94,7.08,-0.72,0
1,6556292310000,-4.56,11.69,-1.8,0
1,6556342298000,-5.33,5.33,-2.18,0
1,6556392316000,-2.22,1.08,1.69,0
1,6556442304000,-3.02,9.96,-2.37,0
1,6556492292000,1.33,16.86,3.17,0
1,6556542310000,4.18,5.9,12.83,0
1,6556592298000,0.0,15.24,-3.76,0
1,6556642347000,-7.82,16.59,8.24,0
1,6556692304000,-3.76,4.71,-3.06,0
1,6556742292000,3.41,15.4,0.5,0
1,6556799482000,4.29,13.48,12.76,0
1,6556799482000,4.29,13.48,12.76,0
1,6556852308000,-5.48,5.13,-0.04,0
1,6556902326000,-1.61,3.34,-3.02,0
1,6556952344000,-3.68,11.37,-4.79,0
1,6557002332000,-6.09,5.71,1.61,0
1,6557052320000,-4.59,5.86,2.3,0
1,6557102338000,-3.87,16.4,-0.15,0
1,6557152326000,4.86,9.08,8.5,0
1,6557202344000,1.99,10.38,1.54,0
1,6557252332000,-4.75,18.09,10.08,0
1,6557302350000,-4.71,11.03,-1.53,0
1,6557352338000,-2.11,2.37,-4.9,0
1,6557402326000,-3.3,11.07,-2.72,0
1,6557452344000,8.62,16.66,12.34,0
1,6557502332000,-3.76,10.15,2.64,0
1,6557552320000,-8.62,5.67,0.57,0
1,6557602369000,-5.79,11.14,-4.4,0
1,6557652387000,-4.86,3.72,-0.8,0
1,6557702344000,-3.6,3.21,0.46,0
1,6557752393000,-5.37,11.35,-1.18,0
1,6557802320000,-2.49,18.77,-2.64,0
1,6557852338000,4.82,15.28,3.34,0
1,6557902387000,1.08,10.92,0.61,0
1,6557952344000,-8.01,15.55,-0.99,0
1,6558002790000,-9.85,13.53,2.49,0
1,6558052320000,-5.75,5.37,-1.04,0
1,6558102643000,-7.12,4.94,-2.49,0
