user-id,timestamp,accX,accY,accZ,ActivityEncoded
2,9903902326000,-3.21,2.41,-0.42,5
2,9903952344000,-2.72,3.11,-0.76,5
2,9904002637000,-3.79,6.55,0.57,5
2,9904052350000,-3.26,15.32,-1.65,5
2,9904102338000,-7.08,14.63,2.53,5
2,9904152326000,-9.92,10.46,-0.46,5
2,9904202344000,-10.38,10.84,-8.05,5
2,9904252332000,-4.63,7.31,-4.21,5
2,9904302320000,0.42,8.5,-5.43,5
2,9904352308000,0.19,5.75,-5.37,5
2,9904402326000,-3.34,2.49,-0.38,5
2,9904452314000,-3.36,4.99,3.72,5
2,9904502332000,-1.5,11.22,3.53,5
2,9904552289000,-6.21,13.76,-1.08,5
2,9904602338000,-5.09,9.66,-0.65,5
2,9904652295000,-5.41,13.02,-1.95,5
2,9904702344000,-4.94,10.73,-3.41,5
2,9904752332000,-6.28,7.31,-6.63,5
2,9904802350000,-8.69,4.48,-3.98,5
2,9904852308000,-5.13,4.48,6.93,5
2,9904902326000,-2.75,4.86,-1.14,5
2,9904952344000,-1.88,3.79,-1.18,5
2,9905002302000,-1.88,10.53,-1.65,5
2,9905052289000,-11.56,18.5,2.41,5
2,9905102338000,-7.59,9.81,2.56,5
2,9905152326000,-7.08,11.54,-8.47,5
2,9905202436000,-4.94,8.92,-7.63,5
2,9905252332000,-0.19,7.35,-3.98,5
2,9905302289000,0.04,5.13,-3.53,5
2,9905352338000,-3.15,3.15,-1.53,5
2,9905402295000,-5.09,5.79,3.06,5
2,9905452314000,-1.73,10.12,4.14,5
2,9905502332000,-5.48,11.3,-2.11,5
2,9905552289000,-6.74,11.6,-2.72,5
2,9905602308000,-4.21,13.95,-0.38,5
2,9905652295000,-5.86,14.21,-2.91,5
2,9905702619000,-5.86,6.89,-5.6,5
2,9905752332000,-6.47,2.34,-4.4,5
2,9905802289000,-5.9,1.33,3.95,5
2,9905852338000,-3.6,3.3,-0.8,5
2,9905902326000,-3.76,5.37,-0.84,5
2,9905952314000,-4.99,12.57,0.89,5
2,9906002607000,-5.01,13.1,-0.95,5
2,9906052320000,-9.47,10.53,0.19,5
2,9906102369000,-7.63,9.04,-3.21,5
2,9906152357000,-9.28,9.28,-6.36,5
2,9906202375000,-3.72,6.51,-3.21,5
2,9906252332000,-0.95,9.19,-5.41,5
2,9906309125000,-1.12,6.44,-5.01,5
2,9906309125000,-1.12,6.44,-5.01,5
2,9906362897000,-2.11,4.06,-0.08,5
2,9906412519000,-1.76,6.4,5.05,5
2,9906463209000,-5.09,11.96,3.41,5
2,9906512769000,-5.13,12.53,-2.64,5
2,9906562360000,-4.79,10.8,-2.53,5
2,9906612897000,-4.4,13.02,-2.03,5
2,9906662519000,-6.05,8.85,-3.98,5
2,9906713087000,-7.08,5.79,-6.47,5
2,9906762678000,-9.66,3.99,0.89,5
2,9906813306000,-2.45,4.48,1.95,5
2,9906872266000,-2.45,4.1,-1.69,5
2,9906932325000,-3.95,8.58,0.72,5
2,9906982313000,-6.55,15.21,-1.04,5
2,9907032300000,-9.38,10.65,-1.61,5
2,9907082319000,-11.8,9.77,-6.93,5
2,9907132306000,-6.59,7.35,-4.29,5
2,9907182294000,-1.14,8.05,-2.07,5
2,9907232313000,1.5,9.7,-6.47,5
2,9907282331000,-0.38,4.1,-4.14,5
2,9907332349000,-1.38,3.87,0.69,5
2,9907382337000,-4.86,6.66,5.67,5
2,9907432294000,-4.82,11.6,0.84,5
2,9907482313000,-5.67,12.53,-3.17,5
2,9907532300000,-6.63,11.56,-0.65,5
2,9907582319000,-4.56,13.25,-1.92,5
2,9907632306000,-6.17,9.19,-5.71,5
2,9907682294000,-7.16,4.9,-6.7,5
2,9907732618000,-7.35,2.64,1.46,5
2,9907782300000,-2.53,3.41,1.88,5
2,9907832319000,-2.96,4.33,-0.99,5
2,9907882306000,-3.98,9.58,1.04,5
2,9907932294000,-4.82,14.71,-1.8,5
2,9907982343000,-8.54,12.07,0.08,5
2,9908032300000,-10.27,9.66,-2.75,5
2,9908082319000,-9.04,9.89,-6.47,5
2,9908132337000,-3.49,7.08,-3.11,5
2,9908182294000,0.19,8.47,-5.86,5
2,9908232313000,-0.08,5.67,-5.6,5
2,9908282331000,-1.92,3.99,-1.38,5
2,9908332319000,-2.75,5.67,3.34,5
2,9908382337000,-3.6,11.11,3.87,5
2,9908432355000,-5.9,12.26,-0.04,5
2,9908482374000,-4.99,11.6,-1.46,5
2,9908532361000,-3.64,13.1,-1.84,5
2,9908582380000,-4.99,10.53,-2.41,5
2,9908632398000,-6.89,7.08,-7.35,5
2,9908682355000,-8.39,3.83,-4.94,5
2,9908732343000,-4.56,3.72,6.02,5
2,9908782361000,-2.64,4.44,-1.08,5
2,9908832380000,-3.02,5.94,-2.11,5
2,9908882337000,-3.34,13.76,1.23,5
2,9908932355000,-5.56,13.4,1.33,5
2,9908982374000,-9.3,10.19,-1.92,5
2,9909032361000,-8.81,9.58,-4.18,5
2,9909082380000,-6.97,8.35,-5.37,5
2,9909132368000,-2.68,7.55,-3.15,5
2,9909182355000,-0.3,9.11,-6.02,5
2,9909232587000,-0.69,5.37,-4.02,5
2,9909282361000,-3.76,3.38,0.19,5
2,9909332380000,-3.3,7.35,4.99,5
2,9909382368000,-4.21,12.37,1.61,5
2,9909432355000,-4.63,10.5,-1.33,5
2,9909482374000,-4.9,11.6,-1.69,5
2,9909532361000,-4.71,13.87,-1.92,5
2,9909582380000,-6.17,9.3,-3.79,5
2,9909632368000,-7.55,5.6,-6.85,5
2,9909682355000,-7.89,2.3,1.8,5
2,9909732343000,-2.6,2.98,1.12,5
2,9909782361000,-3.26,3.76,-2.11,5
2,9909832380000,-5.13,8.58,-0.42,5
2,9909882368000,-4.86,16.09,1.46,5
2,9909932355000,-7.25,11.92,-0.23,5
2,9909982374000,-9.0,9.34,-2.56,5
2,9910032361000,-8.62,10.04,-5.67,5
2,9910082380000,-4.52,7.16,-3.91,5
2,9910132368000,-0.95,8.39,-4.06,5
2,9910182355000,-0.04,6.74,-5.24,5
2,9910232343000,-1.8,3.38,-2.18,5
2,9910282331000,-3.57,4.9,1.42,5
2,9910332349000,-3.41,10.42,4.6,5
2,9910382337000,-6.85,12.95,0.8,5
2,9910432325000,-5.09,10.27,-1.61,5
2,9910482343000,-4.25,11.88,-3.26,5
2,9910532331000,-5.52,11.18,-3.6,5
2,9910582349000,-6.63,7.7,-6.09,5
2,9910632337000,-9.43,4.71,-4.18,5
2,9910682325000,-3.53,3.17,3.72,5
2,9910732313000,-2.22,5.56,1.8,5
2,9910782331000,-4.14,5.9,-2.07,5
2,9910832349000,-4.48,9.08,-1.95,5
2,9910882337000,-4.56,14.18,-0.08,5
2,9910932325000,-9.72,11.18,3.17,5
2,9910982374000,-10.15,10.73,-6.09,5
2,9911032331000,-7.21,8.77,-6.51,5
2,9911082349000,-1.65,7.4,-3.21,5
2,9911132368000,0.31,8.08,-3.36,5
2,9911202405000,-0.34,4.86,-3.36,5
2,9911252302000,-1.8,5.28,-0.8,5
2,9911302350000,-4.37,9.66,8.47,5
2,9911352277000,-6.59,12.07,1.14,5
2,9911402295000,-4.14,11.6,-3.3,5
2,9911452314000,-1.57,13.33,-3.17,5
2,9911502302000,-6.05,11.92,-3.21,5
2,9911552289000,-8.01,7.93,-5.86,5
2,9911602308000,-10.53,3.15,-1.23,5
2,9911652295000,-4.18,2.49,1.33,5
2,9911702314000,-2.34,4.21,-0.84,5
2,9911752332000,-2.49,6.05,-0.69,5
2,9911802289000,-3.41,12.3,0.76,5
2,9911852308000,-5.63,13.8,1.18,5
2,9911902295000,-7.27,11.35,-0.38,5
2,9911952314000,-8.2,11.11,-1.99,5
2,9912002515000,-9.89,8.31,-4.37,5
2,9912052289000,-4.06,5.24,-3.36,5
2,9912102308000,-1.12,8.39,-5.41,5
2,9912152295000,-0.72,6.89,-4.75,5
2,9912202344000,-2.14,3.76,-0.95,5
2,9912252332000,-3.41,6.32,4.6,5
2,9912302289000,-4.1,11.6,2.72,5
2,9912352308000,-5.24,12.91,-1.14,5
2,9912402357000,-4.75,11.54,-1.65,5
2,9912452314000,-3.87,13.18,-1.65,5
2,9912502302000,-5.18,9.34,-2.56,5
2,9912552289000,-6.78,6.09,-6.7,5
2,9912602308000,-8.24,3.6,-2.79,5
2,9912652295000,-3.17,5.24,4.71,5
2,9912702314000,-3.41,4.6,-0.99,5
2,9912752302000,-3.76,6.7,-0.57,5
2,9912802289000,-4.25,13.02,1.14,5
2,9912852308000,-6.55,13.67,0.15,5
2,9912902295000,-9.38,11.45,-0.53,5
2,9912952375000,-11.37,10.5,-6.21,5
2,9913002332000,-3.26,4.63,-2.87,5
2,9913052289000,0.53,7.21,-6.89,5
2,9913102308000,-1.42,7.55,-5.71,5
2,9913152326000,-4.48,5.18,-0.72,5
2,9913202314000,-0.8,6.02,5.75,5
2,9913252302000,-2.37,10.69,3.06,5
2,9913302320000,-5.9,11.65,-1.46,5
2,9913352308000,-5.33,11.8,-2.14,5
2,9913402295000,-2.26,13.57,-1.92,5
2,9913452314000,-5.41,11.65,-2.37,5
2,9913502302000,-6.97,6.47,-5.09,5
2,9913552289000,-12.18,1.38,0.76,5
2,9913602308000,-4.06,4.02,-0.89,5
2,9913652295000,-1.61,4.86,-1.33,5
2,9913702344000,-2.91,8.77,2.91,5
2,9913752332000,-3.26,12.72,3.11,5
2,9913802289000,-4.25,12.18,-5.13,5
2,9913852308000,-10.08,11.75,0.95,5
2,9913902295000,-9.77,10.57,0.53,5
2,9913952344000,-5.63,8.89,-7.25,5
2,9914002576000,0.53,7.82,-5.63,5
2,9914052289000,1.38,6.44,-6.24,5
2,9914102308000,-0.95,4.02,-2.3,5
2,9914152326000,-9.19,4.86,3.64,5
2,9914202314000,-3.06,8.73,2.45,5
2,9914252302000,-5.71,12.49,-0.3,5
2,9914302289000,-4.1,10.08,-1.76,5
2,9914352308000,-3.72,11.99,-0.23,5
2,9914402295000,-6.43,13.21,-3.02,5
2,9914452314000,-6.74,8.66,-7.27,5
2,9914502332000,-6.55,3.45,-5.63,5
2,9914552289000,-5.56,3.76,1.8,5
2,9914602308000,-3.76,7.97,2.76,5
2,9914652295000,-4.52,3.83,-1.65,5
2,9914702314000,-3.3,5.48,-0.69,5
2,9914752302000,-4.25,11.56,-0.3,5
2,9914802289000,-9.47,17.12,1.38,5
2,9914852308000,-9.38,10.38,-1.57,5
2,9914902295000,-6.66,7.67,-6.51,5
2,9914952314000,-2.64,7.46,-5.28,5
2,9915002302000,0.38,8.01,-5.05,5
2,9915052289000,-0.15,5.05,-3.72,5
2,9915102308000,-5.56,3.87,0.93,5
2,9915152295000,-5.63,6.21,5.43,5
2,9915202314000,-3.36,11.65,-0.76,5
2,9915252302000,-5.94,13.1,-2.56,5
2,9915302289000,-4.29,10.53,0.89,5
2,9915352308000,-4.99,12.76,-1.38,5
2,9915402295000,-7.46,10.92,-7.74,5
2,9915452314000,-7.74,5.41,-7.35,5
2,9915502302000,-6.78,1.95,2.03,5
2,9915552289000,-3.06,4.9,2.72,5
2,9915602308000,-2.87,5.94,-0.95,5
2,9915652295000,-4.1,7.31,1.46,5
2,9915702314000,-6.59,10.42,-2.03,5
2,9915752302000,-8.66,12.72,0.89,5
2,9915802289000,-8.39,11.54,-0.72,5
2,9915852308000,-9.04,10.57,-6.74,5
2,9915902295000,-3.41,6.66,-4.02,5
2,9915952314000,0.38,9.04,-4.1,5
2,9916002759000,0.19,6.51,-5.41,5
2,9916052289000,-3.79,2.91,-0.84,5
2,9916102308000,-4.4,5.24,4.29,5
2,9916152295000,-3.79,11.65,2.64,5
2,9916202314000,-6.21,11.37,-0.3,5
2,9916202314000,-6.21,11.37,-0.3,5
2,9916272291000,-4.52,10.42,-1.53,5
2,9916322278000,-6.32,13.95,-1.73,5
2,9916372266000,-6.74,9.89,-5.28,5
2,9916432325000,-7.27,5.05,-6.66,5
2,9916482313000,-4.37,2.26,2.3,5
2,9916532300000,-2.22,5.01,2.68,5
2,9916582319000,-4.86,6.89,-1.69,5
2,9916632306000,-5.79,9.85,1.5,5
2,9916682264000,-4.82,9.85,-0.23,5
2,9916732282000,-9.66,15.21,0.15,5
2,9916782300000,-9.81,11.69,-1.88,5
2,9916832319000,-7.97,7.12,-6.21,5
2,9916882306000,-2.41,4.86,-2.96,5
2,9916932264000,-1.65,9.08,-2.96,5
2,9916982313000,-0.42,7.44,-4.25,5
2,9917032300000,-1.88,3.11,-2.22,5
2,9917082319000,-2.56,5.98,4.71,5
2,9917132306000,-4.75,12.18,6.02,5
2,9917182325000,-5.37,10.65,0.11,5
2,9917232313000,-6.97,13.99,-1.5,5
2,9917282331000,-4.82,12.22,-2.3,5
2,9917332349000,-4.82,8.28,-4.9,5
2,9917382337000,-7.31,6.09,-7.86,5
2,9917432325000,-6.7,3.02,0.42,5
2,9917482343000,-3.6,5.75,3.99,5
2,9917532453000,-3.02,6.13,-1.76,5
2,9917582410000,-3.3,8.43,1.99,5
2,9917632337000,-6.4,11.73,-0.89,5
2,9917682325000,-8.12,14.1,-0.53,5
2,9917732313000,-7.25,10.46,0.5,5
2,9917782331000,-8.01,8.58,-7.4,5
2,9917832349000,-5.01,5.83,-5.24,5
2,9917882368000,-1.84,7.74,-2.37,5
2,9917932325000,-1.12,8.58,-3.76,5
2,9917982374000,-1.31,4.44,-2.96,5
2,9918032331000,-1.12,4.06,2.37,5
2,9918082349000,-3.83,11.54,7.59,5
2,9918132337000,-6.59,12.57,-0.46,5
2,9918182325000,-5.18,11.03,-3.6,5
2,9918232313000,-3.6,12.76,-2.53,5
2,9918282331000,-5.79,11.18,-3.21,5
2,9918332349000,-7.63,8.28,-6.7,5
2,9918382337000,-8.88,3.6,-3.53,5
2,9918432325000,-3.26,2.45,3.57,5
2,9918482343000,-2.26,4.21,-0.11,5
2,9918532300000,-3.64,5.18,-0.11,5
2,9918582349000,-5.63,10.65,1.46,5
2,9918632337000,-7.25,15.89,-2.83,5
2,9918682325000,-9.96,11.3,1.23,5
2,9918732343000,-8.31,9.08,-5.52,5
2,9918782331000,-6.63,8.69,-6.55,5
2,9918832380000,-1.12,6.97,-1.04,5
2,9918882337000,0.34,8.35,-3.53,5
2,9918932355000,0.42,4.75,-4.59,5
2,9918982374000,-2.22,2.79,-0.84,5
2,9919032331000,-6.7,7.97,4.25,5
2,9919082349000,-7.89,13.63,1.46,5
2,9919132337000,-4.33,9.34,-0.65,5
2,9919182325000,-2.37,13.87,-3.68,5
2,9919232374000,-7.21,12.49,-7.46,5
2,9919282331000,-8.88,7.44,-6.17,5
2,9919332349000,-8.12,3.15,6.28,5
2,9919382337000,-1.95,3.95,-1.42,5
2,9919432325000,-2.83,3.91,-0.89,5
2,9919482343000,-4.67,5.79,2.6,5
2,9919532331000,-4.75,9.28,-1.04,5
2,9919582349000,-8.77,13.1,-2.45,5
2,9919632337000,-6.85,13.38,1.8,5
2,9919682325000,-8.92,10.69,-0.99,5
2,9919732343000,-9.34,6.82,-8.77,5
2,9919782331000,-3.72,5.18,-3.98,5
2,9919832349000,-2.45,8.54,-3.06,5
2,9919882337000,-0.8,6.89,-3.34,5
2,9919932325000,-2.26,2.49,0.46,5
2,9919982374000,-0.57,5.41,6.28,5
2,9920032331000,-5.94,12.87,1.95,5
2,9920082380000,-6.09,13.06,-3.45,5
2,9920132337000,-4.63,13.59,-0.76,5
2,9920182325000,-4.48,12.53,-1.65,5
2,9920232343000,-7.59,9.19,-7.04,5
2,9920282331000,-9.58,4.52,-8.66,5
2,9920332349000,-4.1,1.88,8.43,5
2,9920382337000,-2.07,4.82,-0.38,5
2,9920432325000,-2.64,4.71,-3.17,5
2,9920482343000,-4.79,9.47,2.91,5
2,9920532331000,-7.65,15.75,0.23,5
2,9920582319000,-5.94,10.53,0.23,5
2,9920632337000,-9.43,10.42,-3.76,5
2,9920682325000,-7.82,8.85,-6.32,5
2,9920732343000,-1.46,6.7,-1.92,5
2,9920782331000,-0.23,10.61,-2.87,5
2,9920832349000,-0.5,6.21,-4.56,5
2,9920882337000,-2.34,3.49,1.5,5
2,9920932325000,-2.87,5.05,2.72,5
2,9920982374000,-6.02,10.34,0.57,5
2,9921032331000,-8.92,14.6,-1.12,5
2,9921082349000,-6.17,11.99,-0.42,5
2,9921152357000,-2.72,10.99,-0.84,5
2,9921202253000,-5.52,8.31,-7.5,5
2,9921252363000,-7.93,4.86,-5.98,5
2,9921302259000,-4.71,2.87,8.2,5
2,9921352308000,-1.12,4.63,-1.53,5
2,9921402295000,-5.28,6.55,2.11,5
2,9921452344000,-8.01,10.76,0.38,5
2,9921502332000,-6.36,9.72,-3.76,5
2,9921552289000,-9.58,13.67,3.41,5
2,9921602338000,-10.15,8.69,-5.05,5
2,9921652295000,-5.82,5.71,-6.43,5
2,9921702375000,-1.88,6.66,-2.83,5
2,9921752332000,-0.46,10.5,-5.37,5
2,9921802350000,-1.04,7.16,-4.79,5
2,9921852308000,-3.68,4.56,2.91,5
2,9921902326000,-0.8,7.5,6.89,5
2,9921952344000,-5.05,12.03,0.5,5
2,9922002485000,-6.78,12.49,-3.26,5
2,9922052289000,-5.52,12.15,-1.65,5
2,9922102308000,-4.14,12.3,-2.34,5
2,9922152326000,-5.43,8.92,-4.99,5
2,9922202314000,-6.89,5.09,-3.87,5
2,9922252332000,-6.47,3.45,2.79,5
2,9922302289000,-1.92,4.56,-1.99,5
2,9922352308000,-2.3,3.41,-0.91,5
2,9922402295000,-5.98,9.23,2.49,5
2,9922452314000,-6.24,14.33,0.42,5
2,9922502302000,-5.33,11.5,-0.61,5
2,9922552289000,-6.66,12.26,0.15,5
2,9922602308000,-7.59,9.77,-3.91,5
2,9922652326000,-5.05,6.13,-5.09,5
2,9922702314000,-1.84,7.16,-3.83,5
2,9922752332000,-1.53,8.12,-4.67,5
2,9922802289000,-2.56,5.63,-1.99,5
2,9922852308000,-2.96,4.02,3.68,5
2,9922902295000,-2.56,9.62,3.38,5
2,9922952344000,-7.5,13.21,-2.18,5
2,9923002332000,-2.98,10.73,-1.53,5
2,9923052289000,-1.88,13.59,0.38,5
2,9923102308000,-4.25,11.99,-1.8,5
2,9923152295000,-6.51,8.69,-9.0,5
2,9923202314000,-9.19,4.44,-7.08,5
2,9923252332000,-4.33,1.88,6.4,5
2,9923302289000,-3.17,4.9,-0.57,5
2,9923352277000,-3.17,5.79,-1.73,5
2,9923402295000,-2.41,9.66,-0.04,5
2,9923452344000,-5.82,15.24,-0.61,5
2,9923502302000,-10.15,10.73,0.65,5
2,9923552289000,-10.23,9.08,-5.41,5
2,9923602338000,-7.12,9.51,-5.6,5
2,9923652295000,-2.03,7.5,-3.34,5
2,9923702314000,1.23,8.89,-5.24,5
2,9923752302000,0.38,5.79,-5.01,5
2,9923802289000,-3.49,3.57,-0.72,5
2,9923852308000,-5.48,6.47,3.99,5
2,9923902326000,-4.14,13.33,2.72,5
2,9923952344000,-5.24,11.35,-0.95,5
2,9924002759000,-2.79,8.89,-2.3,5
2,9924052320000,-3.91,13.53,-1.92,5
2,9924102308000,-6.21,10.34,-4.18,5
2,9924152295000,-8.47,6.82,-7.86,5
2,9924202314000,-10.76,3.3,4.79,5
2,9924252302000,-0.19,5.83,-0.76,5
2,9924302289000,-1.95,4.56,-1.31,5
2,9924352308000,-3.34,5.86,0.08,5
2,9924402295000,-7.74,13.44,2.03,5
2,9924452314000,-6.66,12.41,-2.45,5
2,9924502302000,-7.12,11.14,1.42,5
2,9924552289000,-8.62,9.34,-2.68,5
2,9924602308000,-6.7,6.44,-6.7,5
2,9924652295000,-1.14,6.4,-2.03,5
2,9924702314000,0.23,10.42,-5.71,5
2,9924752332000,-1.04,7.12,-4.44,5
2,9924802289000,-4.33,2.79,1.33,5
2,9924852308000,-1.57,7.16,6.78,5
2,9924902295000,-3.87,12.91,2.3,5
2,9924952283000,-4.9,12.91,-2.3,5
2,9925002302000,-5.56,14.06,-3.49,5
2,9925052289000,-5.18,11.41,-5.24,5
2,9925102308000,-6.7,8.2,-6.63,5
2,9925152295000,-8.47,4.29,-3.76,5
2,9925202344000,-3.02,3.91,5.71,5
2,9925252302000,-2.53,5.28,-0.53,5
2,9925302289000,-2.98,5.63,-0.42,5
2,9925352308000,-4.67,9.85,1.54,5
2,9925402295000,-5.67,12.6,-1.04,5
2,9925452344000,-6.55,14.25,1.42,5
2,9925502302000,-9.81,11.5,-2.64,5
2,9925552289000,-7.01,8.81,-7.21,5
2,9925602308000,-1.99,7.01,-3.36,5
2,9925652295000,0.5,7.93,-5.05,5
2,9925702314000,-0.19,5.18,-3.95,5
2,9925752332000,-4.86,3.34,1.88,5
2,9925802289000,-1.8,7.4,4.33,5
2,9925852308000,-5.67,12.83,2.03,5
2,9925902295000,-6.09,11.07,-0.72,5
2,9925952344000,-3.06,11.03,-2.03,5
2,9926002576000,-4.25,13.18,-1.8,5
2,9926052320000,-6.24,10.23,-5.41,5
2,9926102338000,-8.47,7.06,-7.25,5
2,9926152295000,-7.97,3.21,3.83,5
2,9926152295000,-7.97,3.21,3.83,5
2,9926222303000,-2.56,3.87,-0.42,5
2,9926272321000,-2.22,4.21,-1.27,5
2,9926322278000,-4.86,11.22,1.27,5
2,9926382306000,-7.55,14.21,0.5,5
2,9926432294000,-6.09,10.57,-1.31,5
2,9926482313000,-9.15,11.18,-4.21,5
2,9926532300000,-7.74,7.5,-5.75,5
2,9926582319000,-2.11,5.6,-2.87,5
2,9926632306000,0.42,8.12,-6.21,5
2,9926682294000,-1.65,6.44,-4.37,5
2,9926732313000,-6.85,4.4,3.02,5
2,9926782300000,-0.99,8.2,4.25,5
2,9926832319000,-3.15,11.69,0.19,5
2,9926882337000,-5.09,10.08,-2.91,5
2,9926932325000,-4.44,10.84,-1.18,5
2,9926982374000,-6.36,16.25,-1.38,5
2,9927032361000,-6.51,9.72,-5.05,5
2,9927082380000,-6.43,4.1,-7.08,5
2,9927132337000,-8.05,0.99,-0.99,5
2,9927182325000,-4.59,4.48,3.26,5
2,9927232343000,-3.91,5.37,-2.22,5
2,9927282331000,-1.46,7.89,1.46,5
2,9927332349000,-4.86,13.14,1.27,5
2,9927382337000,-7.63,12.68,-2.07,5
2,9927432325000,-9.66,8.66,-1.57,5
2,9927482343000,-9.19,9.15,-3.83,5
2,9927532331000,-5.79,7.5,-5.01,5
2,9927582349000,-1.92,8.28,-3.87,5
2,9927632337000,-0.04,8.92,-6.43,5
2,9927682325000,-1.61,4.29,-2.72,5
2,9927682325000,-1.61,4.29,-2.72,5
2,9927792463000,-1.12,8.24,2.22,5
2,9927842298000,-6.74,12.76,-1.57,5
2,9927892316000,-5.6,10.31,-0.57,5
2,9927942304000,-3.15,12.76,-0.89,5
2,9927992261000,-5.37,13.1,-2.87,5
2,9928042341000,-8.01,9.15,-8.58,5
2,9928092328000,-8.92,3.45,-6.02,5
2,9928142347000,-4.52,1.23,6.55,5
2,9928192335000,-3.21,4.18,-1.42,5
2,9928242292000,-4.48,5.37,-2.3,5
2,9928292341000,-3.91,9.72,2.56,5
2,9928342328000,-4.9,11.84,-0.42,5
2,9928392347000,-5.82,11.3,-4.37,5
2,9928442335000,-10.23,12.11,0.65,5
2,9928492322000,-11.07,9.08,-6.36,5
2,9928542341000,-3.34,4.63,-4.9,5
2,9928592328000,-0.65,7.35,-3.68,5
2,9928642347000,-1.14,8.24,-5.18,5
2,9928692335000,-0.8,4.63,-3.02,5
2,9928742322000,-5.05,4.25,3.49,5
2,9928792341000,-4.1,11.14,4.33,5
2,9928842328000,-6.63,11.56,-2.53,5
2,9928892347000,-6.05,8.81,-2.18,5
2,9928942335000,-5.33,13.06,-0.11,5
2,9928992292000,-5.82,11.88,-4.82,5
2,9929042402000,-7.46,7.5,-8.96,5
2,9929092359000,-7.59,2.49,-3.49,5
2,9929142347000,-3.68,3.45,5.28,5
2,9929192335000,-2.41,4.06,-1.99,5
2,9929242292000,-3.17,4.6,-1.73,5
2,9929292341000,-5.82,12.45,2.64,5
2,9929342328000,-7.59,14.56,-3.6,5
2,9929392347000,-9.77,9.51,0.11,5
2,9929442335000,-8.73,8.81,-5.75,5
2,9929492292000,-8.47,8.81,-6.66,5
2,9929542341000,-1.53,6.17,-2.07,5
2,9929592328000,0.93,8.35,-3.76,5
2,9929642347000,-0.8,5.86,-4.75,5
2,9929692335000,-3.02,4.02,0.53,5
2,9929742292000,-2.6,6.02,3.17,5
2,9929792341000,-7.16,11.88,2.03,5
2,9929842328000,-6.66,10.99,-1.12,5
2,9929892347000,-4.29,13.06,-1.18,5
2,9929942365000,-4.63,12.41,-2.07,5
2,9929992292000,-5.71,9.11,-6.63,5
2,9930042371000,-7.65,5.41,-7.01,5
2,9930092328000,-6.32,2.87,5.13,5
2,9930142377000,-2.53,5.86,0.69,5
2,9930192396000,-2.37,5.01,-1.84,5
2,9930242353000,-3.87,7.55,1.76,5
2,9930302228000,-7.44,12.22,-2.56,5
2,9930352369000,-10.15,12.3,2.68,5
2,9930402295000,-8.47,9.04,-4.75,5
2,9930452314000,-7.08,9.19,-8.05,5
2,9930502332000,-2.18,7.44,-2.37,5
2,9930552289000,-0.3,8.77,-3.36,5
2,9930602338000,0.04,6.21,-4.18,5
2,9930652295000,-3.06,3.87,-2.56,5
2,9930702314000,-5.28,6.47,4.9,5
2,9930752332000,-5.79,12.53,3.72,5
2,9930802289000,-4.29,9.89,-1.73,5
2,9930852308000,-4.37,10.42,-2.53,5
2,9930902295000,-7.46,14.33,-1.76,5
2,9930952314000,-7.27,9.92,-5.43,5
2,9931002302000,-6.63,4.94,-6.63,5
2,9931052289000,-5.94,1.92,-0.15,5
2,9931102308000,-3.11,4.9,-1.18,5
2,9931152326000,-2.98,4.9,-1.18,5
2,9931202405000,-4.99,7.82,0.69,5
2,9931252241000,-5.52,11.75,1.14,5
2,9931302228000,-6.21,11.41,-0.91,5
2,9931352308000,-8.77,12.41,0.08,5
2,9931402357000,-9.47,9.85,-6.59,5
2,9931452314000,-5.28,5.79,-4.94,5
2,9931502302000,-2.14,7.82,-2.22,5
2,9931552289000,-1.5,10.23,-4.63,5
2,9931602308000,-1.18,5.41,-3.83,5
2,9931652295000,-4.02,3.11,3.53,5
2,9931702314000,-2.11,7.82,4.9,5
2,9931752332000,-6.02,11.96,0.84,5
2,9931802289000,-5.24,10.88,-1.76,5
2,9931852308000,-3.98,12.72,-1.88,5
2,9931902295000,-4.06,13.02,-1.61,5
2,9931952344000,-5.86,9.34,-6.36,5
2,9932002515000,-9.0,5.86,-7.86,5
2,9932052289000,-6.4,3.99,5.22,5
2,9932102308000,-1.73,3.64,0.0,5
2,9932152295000,-2.87,3.45,-1.99,5
2,9932202314000,-4.94,7.67,0.72,5
2,9932252302000,-7.55,12.95,-1.04,5
2,9932302289000,-6.74,9.85,-2.3,5
2,9932352308000,-8.31,10.57,-0.23,5
2,9932402295000,-9.7,11.3,-5.98,5
2,9932452314000,-4.99,6.66,-5.24,5
2,9932502302000,-2.11,7.46,-2.68,5
2,9932552289000,-0.46,8.58,-4.94,5
2,9932602308000,-1.46,4.56,-3.49,5
2,9932652295000,-3.87,3.53,4.06,5
2,9932702314000,-2.18,8.81,2.49,5
2,9932752302000,-4.67,13.38,-1.95,5
2,9932802320000,-6.32,12.03,0.76,5
2,9932852308000,-4.67,12.11,-1.04,5
2,9932902326000,-5.9,12.07,-5.6,5
2,9932952314000,-6.32,7.08,-7.65,5
2,9933002302000,-7.31,2.98,-1.73,5
2,9933052350000,-3.95,4.63,3.26,5
2,9933102308000,-2.03,5.6,-0.91,5
2,9933152295000,-4.9,6.44,0.8,5
2,9933202314000,-5.63,9.53,1.65,5
2,9933252332000,-5.79,10.99,-1.31,5
2,9933302289000,-8.69,12.11,0.99,5
2,9933352308000,-8.05,10.12,-2.49,5
2,9933402295000,-6.59,7.63,-5.43,5
2,9933452314000,-2.18,6.28,-2.22,5
2,9933502302000,-1.27,9.66,-4.75,5
2,9933552289000,-1.92,6.7,-3.6,5
2,9933602308000,-3.15,4.29,1.54,5
2,9933652295000,-0.95,5.79,4.86,5
2,9933702314000,-6.78,12.07,-0.04,5
2,9933752546000,-6.63,13.63,-3.36,5
2,9933802289000,-2.11,10.31,-0.8,5
2,9933852308000,-3.95,15.13,-3.21,5
2,9933902295000,-6.7,10.5,-5.67,5
2,9933952314000,-7.01,4.6,-4.67,5
2,9934002576000,-7.12,1.31,3.3,5
2,9934052289000,-2.22,3.76,-0.15,5
2,9934102308000,-2.34,5.01,-0.84,5
2,9934152295000,-3.91,11.75,0.95,5
2,9934202314000,-5.18,14.41,2.56,5
2,9934252332000,-6.66,9.72,-0.42,5
2,9934302289000,-8.96,10.88,-3.11,5
2,9934352308000,-9.72,8.89,-5.13,5
2,9934402295000,-3.87,5.05,-3.45,5
2,9934452314000,-1.14,8.05,-3.41,5
2,9934502302000,-0.99,7.89,-4.56,5
2,9934552289000,-3.6,4.06,-0.99,5
2,9934602308000,-4.02,5.43,2.37,5
2,9934652295000,-3.68,10.92,1.5,5
2,9934702314000,-5.28,10.15,0.34,5
2,9934752332000,-3.26,11.45,-1.23,5
2,9934802289000,-4.37,14.67,-0.61,5
2,9934852308000,-4.71,11.3,-2.49,5
2,9934902295000,-6.59,8.24,-8.12,5
2,9934952344000,-10.34,4.02,-5.71,5
2,9935002332000,-4.67,2.26,5.86,5
2,9935052289000,-3.49,4.71,-0.84,5
2,9935102308000,-2.75,4.18,-1.69,5
2,9935152295000,-3.45,8.85,1.8,5
2,9935202314000,-5.9,12.72,-1.92,5
2,9935252485000,-8.66,13.57,-0.84,5
2,9935302289000,-8.24,9.3,-2.37,5
2,9935352308000,-9.47,10.38,-8.62,5
2,9935402295000,-3.45,6.74,-3.53,5
2,9935452344000,-0.99,8.58,-2.87,5
2,9935502332000,-0.08,7.08,-5.33,5
2,9935552320000,-0.15,4.21,-3.15,5
2,9935602308000,-3.11,3.95,0.72,5
2,9935652295000,-6.59,9.51,5.86,5
2,9935702314000,-5.09,10.92,-1.61,5
2,9935752332000,-3.64,10.8,-3.76,5
2,9935802289000,-6.21,15.24,-1.53,5
2,9935852308000,-6.97,12.49,-3.3,5
2,9935902295000,-6.02,6.44,-6.55,5
2,9935952314000,-7.08,1.69,-3.64,5
2,9936002759000,-6.32,2.76,3.53,5
2,9936052289000,-2.75,4.14,-0.8,5
2,9936102308000,-2.41,6.63,0.04,5
2,9936152295000,-5.56,10.31,-0.34,5
2,9936211347000,-5.9,12.15,-2.45,5
2,9936211347000,-5.9,12.15,-2.45,5
2,9936262891000,-9.66,10.92,0.93,5
2,9936312513000,-9.0,10.76,-5.43,5
2,9936363172000,-5.63,7.7,-6.05,5
2,9936412794000,-1.5,7.74,-3.45,5
2,9936462415000,-0.23,8.69,-4.75,5
2,9936513044000,-0.95,5.9,-4.02,5
2,9936562696000,-5.18,3.11,2.72,5
2,9936612348000,-2.98,6.89,4.82,5
2,9936662824000,-4.33,11.8,-1.46,5
2,9936712446000,-5.67,10.92,-3.11,5
2,9936763135000,-7.82,10.84,1.65,5
2,9936812726000,-4.14,14.14,-1.84,5
2,9936862348000,-4.37,9.81,-6.05,5
2,9936912855000,-6.09,6.36,-8.16,5
2,9936962476000,-7.78,3.87,1.65,5
2,9937013013000,-2.75,4.6,2.37,5
2,9937062665000,-2.49,3.68,-2.22,5
2,9937113294000,-4.21,6.17,0.23,5
2,9937172285000,-5.43,12.22,0.53,5
2,9937232282000,-7.86,14.37,-0.72,5
2,9937282300000,-9.43,9.51,-4.06,5
2,9937332319000,-8.16,8.73,-6.89,5
2,9937382306000,-2.37,6.66,-2.64,5
2,9937432294000,-1.18,8.96,-2.91,5
2,9937482313000,0.5,5.9,-3.95,5
2,9937532300000,-0.65,3.64,-2.56,5
2,9937582319000,-5.28,4.48,2.45,5
2,9937632306000,-7.59,12.18,4.1,5
2,9937682264000,-5.28,11.18,-2.11,5
2,9937732282000,-6.05,11.99,-2.3,5
2,9937782300000,-6.47,13.72,-2.91,5
2,9937832319000,-5.18,9.08,-5.48,5
2,9937882337000,-6.32,5.13,-6.36,5
2,9937932294000,-8.01,3.34,-1.53,5
2,9937982343000,-2.26,5.01,3.95,5
2,9938032300000,-1.38,4.6,0.08,5
2,9938082288000,-3.68,6.47,0.08,5
2,9938132306000,-7.86,12.07,-1.38,5
2,9938182294000,-7.59,11.22,-1.23,5
2,9938232282000,-7.65,9.43,-0.5,5
2,9938282300000,-9.23,12.11,-6.43,5
2,9938332319000,-6.05,8.05,-5.63,5
2,9938382306000,-1.8,7.55,-1.76,5
2,9938432294000,-0.08,8.31,-4.63,5
2,9938482313000,-1.27,3.76,-2.96,5
2,9938532300000,-2.49,2.87,2.96,5
2,9938582319000,-3.72,8.28,4.21,5
2,9938632306000,-7.21,13.8,-0.27,5
2,9938682294000,-4.56,10.88,-0.72,5
2,9938732282000,-4.48,13.14,-0.57,5
2,9938782300000,-4.99,11.84,-1.99,5
2,9938832319000,-6.36,8.28,-8.5,5
2,9938882306000,-9.38,4.79,-7.7,5
2,9938932294000,-6.05,3.06,8.43,5
2,9938982313000,-2.56,5.05,-0.34,5
2,9939032300000,-1.99,4.52,-1.14,5
2,9939082319000,-3.91,9.04,1.08,5
2,9939132306000,-6.74,13.25,-0.89,5
2,9939182294000,-7.97,13.18,0.38,5
2,9939232282000,-8.54,9.77,-1.95,5
2,9939282361000,-8.69,9.66,-7.59,5
2,9939332319000,-3.02,7.89,-2.53,5
2,9939382306000,0.65,9.58,-3.98,5
2,9939432294000,1.08,5.13,-4.44,5
2,9939482313000,-1.33,2.41,-1.18,5
2,9939532300000,-3.76,5.13,2.79,5
2,9939582319000,-6.63,11.99,4.9,5
2,9939632276000,-6.24,13.76,-2.41,5
2,9939682294000,-5.37,11.45,-1.84,5
2,9939732282000,-4.25,13.21,-1.95,5
2,9939782331000,-5.98,9.96,-5.05,5
2,9939832319000,-7.44,5.98,-7.5,5
2,9939882306000,-7.04,2.49,-2.18,5
2,9939932294000,-3.17,4.52,6.02,5
2,9939982343000,-2.6,5.01,-0.5,5
2,9940032270000,-3.87,6.59,-0.5,5
2,9940082319000,-5.24,10.57,0.11,5
2,9940132306000,-7.46,14.63,-0.57,5
2,9940182294000,-7.55,11.8,-0.11,5
2,9940232282000,-9.11,10.5,-6.47,5
2,9940282300000,-4.94,6.66,-5.01,5
2,9940332319000,-1.92,8.2,-2.6,5
2,9940382337000,-0.27,7.97,-4.99,5
2,9940432325000,-2.03,3.11,-2.75,5
2,9940482343000,-2.91,2.45,4.02,5
2,9940532331000,-2.87,9.3,4.82,5
2,9940582380000,-7.74,14.21,0.42,5
2,9940632337000,-6.97,10.92,-0.91,5
2,9940682325000,-3.49,13.33,-2.79,5
2,9940732343000,-5.48,11.22,-4.63,5
2,9940782331000,-6.7,7.16,-6.59,5
2,9940832349000,-8.39,3.95,-2.41,5
2,9940882337000,-2.96,5.43,4.21,5
2,9940932325000,-1.95,4.48,-0.84,5
2,9940982343000,-2.11,4.25,0.38,5
2,9941052320000,-6.47,10.23,0.57,5
2,9941102247000,-8.73,13.67,-0.57,5
2,9941152357000,-5.9,11.18,-0.65,5
2,9941202283000,-9.58,10.27,-6.43,5
2,9941252302000,-4.9,6.4,-4.06,5
2,9941302289000,-1.65,8.69,-3.34,5
2,9941352308000,-0.5,7.5,-4.59,5
2,9941402295000,-0.84,3.64,-2.53,5
2,9941452314000,-5.18,4.56,2.83,5
2,9941502302000,-4.02,11.37,6.59,5
2,9941552289000,-4.21,11.14,-0.38,5
2,9941602308000,-5.05,11.07,-4.79,5
2,9941652295000,-6.32,12.76,-1.57,5
2,9941702314000,-5.43,10.5,-3.3,5
2,9941752302000,-7.01,7.08,-6.97,5
2,9941802289000,-8.35,3.21,-4.48,5
2,9941852399000,-3.72,4.18,4.29,5
2,9941902295000,-2.34,6.32,0.31,5
2,9941952314000,-2.87,5.9,-0.84,5
2,9942002485000,-6.13,10.99,1.69,5
2,9942052289000,-7.59,12.68,-1.69,5
2,9942102308000,-7.04,10.69,0.57,5
2,9942152326000,-8.85,12.64,-4.06,5
2,9942202314000,-7.59,8.66,-6.66,5
2,9942252332000,-0.53,4.99,-1.65,5
2,9942302289000,-0.11,8.43,-5.86,5
2,9942352308000,-0.61,6.74,-4.63,5
2,9942402295000,-1.65,3.79,-1.14,5
2,9942452314000,-3.87,6.78,5.6,5
2,9942502302000,-6.4,13.72,6.4,5
2,9942552289000,-4.14,10.23,-1.08,5
2,9942602308000,-1.38,11.96,-3.57,5
2,9942652295000,-4.79,14.52,-1.99,5
2,9942702314000,-7.16,10.27,-3.87,5
2,9942752302000,-9.96,6.93,-8.05,5
2,9942802289000,-8.24,2.64,1.57,5
2,9942852308000,-1.88,3.41,2.22,5
2,9942902295000,-2.07,4.14,-0.34,5
2,9942952344000,-2.64,5.67,0.23,5
2,9943002302000,-6.02,11.45,-0.15,5
2,9943052289000,-6.4,15.6,-1.69,5
2,9943102308000,-7.65,11.18,3.6,5
2,9943152295000,-11.14,11.73,-8.24,5
2,9943202314000,-5.24,7.21,-5.56,5
2,9943252302000,-1.18,8.35,-1.8,5
2,9943302289000,0.0,10.0,-6.43,5
2,9943352308000,-0.15,4.94,-3.87,5
2,9943402295000,-3.02,2.26,1.84,5
2,9943452314000,-2.3,7.4,6.66,5
2,9943502332000,-4.86,11.96,2.11,5
2,9943552289000,-5.33,12.57,-2.37,5
2,9943602308000,-3.79,11.88,-2.11,5
2,9943652295000,-4.18,11.45,-1.95,5
2,9943702314000,-6.63,9.43,-6.24,5
2,9943752332000,-10.8,7.16,-8.05,5
2,9943802320000,-5.86,3.72,6.02,5
2,9943852308000,-1.33,3.83,-0.08,5
2,9943902295000,-2.6,4.02,-0.99,5
2,9943952344000,-4.71,8.81,2.45,5
2,9944002607000,-5.24,11.11,-0.89,5
2,9944052289000,-7.97,11.8,-1.8,5
2,9944102308000,-10.8,10.38,-1.12,5
2,9944152295000,-9.15,10.61,-7.21,5
2,9944202314000,-2.41,7.78,-2.98,5
2,9944252302000,1.27,11.6,-4.37,5
2,9944302289000,0.76,6.85,-6.43,5
2,9944352308000,-2.18,2.41,-0.8,5
2,9944402357000,-5.82,4.79,5.18,5
2,9944452314000,-4.06,10.15,2.68,5
2,9944502302000,-6.02,10.12,-1.95,5
2,9944552289000,-5.94,10.53,-2.53,5
2,9944602308000,-3.91,14.1,0.5,5
2,9944652295000,-5.79,12.64,-3.83,5
2,9944702314000,-8.66,8.66,-9.72,5
2,9944752302000,-8.69,2.96,-4.4,5
2,9944802289000,-2.98,2.87,5.56,5
2,9944852308000,-1.73,4.75,0.15,5
2,9944902295000,-1.88,4.52,0.11,5
2,9944952314000,-5.79,9.77,-0.57,5
2,9945002302000,-6.85,16.25,-2.37,5
2,9945052289000,-6.05,11.56,3.38,5
2,9945102308000,-9.34,9.3,-3.3,5
2,9945152295000,-8.5,8.85,-8.27,5
2,9945202314000,-2.75,6.36,-2.83,5
2,9945252302000,-0.5,8.96,-3.76,5
2,9945302289000,-0.3,7.82,-5.63,5
2,9945352308000,-3.49,4.48,-1.12,5
2,9945402295000,-0.84,5.24,4.71,5
2,9945452314000,-4.9,11.11,4.06,5
2,9945502302000,-5.63,12.18,-0.53,5
2,9945552289000,-2.45,10.73,-2.22,5
2,9945602308000,-4.18,12.76,-1.84,5
2,9945652295000,-6.4,11.5,-5.2,5
2,9945702344000,-8.88,7.97,-8.66,5
2,9945752302000,-9.77,2.41,3.91,5
2,9945802320000,-1.65,4.4,0.46,5
2,9945852308000,-1.8,4.44,-1.5,5
2,9945902295000,-3.45,6.09,-0.8,5
2,9945952314000,-7.16,12.26,0.04,5
2,9946002576000,-8.47,10.65,-1.84,5
2,9946052289000,-9.81,9.62,1.38,5
2,9946052289000,-9.81,9.62,1.38,5
2,9946122297000,-6.13,9.92,-4.18,5
2,9946172285000,-5.48,8.58,-5.6,5
2,9946222272000,-0.19,8.92,-4.06,5
2,9946282331000,1.04,7.31,-5.86,5
2,9946332319000,-3.53,4.02,0.27,5
2,9946382306000,-2.83,5.41,5.52,5
2,9946432294000,-2.56,11.84,3.06,5
2,9946482313000,-5.05,12.26,-1.33,5
2,9946532300000,-4.52,10.61,-2.68,5
2,9946582319000,-6.17,12.11,-2.64,5
2,9946632306000,-6.97,12.3,-5.98,5
2,9946682294000,-7.4,6.97,-6.89,5
2,9946732282000,-6.21,2.91,-1.27,5
2,9946782300000,-4.14,5.48,2.98,5
2,9946832319000,-2.22,4.52,-0.84,5
2,9946882306000,-1.99,5.63,1.08,5
2,9946932294000,-5.63,10.5,-0.46,5
2,9946982343000,-8.39,14.63,-2.11,5
2,9947032300000,-6.82,10.27,1.65,5
2,9947082319000,-8.5,10.88,-3.6,5
2,9947132306000,-6.4,8.12,-6.66,5
2,9947182294000,-1.04,6.05,-2.37,5
2,9947232282000,0.72,8.08,-4.67,5
2,9947282300000,-1.08,7.63,-5.09,5
2,9947332319000,-5.79,5.24,5.09,5
2,9947382306000,-2.49,8.01,4.82,5
2,9947432294000,-5.09,12.76,-1.53,5
2,9947482313000,-1.88,8.39,-1.33,5
2,9947532300000,-2.14,10.95,-0.8,5
2,9947582288000,-7.01,14.82,-0.8,5
2,9947632306000,-7.46,10.46,-5.94,5
2,9947682294000,-8.43,5.48,-7.25,5
2,9947732557000,-9.19,2.91,5.56,5
2,9947782300000,-2.3,4.52,-1.65,5
2,9947832319000,-1.99,3.6,-0.61,5
2,9947882306000,-1.8,6.13,1.95,5
2,9947932294000,-4.37,11.73,-0.76,5
2,9947982343000,-6.36,15.98,-0.95,5
2,9948032300000,-8.81,10.73,2.76,5
2,9948082319000,-10.76,12.76,-6.32,5
2,9948132306000,-5.28,8.2,-5.43,5
2,9948182294000,0.72,7.35,-3.83,5
2,9948232282000,0.72,7.27,-5.98,5
2,9948282331000,-0.8,4.71,-3.11,5
2,9948332349000,-4.44,3.95,1.95,5
2,9948382306000,-3.53,8.92,6.21,5
2,9948432294000,-4.59,12.26,-0.57,5
2,9948482313000,-3.91,10.57,-4.21,5
2,9948532331000,-4.86,10.46,0.61,5
2,9948582349000,-6.36,16.02,-0.69,5
2,9948632337000,-7.01,10.42,-7.01,5
2,9948682325000,-7.46,4.4,-8.39,5
2,9948732343000,-6.43,1.88,0.04,5
2,9948782331000,-2.26,4.4,3.15,5
2,9948832349000,-2.79,5.18,-0.38,5
2,9948882337000,-4.02,7.78,1.08,5
2,9948932325000,-4.86,11.14,-1.53,5
2,9948982343000,-5.24,13.82,-1.14,5
2,9949032331000,-11.5,11.92,1.31,5
2,9949082349000,-10.53,9.38,-7.27,5
2,9949132337000,-3.72,7.06,-4.48,5
2,9949182325000,-0.23,10.19,-3.15,5
2,9949232374000,1.38,8.24,-5.82,5
2,9949282331000,-2.26,3.49,-1.5,5
2,9949352247000,-1.46,3.79,4.25,5
2,9949402295000,-4.33,11.88,3.57,5
2,9949452314000,-8.12,11.96,-0.08,5
2,9949502302000,-4.1,10.12,-3.02,5
2,9949552289000,-2.41,13.38,-1.53,5
2,9949602308000,-6.47,11.8,-2.96,5
2,9949652295000,-7.08,7.5,-6.51,5
2,9949702314000,-9.77,3.06,0.11,5
2,9949752332000,-3.02,4.21,1.5,5
2,9949802289000,-2.87,4.86,-1.84,5
2,9949852308000,-3.17,5.05,-0.15,5
2,9949902295000,-4.79,10.5,2.07,5
2,9949952344000,-5.98,13.18,-1.27,5
2,9950002515000,-7.65,11.88,0.19,5
2,9950052289000,-8.66,11.26,-3.98,5
2,9950102308000,-7.35,8.77,-5.63,5
2,9950152295000,-1.99,6.82,-2.68,5
2,9950202314000,0.15,9.11,-6.05,5
2,9950252302000,-0.91,5.52,-3.83,5
2,9950302289000,-3.26,3.34,0.57,5
2,9950352308000,-4.25,6.28,5.05,5
2,9950402326000,-6.28,11.8,1.8,5
2,9950452314000,-4.18,11.96,-1.8,5
2,9950502302000,-2.34,11.92,-1.31,5
2,9950552289000,-4.79,13.14,-1.99,5
2,9950602308000,-8.47,10.0,-7.82,5
2,9950652295000,-10.38,4.29,-6.59,5
2,9950702314000,-5.56,1.31,7.12,5
2,9950752302000,-2.53,4.79,-0.72,5
2,9950802289000,-2.64,5.63,-2.07,5
2,9950852308000,-1.61,9.89,3.21,5
2,9950902295000,-6.51,13.21,0.99,5
2,9950952344000,-9.92,12.37,-3.79,5
2,9951002302000,-10.08,9.89,-5.01,5
2,9951052198000,-8.85,8.81,-6.36,5
2,9951102338000,-2.34,7.44,-2.45,5
2,9951152295000,-0.08,10.34,-5.24,5
2,9951202314000,-0.76,5.28,-4.94,5
2,9951252332000,-1.95,3.26,0.95,5
2,9951302289000,-2.49,5.41,4.33,5
2,9951352308000,-4.82,11.73,2.6,5
2,9951402295000,-4.59,10.84,-0.57,5
2,9951452314000,-5.94,10.99,-0.72,5
2,9951502302000,-5.01,13.38,-1.31,5
2,9951552289000,-4.9,10.04,-4.56,5
2,9951602308000,-6.7,6.7,-7.97,5
2,9951652295000,-7.21,4.02,-2.6,5
2,9951702344000,-2.37,5.28,5.48,5
2,9951752302000,-2.6,5.28,-0.57,5
2,9951752302000,-2.6,5.28,-0.57,5
2,9951812940000,-4.56,7.97,0.46,5
2,9951862348000,-7.21,12.03,-0.91,5
2,9951912671000,-7.08,11.69,-1.65,5
2,9951963270000,-6.78,10.84,0.11,5
2,9952022291000,-10.23,10.5,-7.08,5
2,9952082349000,-3.17,4.99,-2.72,5
2,9952132306000,-0.69,9.08,-4.71,5
2,9952182294000,-0.89,8.08,-4.9,5
2,9952232252000,-2.07,3.87,-1.95,5
2,9952282270000,-2.75,4.9,5.22,5
2,9952332319000,-5.41,13.33,5.05,5
2,9952382306000,-4.9,11.96,-1.65,5
2,9952432294000,-4.44,10.76,-2.98,5
2,9952482313000,-5.28,13.33,-2.53,5
2,9952532300000,-6.59,10.46,-4.94,5
2,9952582319000,-6.78,5.67,-6.47,5
2,9952632306000,-7.08,2.07,0.34,5
2,9952682294000,-3.91,4.4,1.76,5
2,9952732282000,-4.59,5.63,-2.6,5
2,9952782270000,-2.79,7.08,0.46,5
2,9952832319000,-2.53,12.34,1.61,5
2,9952882306000,-5.52,14.41,-0.76,5
2,9952932294000,-8.62,10.23,-0.61,5
2,9952982343000,-9.47,10.46,-5.6,5
2,9953032300000,-5.79,8.12,-5.28,5
2,9953082349000,-0.5,7.59,-1.76,5
2,9953132306000,0.8,8.43,-5.98,5
2,9953182294000,-2.07,4.25,-3.95,5
2,9953232282000,-4.67,3.91,2.03,5
2,9953282270000,-2.68,7.74,2.79,5
2,9953332319000,-7.12,11.65,1.31,5
2,9953382306000,-4.99,10.99,-1.27,5
2,9953432325000,-2.96,13.25,-1.5,5
2,9953482313000,-4.94,12.83,-2.72,5
2,9953532392000,-6.85,9.08,-6.97,5
2,9953582319000,-8.85,5.18,-5.79,5
2,9953632306000,-5.52,3.72,5.41,5
2,9953682294000,-2.11,4.99,-0.89,5
2,9953732282000,-1.88,3.68,-1.42,5
2,9953782270000,-2.64,7.46,1.23,5
2,9953832319000,-5.2,14.79,0.31,5
2,9953882306000,-6.97,11.35,-0.38,5
2,9953932294000,-11.41,10.46,-2.87,5
2,9953982343000,-9.47,10.27,-6.24,5
2,9954032300000,-2.75,6.24,-3.02,5
2,9954082319000,-0.76,8.96,-3.3,5
2,9954132306000,-0.15,8.12,-5.37,5
2,9954182294000,-1.42,4.33,-2.6,5
2,9954232282000,-5.82,4.71,3.41,5
2,9954282300000,-3.15,9.92,2.72,5
2,9954332319000,-5.09,10.04,0.34,5
2,9954382306000,-6.05,8.73,-2.03,5
2,9954432294000,-5.98,12.91,-2.3,5
2,9954482313000,-4.86,13.8,-1.88,5
2,9954532300000,-4.82,8.16,-5.05,5
2,9954582349000,-6.63,5.24,-7.27,5
2,9954632337000,-6.43,2.96,3.53,5
2,9954682355000,-2.83,5.48,0.95,5
2,9954732282000,-3.21,5.63,-2.64,5
2,9954782300000,-5.13,7.97,2.18,5
2,9954832349000,-5.75,11.65,-0.65,5
2,9954882306000,-7.25,12.26,-0.91,5
2,9954932325000,-9.11,11.75,-1.73,5
2,9954982313000,-7.7,8.43,-8.01,5
2,9955032331000,-3.95,5.94,-4.52,5
2,9955082319000,-1.33,8.2,-2.22,5
2,9955132306000,-0.65,8.24,-4.44,5
2,9955182325000,-2.14,5.05,-2.64,5
2,9955232282000,-4.37,5.13,4.18,5
2,9955282331000,-3.6,8.69,3.38,5
2,9955332349000,-4.99,10.08,-2.3,5
2,9955382306000,-5.37,10.88,-1.8,5
2,9955432294000,-5.28,13.53,1.12,5
2,9955482313000,-5.63,13.02,-3.17,5
2,9955532300000,-4.99,8.5,-8.31,5
2,9955582319000,-6.89,4.56,-6.59,5
2,9955632337000,-6.66,3.02,4.4,5
2,9955682355000,-2.22,4.94,1.23,5
2,9955732313000,-2.34,5.63,-0.72,5
2,9955782361000,-4.52,8.2,0.95,5
2,9955832349000,-6.93,11.69,-1.53,5
2,9955882337000,-7.86,13.14,-0.91,5
2,9955932355000,-8.16,10.0,-0.65,5
2,9955982374000,-10.04,10.23,-8.77,5
2,9956042310000,-3.41,6.74,-3.02,5
2,9956092267000,-0.95,8.81,-3.02,5
2,9956142316000,-0.27,6.47,-4.21,5
2,9956192304000,-2.26,3.02,-0.19,5
2,9956242261000,-2.6,4.56,4.56,5
2,9956292310000,-5.37,14.21,3.49,5
2,9956342328000,-4.75,9.53,0.42,5
2,9956392316000,-2.98,9.7,-2.03,5
2,9956442304000,-6.43,13.82,-1.76,5
2,9956492322000,-8.31,12.07,-5.75,5
2,9956542310000,-7.55,6.21,-6.55,5
2,9956592267000,-9.85,2.68,4.44,5
2,9956642316000,-2.91,7.31,-0.53,5
2,9956692304000,-1.76,4.06,-1.5,5
2,9956742261000,-0.61,3.3,-0.11,5
2,9956792310000,-3.15,10.61,1.42,5
2,9956842328000,-10.19,15.47,1.31,5
2,9956892347000,-8.05,8.31,2.18,5
2,9956942335000,-8.88,10.99,-4.82,5
2,9956992322000,-8.01,10.84,-6.7,5
2,9957042341000,-3.15,6.24,-3.36,5
2,9957092328000,-2.18,7.35,-5.13,5
2,9957142347000,-2.53,7.25,-3.91,5
2,9957192335000,-1.69,5.01,-1.33,5
2,9957242322000,-4.02,4.94,6.89,5
2,9957292341000,-6.78,11.88,3.45,5
2,9957342328000,-2.98,11.07,-2.26,5
2,9957392347000,-0.15,8.39,-2.56,5
2,9957442365000,-7.27,11.35,3.17,5
2,9957492322000,-9.49,11.99,-3.49,5
2,9957542341000,-6.28,7.74,-7.08,5
2,9957592328000,-8.16,6.09,3.26,5
2,9957642347000,-1.95,6.17,-1.27,5
2,9957692335000,-1.57,5.63,-1.42,5
2,9957742322000,-2.87,7.01,1.84,5
2,9957792341000,-2.83,10.34,3.64,5
2,9957842328000,-7.04,11.5,-1.8,5
2,9957892347000,-15.85,10.8,3.64,5
2,9957942335000,-10.46,8.85,-6.02,5
2,9957992292000,-6.66,8.12,-6.4,5
2,9958042341000,-4.75,7.4,-4.1,5
2,9958092328000,-2.98,8.77,-8.43,5
2,9958142347000,-0.84,5.56,-4.79,5
2,9958192335000,-0.95,5.09,-1.5,5
2,9958242322000,-1.92,12.3,7.63,5
2,9958292341000,-2.83,10.23,1.8,5
2,9958342328000,-3.91,7.44,-0.15,5
2,9958392347000,-3.15,10.92,-0.61,5
2,9958442365000,-6.36,12.03,1.99,5
2,9958492414000,-12.18,11.14,-8.43,5
2,9958542341000,-9.58,3.53,-4.71,5
2,9958592328000,-5.82,2.18,0.11,5
2,9958642347000,-3.26,8.69,-1.27,5
2,9958692335000,-0.91,8.01,-1.42,5
2,9958742322000,1.38,6.93,-0.89,5
2,9958792341000,-3.11,11.5,3.15,5
2,9958842328000,-9.81,14.94,1.69,5
2,9958892347000,-8.54,10.57,1.23,5
2,9958942335000,-7.35,8.96,-3.72,5
2,9958992292000,-7.35,7.82,-8.05,5
2,9959042341000,-5.13,6.32,-4.79,5
2,9959092328000,-4.21,6.89,-3.87,5
2,9959142347000,-2.64,6.02,-2.75,5
2,9959192335000,-3.3,4.6,0.53,5
2,9959242322000,-0.99,8.24,5.37,5
2,9959292341000,-2.72,10.84,0.42,5
2,9959342328000,-3.57,9.43,-2.45,5
2,9959392347000,-9.0,12.37,-0.91,5
2,9959442335000,-6.28,14.02,-0.65,5
2,9959492322000,-5.9,8.47,-6.4,5
2,9959542341000,-8.43,5.01,-8.58,5
2,9959592328000,-5.9,1.73,-0.42,5
2,9959642347000,-3.21,5.98,4.21,5
2,9959692335000,-2.53,5.28,-2.22,5
2,9959742292000,-1.42,7.44,-1.18,5
2,9959792371000,-5.63,13.33,1.65,5
2,9959842328000,-7.08,14.86,-2.45,5
2,9959892347000,-9.66,10.61,-1.08,5
2,9959942335000,-8.73,7.25,-7.08,5
2,9959992322000,-4.99,5.71,-5.56,5
2,9960042341000,-1.46,8.66,-3.17,5
2,9960092359000,-0.15,7.4,-5.33,5
2,9960142347000,-1.73,3.26,-1.33,5
2,9960192335000,-2.07,3.95,2.15,5
2,9960242322000,-3.68,9.58,3.3,5
2,9960302289000,-7.82,13.8,-1.99,5
2,9960352308000,-3.3,12.3,-0.95,5
2,9960402295000,-3.26,14.21,-0.72,5
2,9960452314000,-4.59,9.7,-3.72,5
2,9960502302000,-6.47,6.44,-9.43,5
2,9960552289000,-7.44,3.49,-3.79,5
2,9960602308000,-3.34,3.91,5.09,5
2,9960652295000,-2.37,5.18,-0.38,5
2,9960702314000,-3.64,6.51,-1.23,5
2,9960752332000,-5.52,10.95,0.38,5
2,9960802289000,-6.4,12.83,-2.3,5
2,9960852308000,-7.59,13.76,-1.33,5
2,9960902295000,-9.47,10.53,-4.94,5
2,9960952344000,-5.24,5.41,-5.48,5
2,9961002302000,-1.61,6.02,-2.41,5
2,9961052228000,-0.04,9.04,-6.55,5
2,9961102277000,-0.84,4.99,-4.48,5
2,9961152295000,-3.72,3.06,1.23,5
2,9961202314000,-2.64,8.92,6.32,5
2,9961252332000,-6.82,14.9,0.53,5
2,9961302320000,-6.24,11.35,-2.98,5
2,9961352308000,-4.37,11.54,-2.14,5
2,9961402295000,-4.82,11.73,-3.26,5
2,9961452314000,-5.94,7.97,-6.32,5
2,9961502302000,-8.08,4.79,-5.43,5
2,9961552289000,-4.79,3.17,3.02,5
2,9961602308000,-1.42,3.17,0.99,5
2,9961652295000,-4.1,4.86,-0.91,5
2,9961702314000,-8.08,11.45,0.31,5
2,9961752332000,-5.6,13.57,-3.06,5
2,9961802289000,-6.32,12.03,0.04,5
2,9961852308000,-9.49,11.56,-5.67,5
2,9961902265000,-6.7,7.06,-5.67,5
2,9961952344000,-1.46,5.83,-1.99,5
2,9962002485000,-0.15,7.78,-5.13,5
2,9962052289000,-0.72,4.44,-4.02,5
2,9962102308000,-2.79,3.83,0.84,5
2,9962152295000,-3.41,7.44,4.06,5
2,9962202314000,-7.04,14.14,-0.11,5
2,9962252332000,-6.47,11.92,-1.33,5
2,9962302289000,-4.4,12.72,-2.22,5
2,9962352308000,-4.99,11.18,-4.29,5
2,9962402295000,-6.78,6.89,-8.01,5
2,9962452314000,-10.0,2.64,-0.99,5
2,9962502302000,-3.98,2.53,2.41,5
2,9962552289000,-2.07,4.14,-1.18,5
2,9962602308000,-2.83,4.94,-0.11,5
2,9962652295000,-5.18,10.73,0.61,5
2,9962702314000,-6.85,16.47,-4.02,5
2,9962752332000,-11.22,11.65,0.27,5
2,9962802289000,-11.88,8.43,-9.72,5
2,9962852338000,-5.6,5.52,-5.41,5
2,9962902295000,-2.22,8.35,-2.68,5
2,9962952314000,0.31,7.74,-5.2,5
2,9963002302000,0.23,2.76,-3.3,5
2,9963052289000,0.27,3.17,-0.61,5
2,9963102308000,-2.91,8.73,1.31,5
2,9963152295000,-9.85,16.17,5.9,5
2,9963202314000,-6.93,11.14,-0.5,5
2,9963252302000,-3.36,11.22,-4.4,5
2,9963302320000,-5.2,11.69,-4.75,5
2,9963352308000,-6.21,7.67,-6.36,5
2,9963402295000,-7.7,3.57,-4.86,5
2,9963452375000,-4.9,2.22,5.41,5
2,9963502302000,-3.06,4.48,0.08,5
2,9963552289000,-4.67,5.79,-1.65,5
2,9963602308000,-5.98,8.73,-0.08,5
2,9963652295000,-5.94,14.33,-2.07,5
2,9963702314000,-8.66,14.44,2.6,5
2,9963752302000,-7.82,9.38,-5.2,5
2,9963802320000,-8.12,7.27,-8.77,5
2,9963852308000,-2.91,5.71,-3.64,5
2,9963902295000,-1.08,7.08,-4.25,5
2,9963952314000,-0.61,5.75,-4.1,5
2,9964002759000,-1.42,4.02,-0.04,5
2,9964052289000,-1.38,7.93,5.94,5
2,9964102308000,-7.4,13.06,3.72,5
2,9964152295000,-5.75,12.41,-3.06,5
2,9964202314000,-2.37,13.18,-3.06,5
2,9964252332000,-4.67,11.26,-1.57,5
2,9964302320000,-7.04,8.73,-6.32,5
2,9964352308000,-10.15,5.48,-8.27,5
2,9964402295000,-5.13,2.49,6.36,5
2,9964452314000,-2.37,3.76,-0.27,5
2,9964502271000,-2.37,3.57,-1.69,5
2,9964552289000,-4.44,7.35,-0.76,5
2,9964602308000,-5.56,17.47,-2.14,5
2,9964652295000,-8.69,14.75,4.9,5
2,9964702314000,-9.08,8.92,-5.67,5
2,9964752302000,-7.74,7.12,-9.0,5
2,9964802289000,-2.87,6.13,-3.21,5
2,9964852308000,0.53,7.67,-6.09,5
2,9964902326000,0.42,5.83,-5.09,5
2,9964952344000,-2.79,4.56,-1.33,5
2,9965002302000,-0.53,7.06,6.82,5
2,9965052289000,-4.44,12.34,3.45,5
2,9965102308000,-7.86,13.59,-4.33,5
2,9965152295000,-5.13,12.07,-2.34,5
2,9965202283000,-2.91,13.4,-1.38,5
2,9965252302000,-4.48,9.0,-3.06,5
2,9965302289000,-7.35,6.28,-8.08,5
2,9965352308000,-6.97,3.41,-3.49,5
2,9965402295000,-2.11,3.06,4.21,5
2,9965452314000,-3.17,4.21,-0.11,5
2,9965502302000,-4.21,7.16,0.46,5
2,9965552289000,-5.13,14.29,0.04,5
2,9965602308000,-7.78,13.38,-1.84,5
2,9965652295000,-8.81,11.73,2.03,5
2,9965702314000,-7.27,8.73,-3.15,5
2,9965752302000,-5.13,6.4,-5.48,5
2,9965802320000,-1.61,8.58,-5.6,5
2,9965852308000,0.95,7.97,-7.04,5
2,9965902295000,-1.92,3.76,-2.72,5
2,9965952314000,-5.71,4.33,5.18,5
2,9966011823000,-0.65,9.43,2.34,5
2,9966011823000,-0.65,9.43,2.34,5
2,9966063093000,-5.79,13.95,-0.95,5
2,9966112775000,-7.27,10.8,-0.15,5
2,9966162458000,-4.9,11.56,-2.26,5
2,9966213056000,-4.29,12.41,-3.45,5
2,9966262739000,-5.6,8.16,-6.85,5
2,9966312330000,-6.43,3.79,-5.94,5
2,9966362867000,-5.24,2.49,1.57,5
2,9966412458000,-3.26,4.82,2.96,5
2,9966463056000,-5.05,5.71,-0.34,5
2,9966512617000,-6.02,9.23,-0.27,5
2,9966563276000,-5.18,11.92,-3.57,5
2,9966622266000,-6.24,15.47,0.61,5
2,9966682294000,-9.34,11.22,-2.64,5
2,9966732343000,-4.21,4.79,-4.37,5
2,9966782483000,-0.99,4.44,-5.28,5
2,9966832349000,-0.34,6.32,-6.85,5
2,9966882337000,-2.22,7.06,-3.3,5
2,9966932325000,-4.48,7.44,3.68,5
2,9966982374000,0.38,9.58,5.22,5
2,9967032361000,-4.44,12.6,-0.95,5
2,9967082349000,-8.05,11.56,-3.6,5
2,9967132337000,-5.67,11.96,-1.65,5
2,9967182325000,-7.12,13.21,-5.79,5
2,9967232343000,-6.55,6.4,-7.7,5
2,9967282331000,-7.55,1.73,-1.69,5
2,9967332349000,-3.91,2.15,3.72,5
2,9967382337000,-2.68,4.02,-1.5,5
2,9967432325000,-2.64,6.17,-1.23,5
2,9967482343000,-3.17,13.53,1.12,5
2,9967532331000,-6.05,15.24,-0.46,5
2,9967582349000,-9.89,11.14,-0.8,5
2,9967632337000,-8.2,9.11,-4.52,5
2,9967682325000,-6.85,8.54,-5.94,5
2,9967732343000,-1.27,7.78,-4.33,5
2,9967782331000,0.72,6.66,-5.86,5
2,9967832349000,-1.12,3.83,-2.3,5
2,9967882337000,-5.18,3.38,1.92,5
2,9967932325000,-3.45,7.78,1.5,5
2,9967982374000,-6.55,13.1,-0.69,5
2,9968032331000,-4.99,11.73,0.11,5
2,9968082349000,-4.75,13.38,0.19,5
2,9968132337000,-5.05,11.92,-2.72,5
2,9968182325000,-5.48,7.55,-6.89,5
2,9968232343000,-8.01,4.94,-7.63,5
2,9968282575000,-7.46,2.83,2.56,5
2,9968332349000,-2.53,4.33,1.42,5
2,9968382337000,-2.72,4.52,-2.03,5
2,9968432325000,-2.64,10.04,0.04,5
2,9968482343000,-4.67,15.94,2.53,5
2,9968532331000,-7.86,11.73,-2.37,5
2,9968582349000,-8.2,9.34,-4.56,5
2,9968632337000,-8.5,8.39,-4.99,5
2,9968682325000,-3.06,5.83,-3.11,5
2,9968732374000,-0.42,8.89,-3.91,5
2,9968782300000,0.31,6.93,-5.09,5
2,9968832349000,-2.3,3.38,-1.18,5
2,9968882337000,-4.1,6.13,2.41,5
2,9968932325000,-3.41,11.69,2.3,5
2,9968982374000,-8.01,14.21,-2.18,5
2,9969032331000,-6.74,10.61,-0.46,5
2,9969082349000,-3.36,11.75,-3.11,5
2,9969132337000,-4.56,8.89,-6.05,5
2,9969182325000,-6.74,6.09,-7.21,5
2,9969232343000,-7.65,3.83,-1.73,5
2,9969282300000,-1.99,3.76,4.6,5
2,9969332349000,-2.72,4.06,-0.46,5
2,9969382337000,-4.48,6.55,-0.8,5
2,9969432325000,-5.6,14.06,-2.34,5
2,9969482404000,-6.66,17.05,3.38,5
2,9969532331000,-7.55,10.8,-1.76,5
2,9969582349000,-8.66,8.62,-7.89,5
2,9969632337000,-4.18,5.67,-4.52,5
2,9969682325000,-1.69,7.25,-3.57,5
2,9969732343000,-0.57,5.75,-4.25,5
2,9969782697000,-0.69,3.72,-2.6,5
2,9969832349000,-4.06,4.94,0.15,5
2,9969882337000,-6.7,12.37,4.56,5
2,9969932325000,-6.09,11.45,1.23,5
2,9969982374000,-6.05,10.5,-1.18,5
2,9970032331000,-5.6,14.37,-3.91,5
2,9970082349000,-5.63,9.28,-5.41,5
2,9970132337000,-5.75,4.71,-6.78,5
2,9970182325000,-6.97,2.45,-3.49,5
2,9970232343000,-4.18,3.41,1.04,5
2,9970282300000,-2.45,6.21,2.15,5
2,9970332349000,-3.87,8.12,1.23,5
2,9970382337000,-5.13,11.11,-3.49,5
2,9970432325000,-7.89,14.98,-1.61,5
2,9970482343000,-7.12,11.96,0.65,5
2,9970532331000,-7.78,8.62,-7.31,5
2,9970582349000,-5.24,5.52,-6.7,5
2,9970632337000,-2.41,6.4,-3.87,5
2,9970682325000,-1.61,6.55,-3.79,5
2,9970732343000,-1.08,4.48,-2.34,5
2,9970782300000,-2.26,3.91,2.6,5
2,9970852338000,-4.67,13.1,5.22,5
2,9970902234000,-5.09,12.49,-2.07,5
2,9970952375000,-5.63,11.07,-3.21,5
2,9971002271000,-5.52,11.8,-3.41,5
2,9971052289000,-5.28,8.28,-6.36,5
2,9971102308000,-6.85,4.9,-6.09,5
2,9971152295000,-4.71,2.79,1.84,5
2,9971202314000,-3.06,5.18,1.69,5
2,9971252302000,-4.52,5.09,-2.3,5
2,9971302320000,-4.48,9.3,0.5,5
2,9971352308000,-4.52,16.44,-0.69,5
2,9971402295000,-8.47,12.95,1.12,5
2,9971452314000,-7.55,9.3,-4.33,5
2,9971502302000,-7.44,7.89,-6.78,5
2,9971552289000,-3.53,6.59,-3.64,5
2,9971602308000,-0.46,8.24,-6.47,5
2,9971652295000,-0.3,4.94,-4.06,5
2,9971702344000,-2.18,3.02,-0.57,5
2,9971752332000,-3.91,6.63,4.71,5
2,9971802289000,-4.94,13.8,2.18,5
2,9971852308000,-5.63,11.41,-2.72,5
2,9971902295000,-5.75,12.11,-0.38,5
2,9971952314000,-3.91,13.14,-1.84,5
2,9972002515000,-5.67,9.28,-5.48,5
2,9972052320000,-7.7,5.79,-8.08,5
2,9972102308000,-6.55,2.41,-2.3,5
2,9972152326000,-2.6,2.96,2.98,5
2,9972202314000,-4.1,5.52,0.46,5
2,9972252332000,-6.63,6.24,-1.73,5
2,9972302289000,-4.82,13.57,-0.91,5
2,9972352308000,-6.36,13.4,0.8,5
2,9972402295000,-8.81,10.19,-1.8,5
2,9972452314000,-10.08,9.0,-8.81,5
2,9972502302000,-5.41,5.83,-4.52,5
2,9972552289000,-1.73,7.12,-1.27,5
2,9972602308000,0.11,8.24,-5.2,5
2,9972652295000,-0.27,3.79,-4.82,5
2,9972702314000,-3.68,4.44,-0.04,5
2,9972752332000,-5.24,9.62,3.6,5
2,9972802289000,-7.86,11.88,0.42,5
2,9972852308000,-6.55,10.73,-3.11,5
2,9972902295000,-1.76,13.06,-1.12,5
2,9972952314000,-2.41,12.26,-0.91,5
2,9973002302000,-6.47,7.89,-6.21,5
2,9973052289000,-10.19,4.21,-9.0,5
2,9973102308000,-7.55,1.08,4.86,5
2,9973152295000,-2.41,3.21,0.69,5
2,9973202314000,-3.57,5.6,-1.88,5
2,9973252332000,-5.33,8.69,0.08,5
2,9973302289000,-6.36,11.92,-2.22,5
2,9973352308000,-7.86,13.33,-1.31,5
2,9973402295000,-10.15,9.47,-2.11,5
2,9973452344000,-9.43,6.66,-7.78,5
2,9973502302000,-4.25,4.99,-4.25,5
2,9973552289000,-2.22,8.92,-3.02,5
2,9973602308000,0.0,8.58,-5.71,5
2,9973652295000,0.04,3.83,-3.68,5
2,9973702314000,-2.07,5.01,0.93,5
2,9973752332000,-5.13,10.76,7.93,5
2,9973802289000,-7.04,12.34,-2.41,5
2,9973852338000,-4.71,10.15,-6.43,5
2,9973902295000,-2.91,11.56,-4.14,5
2,9973952344000,-4.71,11.41,-2.37,5
2,9974002576000,-7.93,7.01,-3.68,5
2,9974052289000,-11.33,2.96,-2.6,5
2,9974102308000,-3.64,3.41,-0.04,5
2,9974152295000,-1.04,4.18,-0.8,5
2,9974202314000,-4.37,6.09,-1.08,5
2,9974252332000,-6.59,12.26,1.18,5
2,9974302289000,-5.28,11.35,-1.33,5
2,9974352308000,-8.24,11.07,-2.34,5
2,9974402295000,-11.5,10.5,-5.43,5
2,9974452344000,-5.98,4.94,-5.71,5
2,9974502332000,-2.34,5.41,-2.83,5
2,9974552289000,-1.92,9.43,-5.28,5
2,9974602308000,-0.3,6.44,-4.94,5
2,9974652295000,-2.07,3.53,-1.14,5
2,9974702344000,-2.49,7.89,6.24,5
2,9974752332000,-5.18,12.26,1.27,5
2,9974802289000,-6.63,10.53,-5.01,5
2,9974852308000,-5.05,9.85,-2.26,5
2,9974902295000,-3.95,13.63,-0.95,5
2,9974952314000,-4.48,9.23,-3.41,5
2,9975002332000,-6.78,6.51,-8.01,5
2,9975052289000,-9.08,3.6,-4.79,5
2,9975102308000,-3.15,3.79,5.37,5
2,9975152295000,-3.53,5.43,-0.46,5
2,9975202314000,-4.48,5.52,-1.76,5
2,9975252302000,-4.86,9.53,-0.91,5
2,9975302289000,-6.82,14.82,-2.14,5
2,9975352308000,-7.65,12.76,0.08,5
2,9975402295000,-10.42,9.38,-6.66,5
2,9975452314000,-6.85,5.09,-5.28,5
2,9975502302000,-2.83,4.99,-1.95,5
2,9975552289000,-0.84,8.85,-5.79,5
2,9975602308000,-0.19,6.32,-5.56,5
2,9975652295000,-2.6,4.25,0.53,5
2,9975702314000,-1.61,8.08,6.05,5
2,9975752302000,-4.06,13.72,1.23,5
2,9975802289000,-6.82,11.65,-2.83,5
2,9975852308000,-5.09,9.7,-1.31,5
2,9975852308000,-5.09,9.7,-1.31,5
2,9975922285000,-4.99,12.6,-2.45,5
2,9975972303000,-6.66,7.5,-5.67,5
2,9976022260000,-7.55,3.57,-4.37,5
2,9976082319000,-6.28,2.6,3.87,5
2,9976132337000,-2.68,3.11,-1.14,5
2,9976182325000,-5.05,6.28,0.04,5
2,9976232343000,-5.79,11.8,0.31,5
2,9976282300000,-5.98,15.66,-2.22,5
2,9976332349000,-8.85,9.96,1.46,5
2,9976382337000,-9.92,9.28,-5.18,5
2,9976432325000,-7.12,6.59,-6.13,5
2,9976482343000,-2.83,6.17,-2.3,5
2,9976532331000,-0.38,8.01,-5.18,5
2,9976582349000,0.04,5.01,-4.37,5
2,9976632337000,-2.53,4.56,-0.72,5
2,9976682325000,-5.28,8.43,5.24,5
2,9976732343000,-4.94,12.64,2.56,5
2,9976782300000,-4.37,10.76,-1.99,5
2,9976832349000,-5.63,12.79,-2.18,5
2,9976882337000,-5.41,12.49,-1.76,5
2,9976932325000,-5.67,8.01,-5.37,5
2,9976982374000,-8.66,5.43,-7.27,5
2,9977032331000,-7.04,2.64,0.23,5
2,9977082349000,-1.46,4.63,3.57,5
2,9977132337000,-3.91,5.09,-2.11,5
2,9977182355000,-4.21,7.5,-0.76,5
2,9977232343000,-3.72,14.79,0.46,5
2,9977282300000,-7.21,13.59,2.87,5
2,9977332349000,-10.57,10.84,-3.79,5
2,9977382337000,-8.81,9.66,-7.12,5
2,9977432325000,-3.06,7.08,-3.36,5
2,9977482343000,0.61,9.38,-5.41,5
2,9977532331000,0.46,5.86,-5.79,5
2,9977582349000,-2.98,2.98,0.08,5
2,9977632337000,-3.06,4.37,4.37,5
2,9977682325000,-3.41,11.65,2.56,5
2,9977732343000,-7.35,12.45,-0.3,5
2,9977732343000,-7.35,12.45,-0.3,5
2,9977851941000,-4.75,11.75,-1.42,5
2,9977902143000,-4.82,7.86,-4.21,5
2,9977952222000,-8.43,6.74,-8.5,5
2,9978002363000,-8.69,4.25,-3.06,5
2,9978052289000,-2.75,6.32,5.18,5
2,9978102338000,-2.03,5.09,-1.08,5
2,9978152295000,-2.3,6.13,-0.99,5
2,9978202375000,-4.44,13.21,1.92,5
2,9978252424000,-8.96,16.7,-1.18,5
2,9978302320000,-9.08,9.15,0.53,5
2,9978352369000,-9.08,8.35,-7.04,5
2,9978402357000,-4.59,5.75,-5.05,5
2,9978452314000,-0.57,7.74,-3.36,5
2,9978502302000,0.65,8.54,-6.74,5
2,9978552320000,-2.41,4.82,-2.98,5
2,9978602308000,-3.6,5.67,4.71,5
2,9978652295000,-0.72,9.96,6.09,5
2,9978702314000,-6.66,12.6,-1.5,5
2,9978752759000,-5.43,9.85,-2.96,5
2,9978802320000,-1.95,10.65,-1.73,5
2,9978852308000,-4.1,14.21,-1.65,5
2,9978902295000,-7.65,10.27,-6.74,5
2,9978952314000,-9.77,5.67,-8.43,5
2,9979002332000,-5.63,2.64,5.01,5
2,9979052289000,-1.27,4.33,0.27,5
2,9979102308000,-1.73,4.52,-1.14,5
2,9979152295000,-3.95,7.46,-0.69,5
2,9979202344000,-7.59,14.67,-1.14,5
2,9979252637000,-7.46,11.73,1.27,5
2,9979302289000,-7.46,10.46,-3.15,5
2,9979352308000,-8.43,10.88,-6.36,5
2,9979402295000,-4.56,7.63,-5.01,5
2,9979452314000,0.31,7.21,-4.21,5
2,9979502302000,-0.04,6.59,-4.86,5
2,9979552289000,-3.17,5.18,-1.14,5
2,9979602308000,-3.02,4.99,5.9,5
2,9979652295000,-1.65,9.77,0.57,5
2,9979702314000,-6.21,14.1,-3.21,5
2,9979752302000,-7.65,10.46,0.84,5
2,9979802320000,-5.37,13.87,-1.65,5
2,9979852308000,-4.29,10.57,-3.15,5
2,9979902295000,-5.2,6.7,-6.93,5
2,9979952344000,-6.36,3.79,-4.9,5
2,9980002607000,-5.6,4.33,3.38,5
2,9980052259000,-2.26,4.33,0.53,5
2,9980102308000,-2.53,4.6,-0.38,5
2,9980152295000,-4.25,9.96,-0.19,5
2,9980202314000,-6.74,14.33,-1.04,5
2,9980252332000,-9.49,10.65,1.38,5
2,9980252332000,-9.49,10.65,1.38,5
2,9980312971000,-8.35,10.46,-3.02,5
2,9980362653000,-7.16,8.08,-6.09,5
2,9980413251000,-2.56,7.74,-5.2,5
2,9980472272000,-0.11,8.73,-7.21,5
2,9980532300000,-4.67,4.56,-0.8,5
2,9980582319000,-2.64,3.79,3.21,5
2,9980632276000,0.34,8.39,0.5,5
2,9980682294000,-7.35,13.4,0.93,5
2,9980752363000,-4.59,10.8,0.08,5
2,9980802259000,-5.71,13.14,-1.88,5
2,9980852338000,-6.02,9.92,-3.91,5
2,9980902265000,-6.89,7.31,-7.82,5
2,9980952314000,-7.35,4.56,-3.53,5
2,9981002302000,-2.26,4.94,4.44,5
2,9981052289000,-1.23,4.29,0.42,5
2,9981102308000,-2.45,5.79,-0.04,5
2,9981152295000,-6.36,12.72,-2.3,5
2,9981202314000,-9.0,13.14,0.0,5
2,9981252332000,-9.34,10.5,-0.11,5
2,9981302320000,-9.11,11.6,-6.85,5
2,9981352308000,-4.63,6.74,-4.82,5
2,9981402295000,-1.76,6.13,-2.34,5
2,9981452344000,-1.23,7.21,-5.52,5
2,9981502302000,-0.95,4.82,-3.45,5
2,9981552320000,-2.96,4.86,-0.38,5
2,9981602308000,-4.4,9.7,6.28,5
2,9981652295000,-6.32,10.92,1.33,5
2,9981702314000,-4.67,8.47,-2.96,5
2,9981752302000,-3.76,11.35,-2.14,5
2,9981802320000,-5.63,15.05,-1.61,5
2,9981852308000,-6.85,10.0,-5.52,5
2,9981902295000,-7.86,4.6,-6.78,5
2,9981952314000,-8.66,1.33,4.02,5
2,9982002851000,-2.41,4.63,-0.57,5
2,9982052289000,-2.07,5.43,-1.42,5
2,9982102308000,-2.91,7.25,0.34,5
2,9982152295000,-5.75,12.91,-0.38,5
2,9982202314000,-9.23,13.99,-2.03,5
2,9982252302000,-7.46,9.19,-0.46,5
2,9982302320000,-7.74,10.5,-3.26,5
2,9982352308000,-6.21,6.82,-5.52,5
2,9982402295000,-2.98,5.52,-3.36,5
2,9982452314000,-1.04,7.44,-4.75,5
2,9982502302000,-0.72,5.79,-3.45,5
2,9982552289000,-1.73,3.79,-1.18,5
2,9982602308000,-3.79,9.15,4.6,5
2,9982652295000,-6.55,15.28,2.49,5
2,9982702314000,-5.48,10.0,-2.83,5
2,9982752302000,-4.29,9.85,-2.83,5
2,9982802350000,-4.37,13.95,-3.64,5
2,9982852308000,-6.93,9.58,-5.05,5
2,9982902295000,-7.78,4.33,-5.24,5
2,9982952344000,-7.44,0.15,5.41,5
2,9983002332000,-2.68,5.41,-1.57,5
2,9983052289000,-3.11,5.71,-1.31,5
2,9983102308000,-4.21,8.43,1.95,5
2,9983152295000,-5.28,11.92,-0.46,5
2,9983202314000,-6.93,11.54,-2.41,5
2,9983252302000,-9.49,10.15,-0.3,5
2,9983302320000,-10.8,11.03,-6.97,5
2,9983352308000,-4.94,7.16,-4.44,5
2,9983402295000,-1.69,8.62,-3.68,5
2,9983452314000,0.04,7.27,-6.17,5
2,9983502302000,-0.11,3.41,-2.45,5
2,9983552289000,-1.84,3.68,0.57,5
2,9983602308000,-3.98,10.15,5.43,5
2,9983652295000,-7.21,12.76,1.57,5
2,9983702314000,-5.75,10.73,-2.37,5
2,9983752302000,-2.34,11.11,-2.3,5
2,9983802289000,-5.01,12.37,-1.99,5
2,9983852308000,-7.86,9.43,-6.74,5
2,9983902295000,-9.72,4.6,-5.43,5
2,9983952314000,-5.48,1.84,4.9,5
2,9984002790000,-1.84,5.09,-1.69,5
2,9984052289000,-3.3,5.37,-1.92,5
2,9984102338000,-3.36,9.51,1.84,5
2,9984152326000,-3.95,13.29,0.8,5
2,9984202314000,-8.05,11.37,-1.95,5
2,9984252302000,-11.69,10.61,-2.79,5
2,9984302320000,-8.58,8.96,-5.71,5
2,9984352308000,-3.17,6.21,-3.76,5
2,9984402295000,-0.65,9.34,-5.28,5
2,9984452314000,-0.89,7.25,-5.33,5
2,9984502302000,-2.37,3.6,-1.53,5
2,9984552289000,-2.75,5.43,3.34,5
2,9984602308000,-3.3,11.5,5.37,5
2,9984652295000,-6.63,10.31,-2.07,5
2,9984702314000,-5.9,10.0,-4.33,5
2,9984752302000,-0.34,12.03,0.04,5
2,9984802289000,-2.72,14.25,0.04,5
2,9984852308000,-8.39,11.18,-6.24,5
2,9984902295000,-8.47,4.4,-9.38,5
2,9984952314000,-4.86,0.8,5.75,5
2,9985002332000,-2.98,3.11,1.14,5
2,9985052289000,-5.6,6.09,-2.3,5
2,9985102308000,-4.79,9.51,-0.72,5
2,9985152295000,-2.98,12.11,0.23,5
2,9985202314000,-9.81,12.6,-0.15,5
2,9985252332000,-7.65,10.38,-1.33,5
2,9985302320000,-6.82,10.8,-4.56,5
2,9985352308000,-4.86,6.97,-4.59,5
2,9985402326000,-0.5,7.08,-3.3,5
2,9985452314000,-0.46,8.2,-6.36,5
2,9985502302000,-2.18,5.71,-3.72,5
2,9985552289000,-4.33,3.41,2.26,5
2,9985602308000,-1.73,8.85,4.86,5
2,9985652295000,-5.2,12.15,0.08,5
2,9985702314000,-4.94,10.8,-3.91,5
2,9985752302000,-4.63,11.75,-1.88,5
2,9985752302000,-4.63,11.75,-1.88,5
2,9985822278000,-6.21,13.18,-1.12,5
2,9985882306000,-6.13,7.31,-6.51,5
2,9985932294000,-5.09,2.76,-3.11,5
2,9985982343000,-4.82,4.6,1.38,5
2,9986032300000,-3.79,5.79,0.15,5
2,9986082319000,-4.56,5.9,-0.61,5
2,9986132306000,-5.75,10.65,0.04,5
2,9986182294000,-6.17,11.99,-2.49,5
2,9986232313000,-8.05,11.56,0.99,5
2,9986282300000,-9.58,10.42,-5.48,5
2,9986332319000,-6.36,7.89,-6.17,5
2,9986382306000,-2.18,6.4,-2.41,5
2,9986432264000,-0.34,7.59,-4.56,5
2,9986482313000,-0.46,6.02,-4.48,5
2,9986532300000,-2.83,5.28,-1.5,5
2,9986582319000,-2.03,8.69,4.9,5
2,9986632276000,-2.22,12.26,2.87,5
2,9986682294000,-4.4,12.41,-1.14,5
2,9986732343000,-4.9,10.88,-2.18,5
2,9986782300000,-6.13,12.49,-2.03,5
2,9986832319000,-6.51,10.08,-4.59,5
2,9986882306000,-6.47,5.71,-5.98,5
2,9986932325000,-8.5,0.84,4.99,5
2,9986982343000,-2.3,4.25,-1.18,5
2,9987032331000,-3.3,6.05,-1.92,5
2,9987082349000,-3.6,8.24,-0.11,5
2,9987132337000,-3.95,13.63,2.37,5
2,9987182355000,-6.32,12.41,-1.57,5
2,9987232343000,-9.11,10.42,-1.46,5
2,9987282331000,-9.15,10.65,-4.52,5
2,9987332380000,-5.33,7.27,-4.25,5
2,9987382368000,-1.5,7.08,-3.57,5
2,9987432325000,0.04,8.2,-5.82,5
2,9987482343000,-1.14,5.79,-3.02,5
2,9987532331000,-4.25,4.4,1.42,5
2,9987582349000,-3.87,8.08,3.49,5
2,9987632337000,-5.48,13.06,0.19,5
2,9987682325000,-0.99,11.54,2.11,5
2,9987732313000,-2.56,13.8,2.11,5
2,9987782361000,-7.08,16.97,-1.57,5
2,9987832349000,-5.67,8.2,-4.1,5
2,9987882337000,-4.14,3.06,-6.05,5
2,9987932355000,-5.43,1.23,-2.68,5
2,9987982374000,-5.28,4.67,7.74,5
2,9988032331000,-4.02,6.05,-0.76,5
2,9988082349000,-5.01,10.23,0.53,5
2,9988132337000,-5.09,12.45,4.71,5
2,9988182325000,-8.24,9.72,-0.91,5
2,9988232343000,-7.78,10.31,0.19,5
2,9988282361000,-8.39,11.6,-0.5,5
2,9988332349000,-6.97,8.58,-3.34,5
2,9988382337000,0.99,7.78,-5.37,5
2,9988432294000,0.53,7.78,-5.75,5
2,9988482343000,-7.59,5.41,4.99,5
2,9988532331000,-0.65,3.87,3.53,5
2,9988582349000,-1.99,7.89,-1.95,5
2,9988632337000,-7.16,10.23,-0.8,5
2,9988682325000,-7.93,10.8,1.99,5
2,9988732343000,-6.02,11.18,3.3,5
2,9988782331000,-5.48,10.0,-0.61,5
2,9988832349000,-6.32,7.67,-4.67,5
2,9988882337000,-6.28,4.75,-5.82,5
2,9988932325000,-10.08,5.24,3.15,5
2,9988982343000,-1.57,4.14,0.15,5
2,9989032331000,-0.99,3.64,-0.38,5
2,9989082349000,-5.24,7.67,4.4,5
2,9989132368000,-6.28,12.45,0.31,5
2,9989182355000,-10.34,13.29,-1.5,5
2,9989232343000,-8.08,9.96,1.23,5
2,9989282361000,-5.67,7.93,-2.64,5
2,9989332349000,-6.55,9.51,-7.08,5
2,9989382337000,-2.49,9.11,-5.71,5
2,9989432325000,0.57,6.82,-4.14,5
2,9989482343000,-2.3,4.9,-1.23,5
2,9989532331000,-7.5,6.85,3.72,5
2,9989582349000,-0.84,8.12,-0.15,5
2,9989632337000,-3.87,10.8,-1.42,5
2,9989682325000,-6.32,10.27,-0.3,5
2,9989732343000,-5.41,12.3,-0.23,5
2,9989782331000,-4.1,14.02,-1.73,5
2,9989832349000,-4.21,9.0,-4.52,5
2,9989882337000,-5.67,5.56,-7.78,5
2,9989932325000,-7.35,3.34,-2.87,5
2,9989982374000,-4.44,4.52,3.95,5
2,9990032331000,-4.25,5.43,-1.38,5
2,9990082349000,-4.37,7.16,1.12,5
2,9990132337000,-5.01,9.34,0.84,5
2,9990182325000,-7.04,11.03,-3.76,5
2,9990232343000,-8.2,14.79,0.31,5
2,9990282331000,-9.04,9.66,-3.98,5
2,9990332349000,-5.09,4.94,-5.56,5
2,9990382337000,-2.14,4.82,-3.34,5
2,9990432325000,-1.92,7.55,-4.56,5
2,9990482343000,-1.8,7.08,-3.91,5
2,9990532331000,-4.18,5.13,-0.27,5
2,9990582349000,-3.02,9.11,5.86,5
2,9990632337000,-4.18,12.3,-2.83,5
2,9990702344000,-5.43,9.43,-2.83,5
2,9990752241000,-5.6,12.91,-1.46,5
2,9990802350000,-4.48,11.65,-1.88,5
2,9990852247000,-5.28,7.44,-5.18,5
2,9990902295000,-6.09,4.6,-6.28,5
2,9990952314000,-5.94,3.6,-0.19,5
2,9991002332000,-3.02,5.71,2.83,5
2,9991052289000,-3.45,6.44,-0.8,5
2,9991102308000,-4.14,9.28,0.19,5
2,9991152295000,-6.09,12.07,-1.65,5
2,9991202314000,-9.72,14.52,0.34,5
2,9991252302000,-8.16,11.35,-2.72,5
2,9991302320000,-7.01,7.97,-6.21,5
2,9991352308000,-2.6,5.37,-2.72,5
2,9991402295000,-0.08,7.4,-4.71,5
2,9991452314000,-0.57,6.74,-4.94,5
2,9991502302000,-1.76,4.75,-2.22,5
2,9991552289000,-5.28,5.56,4.94,5
2,9991602308000,-6.59,12.83,3.91,5
2,9991652295000,-4.75,8.62,-1.53,5
2,9991702314000,-3.83,10.73,-3.41,5
2,9991752302000,-4.99,15.51,-2.98,5
2,9991802320000,-6.7,10.73,-2.79,5
2,9991852308000,-5.48,5.9,-5.13,5
2,9991902295000,-6.13,3.34,-3.41,5
2,9991952344000,-5.05,3.83,2.07,5
2,9992002515000,-3.3,3.72,-0.46,5
2,9992052289000,-3.6,5.71,-0.91,5
2,9992102308000,-3.83,12.98,0.42,5
2,9992152295000,-5.24,13.82,0.95,5
2,9992202314000,-7.89,12.15,-2.3,5
2,9992252302000,-11.45,9.96,-5.09,5
2,9992302320000,-6.05,5.71,-4.52,5
2,9992352338000,-2.18,5.52,-1.33,5
2,9992402295000,-0.69,8.92,-3.95,5
2,9992452314000,0.15,7.5,-5.09,5
2,9992502302000,-0.61,4.86,-2.34,5
2,9992552289000,-4.67,6.59,1.33,5
2,9992602338000,-7.55,11.3,3.57,5
2,9992652295000,-5.98,10.69,-1.08,5
2,9992702314000,-4.79,12.11,-3.02,5
2,9992752332000,-4.02,13.06,-2.98,5
2,9992802320000,-5.18,9.34,-4.1,5
2,9992852338000,-6.97,6.44,-7.16,5
2,9992902326000,-8.5,2.76,-0.61,5
2,9992952344000,-3.79,2.87,1.99,5
2,9993002363000,-3.72,4.4,-1.57,5
2,9993052350000,-4.86,6.82,-0.19,5
2,9993102308000,-5.82,10.5,-0.04,5
2,9993152326000,-4.94,12.18,-2.37,5
2,9993202344000,-8.16,13.4,1.33,5
2,9993252363000,-10.57,10.15,-3.11,5
2,9993302320000,-7.5,7.5,-6.59,5
2,9993352338000,-2.96,6.24,-3.11,5
2,9993402295000,-0.76,7.82,-4.33,5
2,9993452344000,-0.38,5.56,-4.29,5
2,9993502332000,-1.76,3.95,-1.53,5
2,9993552289000,-3.91,6.74,3.06,5
2,9993602308000,-5.71,11.6,3.95,5
2,9993652357000,-6.55,10.04,-1.23,5
2,9993702314000,-5.6,11.18,-3.26,5
2,9993752302000,-3.68,13.06,-1.53,5
2,9993802350000,-5.37,9.47,-3.06,5
2,9993852338000,-7.16,7.16,-7.5,5
2,9993902295000,-9.34,3.38,-1.31,5
2,9993952344000,-3.68,3.68,1.92,5
2,9994002607000,-4.14,5.24,-2.72,5
2,9994052289000,-3.41,5.52,-1.65,5
2,9994102369000,-2.98,11.41,2.34,5
2,9994152326000,-2.96,14.63,-0.72,5
2,9994202344000,-9.58,11.56,-0.19,5
2,9994252302000,-10.88,9.19,-4.9,5
2,9994302686000,-6.93,7.21,-6.02,5
2,9994352308000,-2.83,7.01,-3.45,5
2,9994402326000,0.34,8.39,-5.56,5
2,9994452314000,-0.34,5.86,-4.9,5
2,9994502302000,-3.21,4.94,-0.8,5
2,9994552289000,-2.18,8.62,4.06,5
2,9994602308000,-3.34,10.92,3.6,5
2,9994652295000,-7.08,11.22,-3.21,5
2,9994702314000,-6.21,10.19,-2.6,5
2,9994752332000,-3.76,13.29,-1.27,5
2,9994802320000,-5.01,10.53,-2.79,5
2,9994852308000,-6.63,7.4,-6.89,5
2,9994902295000,-6.7,3.41,-4.48,5
2,9994952344000,-3.64,3.83,5.37,5
2,9995002302000,-3.49,4.79,-1.08,5
2,9995052289000,-3.76,6.05,-1.46,5
2,9995102308000,-4.9,12.91,2.22,5
2,9995152295000,-5.6,13.57,-0.65,5
2,9995202314000,-9.19,9.43,0.8,5
2,9995252271000,-9.19,10.12,-2.22,5
2,9995302320000,-6.55,8.24,-5.56,5
2,9995352308000,-1.69,6.51,-3.02,5
2,9995402295000,1.31,8.81,-6.82,5
2,9995452314000,-0.84,6.74,-4.25,5
2,9995502302000,-6.82,5.01,3.26,5
2,9995552289000,-0.8,7.08,4.33,5
2,9995602308000,-4.1,11.8,0.34,5
2,9995652295000,-7.04,10.88,-1.12,5
2,9995702314000,-5.43,10.08,-0.38,5
2,9995702314000,-5.43,10.08,-0.38,5
2,9995772291000,-3.98,13.63,-0.57,5
2,9995822278000,-5.6,9.28,-4.99,5
2,9995872266000,-6.55,5.41,-6.85,5
2,9995932294000,-8.24,2.56,4.52,5
2,9995982313000,-3.26,4.29,-1.57,5
2,9996032300000,-4.25,4.48,-2.26,5
2,9996082319000,-4.48,9.89,3.3,5
2,9996132306000,-4.82,11.35,-0.89,5
2,9996182294000,-5.75,13.21,-3.17,5
2,9996232313000,-12.68,10.61,3.6,5
2,9996282239000,-8.35,8.62,-7.25,5
2,9996332349000,-3.79,7.12,-5.86,5
2,9996382337000,-0.04,9.11,-4.63,5
2,9996432325000,0.19,7.97,-5.98,5
2,9996482343000,-1.95,3.79,-1.92,5
2,9996532331000,-5.94,5.79,3.49,5
2,9996582349000,-2.26,10.15,3.02,5
2,9996632337000,-4.37,10.19,-0.91,5
2,9996682325000,-6.09,8.77,-2.68,5
2,9996732343000,-3.98,11.8,-0.76,5
2,9996782331000,-5.28,15.02,0.15,5
2,9996832349000,-5.2,9.51,-4.59,5
2,9996882398000,-6.55,5.94,-8.66,5
2,9996932325000,-9.15,2.64,-1.53,5
2,9996982343000,-4.33,3.68,3.11,5
2,9997032331000,-3.6,4.52,-2.03,5
2,9997082349000,-3.06,6.4,-0.3,5
2,9997132337000,-4.63,12.41,1.73,5
2,9997182325000,-6.02,12.83,-2.22,5
2,9997232343000,-9.08,10.46,-0.76,5
2,9997282331000,-8.69,10.5,-2.79,5
2,9997332349000,-8.12,9.23,-7.01,5
2,9997382337000,-2.41,5.75,-2.18,5
2,9997432325000,-0.42,7.06,-3.91,5
2,9997482343000,-0.95,6.47,-5.2,5
2,9997532331000,-2.3,5.28,-2.79,5
2,9997582349000,-3.26,6.02,4.56,5
2,9997632337000,-6.24,10.61,4.48,5
2,9997682325000,-6.17,9.38,-2.75,5
2,9997732343000,-3.45,9.92,-3.21,5
2,9997782331000,-4.71,15.05,-0.11,5
2,9997832349000,-6.63,12.37,-3.41,5
2,9997882337000,-5.71,6.55,-6.82,5
2,9997932325000,-7.89,2.91,-4.25,5
2,9997982374000,-5.71,2.79,3.95,5
2,9998032331000,-2.87,4.25,-1.33,5
2,9998082349000,-4.67,6.44,-2.18,5
2,9998132306000,-4.67,9.92,0.89,5
2,9998182355000,-3.76,11.3,-0.99,5
2,9998232343000,-8.27,12.22,-2.03,5
2,9998282331000,-9.28,10.84,-1.76,5
2,9998332380000,-8.35,10.0,-5.98,5
2,9998382368000,-4.14,5.67,-3.83,5
2,9998432325000,-0.76,6.13,-3.34,5
2,9998482343000,-0.27,7.16,-5.56,5
2,9998532331000,-1.61,5.75,-3.41,5
2,9998582349000,-4.99,5.48,0.93,5
2,9998632337000,-4.71,9.89,4.44,5
2,9998682325000,-6.28,10.46,-1.46,5
2,9998732343000,-6.17,10.19,-3.21,5
2,9998782331000,-4.9,13.1,0.08,5
2,9998832349000,-5.2,13.06,-3.06,5
2,9998882337000,-5.13,7.93,-5.98,5
2,9998932325000,-5.2,3.64,-5.75,5
2,9998982374000,-7.12,2.07,2.96,5
2,9999032331000,-4.67,4.44,0.0,5
2,9999082349000,-4.33,5.86,-2.3,5
2,9999132337000,-4.48,9.96,1.46,5
2,9999182325000,-5.56,11.69,-0.69,5
2,9999232343000,-8.62,11.03,-1.53,5
2,9999282361000,-8.66,9.53,-0.53,5
2,9999332349000,-8.24,10.31,-5.9,5
2,9999382337000,-4.71,7.16,-4.06,5
2,9999432325000,-0.99,7.78,-2.75,5
2,9999482343000,-0.11,7.93,-5.82,5
2,9999532361000,-1.38,4.56,-3.36,5
2,9999582349000,-4.02,4.4,2.3,5
2,9999632337000,-4.63,8.96,5.05,5
2,9999682325000,-6.97,11.45,-0.11,5
2,9999732343000,-5.01,10.88,-2.83,5
2,9999782331000,-4.9,11.41,-0.99,5
2,9999832349000,-5.98,11.84,-2.22,5
2,9999882368000,-5.75,8.31,-7.08,5
2,9999932325000,-7.97,5.13,-7.12,5
2,9999982374000,-6.97,3.17,5.37,5
2,10000032331000,-3.17,4.48,-0.8,5
2,10000082349000,-2.75,4.56,-2.18,5
2,10000132429000,-2.98,9.72,1.14,5
2,10000182325000,-5.63,13.87,-0.15,5
2,10000232343000,-7.01,10.92,-0.99,5
2,10000292249000,-8.35,10.88,-2.41,5
2,10000342298000,-8.27,8.2,-7.01,5
2,10000392286000,-3.53,5.41,-3.21,5
2,10000442304000,-2.03,8.16,-4.06,5
2,10000492292000,-1.5,7.93,-5.2,5
2,10000542310000,-2.22,4.63,-2.53,5
2,10000592298000,-3.17,5.41,2.49,5
2,10000652295000,-5.86,11.6,2.49,5
2,10000702253000,-5.67,9.92,-3.45,5
2,10000752363000,-4.02,10.61,-1.69,5
2,10000802259000,-3.68,15.05,0.69,5
2,10000852308000,-5.52,10.76,-3.21,5
2,10000902295000,-6.78,6.85,-8.88,5
2,10000952375000,-7.97,3.15,-4.14,5
2,10001002302000,-4.59,3.26,5.67,5
2,10001052289000,-2.91,3.91,-2.14,5
2,10001102308000,-4.06,4.56,-2.6,5
2,10001152295000,-5.01,11.88,3.49,5
2,10001202314000,-5.79,13.91,-0.89,5
2,10001252302000,-5.43,10.69,-2.34,5
2,10001302289000,-7.89,12.3,-0.46,5
2,10001352308000,-9.15,9.7,-6.51,5
2,10001402295000,-3.41,5.48,-4.1,5
2,10001452314000,-1.33,6.63,-2.49,5
2,10001502302000,-1.23,7.46,-5.09,5
2,10001552320000,-1.04,5.33,-3.41,5
2,10001602338000,-2.79,5.63,-0.11,5
2,10001652295000,-7.4,11.3,6.7,5
2,10001702344000,-5.28,9.11,0.11,5
2,10001752302000,-3.76,10.23,-4.06,5
2,10001802289000,-4.75,14.79,-1.18,5
2,10001852308000,-5.98,11.35,-2.3,5
2,10001902295000,-5.48,6.47,-6.55,5
2,10001952314000,-7.55,3.79,-5.48,5
2,10002002515000,-5.63,3.95,2.91,5
2,10002052289000,-3.91,5.63,-0.5,5
2,10002102277000,-4.18,5.63,-1.38,5
2,10002152295000,-4.52,9.53,1.92,5
2,10002202314000,-5.75,10.12,-2.34,5
2,10002252302000,-7.01,12.18,-1.42,5
2,10002302289000,-9.38,11.99,1.33,5
2,10002352308000,-7.55,9.66,-8.08,5
2,10002402295000,-3.06,6.21,-4.37,5
2,10002452314000,-0.42,7.01,-3.76,5
2,10002502302000,-0.69,7.16,-5.18,5
2,10002552289000,-1.92,5.9,-3.15,5
2,10002602308000,-4.71,4.9,3.38,5
2,10002652295000,-5.05,10.76,5.37,5
2,10002702314000,-6.66,10.65,-2.3,5
2,10002752302000,-4.06,9.89,-3.79,5
2,10002802289000,-3.06,15.51,2.3,5
2,10002852308000,-3.91,13.18,-0.65,5
2,10002902295000,-6.02,7.93,-7.59,5
2,10002952314000,-7.4,3.72,-8.16,5
2,10003002302000,-5.24,0.99,-0.42,5
2,10003052289000,-4.37,5.05,4.18,5
2,10003102338000,-6.09,6.85,-2.45,5
2,10003152295000,-3.98,9.28,2.22,5
2,10003202314000,-5.18,10.15,0.23,5
2,10003252302000,-7.59,9.11,-3.57,5
2,10003302320000,-8.58,11.84,-1.04,5
2,10003352308000,-8.54,12.15,-5.05,5
2,10003402295000,-3.95,7.01,-4.63,5
2,10003452314000,-1.38,7.97,-2.41,5
2,10003502302000,-1.69,9.96,-4.56,5
2,10003552289000,-0.76,4.79,-3.06,5
2,10003602308000,-3.53,1.88,2.22,5
2,10003652295000,-4.82,7.97,2.37,5
2,10003702314000,-6.17,11.37,-0.46,5
2,10003752302000,-5.33,10.08,-1.42,5
2,10003802289000,-3.64,13.14,-1.31,5
2,10003852308000,-5.48,13.21,-2.56,5
2,10003902295000,-5.6,8.08,-5.86,5
2,10003952344000,-6.85,4.06,-6.89,5
2,10004002607000,-9.04,2.07,5.83,5
2,10004052289000,-3.26,5.43,-1.27,5
2,10004102308000,-3.3,7.27,-1.08,5
2,10004152295000,-5.18,9.04,1.92,5
2,10004202314000,-5.43,9.11,-1.73,5
2,10004252302000,-6.7,10.5,-1.53,5
2,10004302289000,-10.34,12.83,0.65,5
2,10004352308000,-7.55,9.23,-5.98,5
2,10004402295000,-4.67,5.83,-5.37,5
2,10004452314000,-1.95,6.47,-2.18,5
2,10004502302000,-0.3,8.01,-5.05,5
2,10004552289000,-1.53,6.05,-4.71,5
2,10004602338000,-5.98,6.28,4.14,5
2,10004652295000,-2.91,10.34,5.22,5
2,10004702314000,-6.47,10.76,-1.69,5
2,10004752302000,-4.56,9.43,-3.11,5
2,10004802289000,-3.76,13.25,-0.38,5
2,10004852308000,-6.32,11.69,-1.38,5
2,10004902295000,-4.44,6.82,-6.7,5
2,10004952314000,-7.55,4.9,-7.25,5
2,10005002302000,-8.35,4.06,2.87,5
2,10005052289000,-3.11,5.79,0.46,5
2,10005102308000,-3.76,5.43,-1.38,5
2,10005152326000,-5.09,7.06,1.5,5
2,10005202314000,-6.28,9.0,-2.03,5
2,10005252302000,-8.77,11.6,-2.68,5
2,10005302289000,-9.19,13.18,0.5,5
2,10005352308000,-8.31,8.01,-7.08,5
2,10005402295000,-3.53,4.79,-4.67,5
2,10005452314000,-2.72,7.78,-2.64,5
2,10005502302000,-2.22,8.77,-4.33,5
2,10005552289000,-0.89,5.33,-3.49,5
2,10005602308000,-3.76,4.94,3.99,5
2,10005652295000,-4.67,10.53,4.86,5
2,10005652295000,-4.67,10.53,4.86,5
2,10005722303000,-6.97,10.04,-2.79,5
2,10005772260000,-4.63,11.18,-1.23,5
2,10005822309000,-6.55,14.98,0.42,5
2,10005882337000,-4.9,8.31,-5.33,5
2,10005932325000,-6.36,4.52,-7.59,5
2,10005982374000,-8.81,2.76,3.06,5
2,10006032331000,-3.79,4.99,-0.3,5
2,10006082349000,-3.41,5.67,-2.03,5
2,10006132337000,-5.43,7.4,2.15,5
2,10006182325000,-5.75,9.34,-1.84,5
2,10006232343000,-7.78,9.7,-2.83,5
2,10006282361000,-10.65,11.18,2.11,5
2,10006332349000,-8.35,8.92,-6.13,5
2,10006382337000,-5.63,6.51,-6.32,5
2,10006432325000,-2.64,6.7,-2.07,5
2,10006482343000,-0.72,9.11,-3.53,5
2,10006532331000,-0.3,6.36,-4.9,5
2,10006582349000,-4.52,5.22,0.57,5
2,10006632337000,-4.67,8.96,4.79,5
2,10006682325000,-7.4,10.38,1.18,5
2,10006732343000,-4.21,9.85,-2.14,5
2,10006782331000,-2.22,12.76,-1.46,5
2,10006832349000,-6.85,14.02,0.84,5
2,10006882337000,-4.1,7.93,-5.79,5
2,10006932325000,-6.47,5.48,-9.92,5
2,10006982374000,-9.72,3.34,3.49,5
2,10007032331000,-3.21,5.83,0.72,5
2,10007082349000,-2.75,6.82,-2.11,5
2,10007132368000,-5.41,6.13,1.88,5
2,10007182355000,-5.52,9.51,-1.69,5
2,10007232343000,-6.21,10.0,-1.95,5
2,10007282331000,-9.11,12.6,1.92,5
2,10007332349000,-10.08,9.81,-7.7,5
2,10007382337000,-3.79,6.05,-5.63,5
2,10007432325000,-1.53,7.01,-2.72,5
2,10007482343000,-1.31,10.76,-3.83,5
2,10007532331000,-1.46,7.7,-4.29,5
2,10007582349000,-3.64,4.06,4.44,5
2,10007632337000,-3.79,7.86,5.28,5
2,10007682325000,-7.25,12.11,-3.3,5
2,10007732343000,-5.28,10.69,-3.11,5
2,10007782331000,-3.15,14.29,2.3,5
2,10007832349000,-1.8,13.72,0.46,5
2,10007882337000,-3.6,8.08,-6.09,5
2,10007932325000,-5.79,5.86,-10.46,5
2,10007982374000,-7.35,3.72,-3.41,5
2,10008032331000,-4.71,3.76,0.19,5
2,10008082380000,-4.59,7.06,1.54,5
2,10008132337000,-7.74,5.79,0.19,5
2,10008182325000,-5.75,7.59,0.23,5
2,10008232343000,-6.21,9.53,-2.79,5
2,10008282331000,-8.2,12.11,-2.37,5
2,10008332349000,-7.5,12.03,-6.97,5
2,10008382337000,-2.45,9.47,-3.3,5
2,10008432325000,-0.8,10.19,-2.41,5
2,10008482343000,-1.38,6.51,-2.45,5
2,10008532331000,-1.57,3.49,-0.19,5
2,10008582349000,-1.92,4.82,-1.14,5
2,10008632337000,-6.21,9.51,-2.96,5
2,10008682325000,-8.77,15.13,1.54,5
2,10008732343000,-3.02,13.06,0.34,5
2,10008782331000,-3.87,12.95,-7.01,5
2,10008832349000,-5.41,8.54,-12.56,5
2,10008882337000,-6.7,4.9,-4.59,5
2,10008932325000,-4.48,4.48,-1.57,5
2,10008982374000,-2.72,4.82,-4.02,5
2,10009032331000,-4.06,4.21,-5.2,5
2,10009082349000,-4.9,4.94,2.22,5
2,10009132337000,-8.35,8.96,0.93,5
2,10009182355000,-9.3,5.83,-5.56,5
2,10009232343000,-8.2,8.35,-5.18,5
2,10009282331000,-8.16,15.94,-6.24,5
2,10009332349000,-1.65,12.95,-1.76,5
2,10009382337000,3.91,9.77,-1.8,5
2,10009432325000,2.45,5.67,-6.43,5
2,10009482343000,1.08,3.72,-4.44,5
2,10009532331000,-1.27,3.91,-3.76,5
2,10009582380000,-6.55,6.13,-2.75,5
2,10009632337000,-7.46,9.34,-1.12,5
2,10009682325000,-5.9,15.51,-1.42,5
2,10009732343000,-6.09,13.82,-7.65,5
2,10009782331000,-7.97,8.47,-7.27,5
2,10009832349000,-6.78,5.94,-3.15,5
2,10009882337000,-4.59,5.6,-1.33,5
2,10009932325000,-2.26,4.63,-1.88,5
2,10009982374000,-0.3,3.21,-2.18,5
2,10010032361000,0.5,3.83,-2.14,5
2,10010082349000,-1.69,11.3,-3.64,5
2,10010132337000,-12.72,17.27,6.13,5
2,10010182325000,-10.11,14.63,-4.33,5
2,10010232374000,-5.09,10.15,-7.82,5
2,10010282331000,-2.07,8.43,-7.12,5
2,10010332319000,-2.07,5.6,-6.24,5
2,10010382337000,-1.88,3.95,-2.64,5
2,10010432386000,-2.37,4.1,-1.61,5
2,10010482343000,-2.6,4.75,-0.42,5
2,10010532331000,-4.59,9.92,6.02,5
2,10010582349000,-3.72,11.54,1.18,5
2,10010632337000,-5.24,12.76,-2.64,5
2,10010682325000,-9.62,14.14,-9.49,5
2,10010732343000,-7.86,4.14,3.57,5
2,10010802350000,-9.34,4.14,3.57,5
2,10010852247000,-1.57,3.3,-1.46,5
2,10010902326000,-1.31,4.06,-1.04,5
2,10010952283000,-1.69,10.27,-1.88,5
2,10011002302000,-2.83,16.21,2.98,5
2,10011052289000,-6.32,11.03,3.91,5
2,10011102308000,-13.4,14.21,-8.66,5
2,10011152295000,-6.85,7.12,-7.63,5
2,10011202314000,-5.71,4.06,-3.53,5
2,10011252302000,-7.78,5.67,-5.6,5
2,10011302289000,-4.33,5.6,-4.44,5
2,10011352308000,-1.99,5.43,-2.72,5
2,10011402295000,-0.72,6.55,-2.22,5
2,10011452314000,0.5,10.12,-2.22,5
2,10011502302000,-4.21,15.64,4.18,5
2,10011552289000,-4.37,12.98,4.21,5
2,10011602308000,-2.45,10.8,-3.72,5
2,10011652295000,-6.89,8.73,-11.65,5
2,10011702314000,-10.08,5.41,-6.32,5
2,10011752302000,-6.4,0.76,8.5,5
2,10011752302000,-6.4,0.76,8.5,5
2,10011812482000,-5.94,6.32,-2.79,5
2,10011862745000,-4.02,6.89,-3.02,5
2,10011912427000,-0.84,10.84,0.5,5
2,10011963148000,-5.13,15.64,2.07,5
2,10012012708000,-6.28,11.14,-2.87,5
2,10012062391000,-11.18,9.08,-6.59,5
2,10012112928000,-4.94,5.94,-4.67,5
2,10012162519000,-1.76,4.75,-1.69,5
2,10012213209000,-2.79,8.01,-4.9,5
2,10012272321000,-2.72,9.28,-5.28,5
2,10012332349000,-1.88,5.28,0.72,5
2,10012382337000,-7.5,7.93,4.06,5
2,10012432325000,-6.82,9.51,-5.56,5
2,10012482343000,-4.1,9.81,-7.59,5
2,10012532331000,-2.96,7.31,-4.4,5
2,10065442335000,-4.71,2.18,3.68,1
2,10065492322000,-9.89,6.89,2.68,1
2,10065542341000,-9.66,11.54,2.11,1
2,10065592328000,-8.08,9.28,4.52,1
2,10065642347000,-6.82,5.71,6.13,1
2,10065692365000,-4.86,3.72,5.75,1
2,10065742322000,-2.98,3.57,-0.19,1
2,10065792341000,-2.64,3.64,3.34,1
2,10065842328000,-7.08,6.09,2.22,1
2,10065892347000,-7.74,9.53,2.98,1
2,10065942335000,-8.85,6.32,2.26,1
2,10065992292000,-17.05,7.44,1.27,1
2,10066042341000,-11.69,13.33,0.72,1
2,10066092328000,-10.08,5.67,5.9,1
2,10066142347000,-0.57,5.05,2.07,1
2,10066192335000,-3.68,12.03,-0.42,1
2,10066242322000,-3.95,13.82,0.95,1
2,10066292341000,-0.53,8.01,-3.76,1
2,10066342328000,0.69,6.36,-6.43,1
2,10066392347000,-1.99,4.1,-1.38,1
2,10066442335000,-6.74,4.82,1.54,1
2,10066492322000,-15.21,10.76,0.0,1
2,10066542341000,-5.28,10.08,9.0,1
2,10066592328000,-2.3,1.61,4.25,1
2,10066642377000,-1.95,-0.04,4.94,1
2,10066692335000,-10.19,6.24,2.18,1
2,10066742322000,-18.16,19.53,-4.9,1
2,10066792341000,-7.27,13.29,0.27,1
2,10066842328000,3.87,6.44,11.14,1
2,10066892347000,-2.91,3.99,-5.43,1
2,10066942335000,-0.46,1.54,-4.48,1
2,10066992322000,-9.49,13.21,-5.75,1
2,10067042341000,-10.31,19.0,-1.04,1
2,10067092328000,-4.99,4.21,6.51,1
2,10067142347000,-3.72,2.79,-3.26,1
2,10067192335000,-2.14,2.72,-3.79,1
2,10067242322000,-2.56,0.23,-2.49,1
2,10067292341000,-8.2,2.53,-4.37,1
2,10067342328000,-19.38,19.53,-11.45,1
2,10067392347000,4.37,11.54,13.14,1
2,10067442335000,-6.66,5.43,-2.34,1
2,10067492322000,-2.98,2.96,-1.99,1
2,10067542341000,0.76,0.34,-0.61,1
2,10067592328000,0.11,2.3,-5.9,1
2,10067642347000,-9.49,17.73,-8.54,1
2,10067692335000,-13.99,17.16,-7.7,1
2,10067742322000,-3.79,5.01,14.37,1
2,10067792341000,-1.95,3.45,-2.53,1
2,10067842359000,-4.75,5.83,-1.73,1
2,10067892316000,-3.57,3.99,0.42,1
2,10067942335000,-13.48,9.3,-5.28,1
2,10068002363000,-12.45,11.84,-1.33,1
2,10068052259000,-2.64,7.12,1.23,1
2,10068102369000,-3.45,6.28,-1.42,1
2,10068152265000,-1.99,3.95,-1.57,1
2,10068202314000,-0.61,4.44,-2.79,1
2,10068202314000,-0.61,4.44,-2.79,1
2,10068262342000,-6.21,13.33,-6.74,1
2,10068312330000,-11.14,16.44,-6.55,1
2,10068362379000,-4.79,3.57,7.25,1
2,10068412336000,-2.49,4.99,-1.04,1
2,10068462324000,-2.22,4.63,-3.53,1
2,10068512342000,-2.34,2.26,-4.1,1
2,10068562330000,-9.43,3.53,-5.28,1
2,10068612348000,-19.04,19.34,-6.02,1
2,10068662366000,2.15,13.63,5.94,1
2,10068712324000,-3.95,3.68,-0.38,1
2,10068762342000,-3.34,2.26,-1.31,1
2,10068812330000,-0.91,1.27,0.42,1
2,10068862379000,-3.15,3.79,-3.83,1
2,10068912336000,-9.72,19.46,-9.77,1
2,10068962324000,-8.88,14.33,-3.64,1
2,10069012342000,-4.18,7.27,8.96,1
2,10069062330000,-3.21,4.44,-5.98,1
2,10069112348000,-4.71,2.34,-0.95,1
2,10069162336000,-1.23,0.46,-0.72,1
2,10069212324000,-3.79,2.68,-3.57,1
2,10069262342000,-19.3,19.31,-11.37,1
2,10069312330000,-2.53,12.07,7.06,1
2,10069362714000,-3.26,3.68,-0.89,1
2,10069412336000,-3.02,4.18,-1.31,1
2,10069462324000,-0.15,1.61,-0.42,1
2,10069512342000,0.31,5.13,-5.63,1
2,10069562330000,0.04,6.89,-4.86,1
2,10069612348000,-17.82,19.53,-11.92,1
2,10069662336000,-2.18,6.93,11.5,1
2,10069712324000,-3.79,7.59,-2.37,1
2,10069762342000,-2.64,5.48,-7.01,1
2,10069812330000,-2.18,1.31,-3.06,1
2,10069862379000,-4.06,-0.42,-1.57,1
2,10069912336000,-17.88,12.34,-7.4,1
2,10069962354000,-5.13,19.23,0.61,1
2,10070012281000,0.61,8.05,5.94,1
2,10070062330000,-5.33,5.41,-2.18,1
2,10070112348000,-1.33,1.38,-1.23,1
2,10070162336000,-1.57,0.76,-2.22,1
2,10070212324000,-5.13,9.62,-10.8,1
2,10070263776000,-9.0,19.53,-13.02,1
2,10070322492000,-8.92,11.41,15.13,1
2,10070372236000,-2.49,5.79,-4.25,1
2,10070422559000,-2.56,2.68,-5.79,1
2,10070472883000,-1.23,-0.15,-2.6,1
2,10070522321000,-5.79,0.84,-4.14,1
2,10070572339000,-19.61,18.58,-14.94,1
2,10070622327000,3.15,15.98,14.14,1
2,10070672346000,-5.63,5.83,-0.8,1
2,10070722333000,-4.82,3.79,-3.26,1
2,10070772321000,-0.53,1.5,0.19,1
2,10070822339000,0.99,2.72,-4.52,1
2,10070872327000,-1.61,12.34,-8.69,1
2,10070922346000,-15.09,19.38,-13.59,1
2,10070972333000,-1.84,10.65,13.29,1
2,10071022321000,-1.27,5.71,-7.12,1
2,10071072339000,-4.86,2.72,-3.06,1
2,10071122327000,-1.84,-2.14,-3.15,1
2,10071172346000,-4.79,-4.25,0.46,1
2,10071222333000,-19.42,16.32,-10.5,1
2,10071272321000,5.83,18.2,11.99,1
2,10071322339000,-3.98,5.48,-0.46,1
2,10071372327000,-5.94,3.02,-3.79,1
2,10071422346000,0.38,1.92,-2.45,1
2,10071482343000,-1.18,3.87,-7.82,1
2,10071542341000,-14.37,19.53,-9.7,1
2,10071592328000,-7.31,8.58,13.63,1
2,10071642347000,-3.64,6.24,-2.41,1
2,10071692365000,-2.79,4.9,-6.55,1
2,10071742292000,-2.75,-0.5,1.23,1
2,10071792341000,-6.13,1.84,-2.56,1
2,10071842328000,-19.61,18.58,-16.93,1
2,10071892347000,0.38,14.86,9.7,1
2,10071942335000,-2.41,7.55,3.21,1
2,10071992292000,-7.31,6.59,-3.36,1
2,10072042341000,-0.5,1.5,0.08,1
2,10072092328000,1.12,1.14,-3.06,1
2,10072142347000,1.23,10.92,-11.69,1
2,10072192335000,-13.21,19.53,-16.59,1
2,10072242322000,-6.21,7.16,17.01,1
2,10072292341000,-1.61,6.85,0.99,1
2,10072342328000,-1.76,5.05,-6.24,1
2,10072392347000,0.23,-0.11,-4.75,1
2,10072442335000,-5.01,-0.15,-8.05,1
2,10072492322000,-19.57,17.35,-15.94,1
2,10072542341000,-0.42,18.2,11.99,1
2,10072592328000,-5.67,8.73,0.93,1
2,10072642377000,-4.9,3.76,-3.57,1
2,10072692335000,0.27,0.04,-1.53,1
2,10072742322000,1.12,1.08,-5.94,1
2,10072792371000,-6.32,17.77,-16.7,1
2,10072842359000,-8.43,16.21,-5.24,1
2,10072892347000,-0.69,4.52,15.02,1
2,10072942335000,-2.3,7.31,0.11,1
2,10072992292000,-2.6,3.68,-6.63,1
2,10073060346000,-0.42,0.19,-5.71,1
2,10073060346000,-0.42,0.19,-5.71,1
2,10073112317000,-18.62,13.29,-11.92,1
2,10073162275000,-6.28,15.55,1.14,1
2,10073212324000,0.15,10.8,8.92,1
2,10073262342000,-7.65,6.55,-3.87,1
2,10073312330000,-0.42,1.92,-2.72,1
2,10073362348000,4.71,4.18,-6.32,1
2,10073412336000,-8.69,7.4,-6.85,1
2,10073462324000,-16.13,18.7,-15.89,1
2,10073512342000,-7.59,6.17,13.82,1
2,10073562330000,-2.34,4.6,-2.26,1
2,10073612348000,-3.3,5.37,-2.79,1
2,10073662336000,-1.88,0.31,-1.76,1
2,10073712324000,-5.94,1.42,-4.48,1
2,10073762342000,-19.53,17.77,-17.05,1
2,10073812330000,5.98,15.02,14.29,1
2,10073862348000,-6.36,7.7,-0.57,1
2,10073912336000,-2.87,3.15,-3.64,1
2,10073962354000,3.26,1.14,-1.33,1
2,10074012311000,-2.37,2.3,-4.59,1
2,10074062330000,-9.72,14.82,-14.63,1
2,10074112348000,-8.96,16.66,-5.94,1
2,10074162336000,-8.5,8.85,5.33,1
2,10074212324000,-3.26,5.43,-6.47,1
2,10074262342000,-1.12,4.75,-5.33,1
2,10074312330000,-2.18,0.5,-1.84,1
2,10074362348000,-9.96,-2.18,-2.37,1
2,10074412336000,-19.53,15.09,-13.95,1
2,10074462324000,4.21,18.39,9.15,1
2,10074512342000,-2.07,6.82,2.3,1
2,10074562330000,-5.24,5.52,-3.6,1
2,10074612348000,-1.5,1.88,-1.8,1
2,10074662336000,-3.76,2.96,-8.12,1
2,10074712324000,-10.15,16.55,-15.43,1
2,10074762342000,-6.24,15.17,-5.37,1
2,10074812330000,-5.01,9.11,12.91,1
2,10074862348000,-3.53,6.44,0.27,1
2,10074912336000,-2.45,3.49,-9.38,1
2,10074962324000,-1.5,-1.08,-1.33,1
2,10075012342000,-9.34,0.89,-4.1,1
2,10075062330000,-18.69,16.25,-15.83,1
2,10075112348000,-0.57,17.88,13.76,1
2,10075162336000,-5.18,8.24,2.41,1
2,10075212324000,-3.76,3.68,-3.57,1
2,10075267469000,0.89,0.23,-1.12,1
2,10075322400000,2.53,2.34,-9.38,1
2,10075372327000,-9.38,17.05,-16.66,1
2,10075422346000,-14.18,17.35,0.69,1
2,10075472333000,-3.6,7.08,7.46,1
2,10075522352000,-2.83,8.77,-4.48,1
2,10075572370000,1.42,2.68,-8.47,1
2,10075622327000,-0.84,-0.61,-3.02,1
2,10075672346000,-12.03,1.73,-9.81,1
2,10075722333000,-18.58,16.09,-14.18,1
2,10075772321000,0.53,17.24,14.29,1
2,10075822645000,-6.47,7.12,-2.64,1
2,10075872327000,-2.18,1.76,-2.41,1
2,10075922346000,2.76,1.73,-5.37,1
2,10075972333000,-1.27,2.53,-2.98,1
2,10076022321000,-11.41,14.56,-10.15,1
2,10076072339000,-14.6,17.54,-4.06,1
2,10076122327000,-4.06,5.05,10.34,1
2,10076172346000,-3.76,5.63,-5.82,1
2,10076222333000,-3.26,3.6,-1.31,1
2,10076272382000,0.42,-0.57,-1.18,1
2,10076322309000,-5.82,1.27,-6.47,1
2,10076372327000,-19.08,19.42,-16.47,1
2,10076422346000,6.24,14.86,14.37,1
2,10076472333000,-5.09,7.16,-0.57,1
2,10076522321000,-2.41,2.26,-4.02,1
2,10076572339000,0.65,-0.38,-1.46,1
2,10076622327000,-6.97,2.98,-8.2,1
2,10076672346000,-14.1,19.0,-17.92,1
2,10076722364000,-5.94,14.86,2.22,1
2,10076772321000,-5.01,7.67,7.55,1
2,10076822339000,-3.49,7.89,-9.72,1
2,10076872327000,-0.42,1.95,-4.21,1
2,10076922346000,-1.88,-2.11,-1.27,1
2,10076972364000,-14.94,0.38,-4.63,1
2,10077022321000,-18.5,19.0,-13.48,1
2,10077072339000,6.51,12.3,12.57,1
2,10077122327000,-8.31,6.36,-5.2,1
2,10077172346000,-1.73,1.27,-2.26,1
2,10077222333000,-0.15,-0.04,-1.27,1
2,10077272321000,-3.36,1.65,-5.09,1
2,10077322309000,-14.86,19.42,-16.89,1
2,10077372327000,-7.7,13.1,3.21,1
2,10077422346000,-2.34,5.48,9.92,1
2,10077472333000,-0.19,7.82,-3.98,1
2,10077522321000,-0.08,2.49,-8.54,1
2,10077572339000,-2.3,-0.42,-5.09,1
2,10077622327000,-18.73,9.89,-4.18,1
2,10077672346000,-11.6,18.2,0.8,1
2,10077722333000,-1.08,11.75,5.33,1
2,10077772321000,-8.2,4.33,-3.95,1
2,10077822309000,-0.8,1.42,-0.38,1
2,10077872297000,-1.04,2.15,-0.38,1
2,10077922346000,-6.85,10.38,-2.22,1
2,10077972333000,-5.6,19.5,-15.21,1
2,10078022321000,-6.82,11.6,-7.97,1
2,10078072339000,-5.98,4.4,13.06,1
2,10078122327000,0.19,4.75,-0.61,1
2,10078172376000,-4.1,2.56,-2.49,1
2,10078222333000,-5.67,0.38,0.42,1
2,10078272321000,-17.31,15.94,-14.33,1
2,10078342298000,0.89,12.68,13.99,1
2,10078392255000,-6.36,6.82,-1.08,1
2,10078442365000,-1.38,3.45,-2.53,1
2,10078492261000,-0.15,1.8,0.0,1
2,10078542341000,-1.12,2.72,-3.41,1
2,10078592328000,-4.99,16.97,-11.84,1
2,10078642347000,-10.5,16.09,-13.02,1
2,10078692335000,-4.86,3.49,17.08,1
2,10078742322000,-2.3,6.7,-0.89,1
2,10078792341000,-1.99,5.09,-0.99,1
2,10078842328000,-4.25,-0.61,1.27,1
2,10078892347000,-11.33,3.26,-5.28,1
2,10078942335000,-14.67,19.57,-11.95,1
2,10078992292000,2.3,8.43,12.07,1
2,10079042341000,-7.82,5.18,-1.65,1
2,10079092328000,-2.75,2.37,-1.76,1
2,10079142347000,-0.23,0.95,-0.8,1
2,10079192335000,-2.53,4.82,-4.86,1
2,10079242322000,-10.57,19.53,-14.94,1
2,10079292341000,-8.24,13.21,-1.8,1
2,10079342328000,-3.68,5.18,14.52,1
2,10079392347000,-3.72,9.38,-2.11,1
2,10079442335000,-2.83,3.53,-8.62,1
2,10079492322000,0.57,-2.14,-6.02,1
2,10079542341000,-7.55,-3.87,-1.31,1
2,10079592328000,-19.61,17.16,-16.17,1
2,10079642347000,2.53,16.13,14.41,1
2,10079692335000,-4.4,5.22,1.5,1
2,10079742322000,-3.6,3.02,-3.41,1
2,10079792341000,-0.11,0.93,-0.95,1
2,10079842328000,-3.87,4.06,-13.72,1
2,10079892347000,-12.91,17.24,-16.02,1
2,10079942335000,-12.95,18.35,2.34,1
2,10079992292000,-5.9,6.36,4.48,1
2,10080042341000,-1.38,3.83,-9.53,1
2,10080092328000,-4.18,2.37,-1.57,1
2,10080142347000,-1.33,-1.23,-1.69,1
2,10080192335000,-13.29,1.84,-6.47,1
2,10080242322000,-17.67,16.09,-13.87,1
2,10080292341000,4.99,16.82,10.46,1
2,10080342328000,-2.3,10.08,4.6,1
2,10080392347000,-6.17,6.09,-3.72,1
2,10080442335000,2.45,1.38,-4.44,1
2,10080492353000,-0.99,0.34,-1.88,1
2,10080542341000,-8.96,8.05,-8.77,1
2,10080592328000,-16.78,19.15,-12.37,1
2,10080642377000,-6.59,11.18,14.6,1
2,10080692335000,-3.41,7.86,-3.98,1
2,10080742353000,-2.98,4.1,-1.42,1
2,10080792341000,-1.31,-1.69,-1.5,1
2,10080842328000,-1.99,-4.9,-1.33,1
2,10080892347000,-19.46,16.63,-14.44,1
2,10080942335000,4.63,17.62,11.75,1
2,10080992292000,-2.75,8.62,3.38,1
2,10081042341000,-4.82,7.31,-5.05,1
2,10081092328000,-1.12,1.46,-0.08,1
2,10081142347000,-0.34,0.31,-1.42,1
2,10081192365000,-7.16,9.15,-8.05,1
2,10081242322000,-14.6,19.46,-9.58,1
2,10081292341000,-10.11,9.19,15.51,1
2,10081342328000,-0.57,4.48,3.21,1
2,10081392347000,3.79,5.48,-7.78,1
2,10081442335000,-5.94,3.45,-1.14,1
2,10081492292000,-5.98,-0.23,-1.84,1
2,10081542341000,-19.53,15.24,-13.38,1
2,10081592298000,-2.22,15.85,7.27,1
2,10081642377000,-2.98,7.31,1.8,1
2,10081692335000,-3.17,4.71,-1.76,1
2,10081742322000,-0.8,2.03,0.08,1
2,10081792341000,-0.3,1.73,-1.65,1
2,10081842328000,-3.36,8.66,-10.84,1
2,10081892347000,-10.27,18.85,-15.4,1
2,10081942335000,-7.04,11.22,1.14,1
2,10081992292000,-6.43,4.18,12.76,1
2,10082042341000,2.68,6.36,-9.66,1
2,10082092328000,-3.26,4.14,1.5,1
2,10082142347000,-10.46,4.99,-1.08,1
2,10082192335000,-16.59,11.54,-15.09,1
2,10082242322000,-10.04,10.61,-5.86,1
2,10082292341000,2.6,13.18,8.77,1
2,10082342328000,-3.64,5.22,0.31,1
2,10082392347000,-0.89,2.6,-1.27,1
2,10082442365000,-2.53,4.29,-3.02,1
2,10082492322000,-5.56,7.59,-8.96,1
2,10082542341000,-12.3,15.24,-10.23,1
2,10082592328000,-4.56,12.11,-0.57,1
2,10082642347000,-5.43,5.75,8.62,1
2,10082692335000,-0.08,3.57,-8.27,1
2,10082742322000,-4.06,2.11,0.42,1
2,10082792341000,-8.96,3.6,-2.37,1
2,10082842328000,-10.57,2.68,-5.56,1
2,10082892377000,-14.21,14.9,-10.57,1
2,10082942335000,-1.5,16.09,0.08,1
2,10082992322000,-2.83,9.19,10.73,1
2,10083042341000,1.12,1.65,-4.71,1
2,10083092328000,-1.53,3.83,-1.27,1
2,10083142347000,-2.07,6.93,-6.63,1
2,10083192365000,-14.21,16.78,-8.27,1
2,10083242322000,-10.5,11.75,-5.86,1
2,10083292341000,-3.15,4.67,-2.26,1
2,10083342328000,-1.23,2.72,9.19,1
2,10083342328000,-1.23,2.72,9.19,1
2,10083412305000,-6.36,-0.19,-5.05,1
2,10083462293000,-4.4,1.31,-2.79,1
2,10083512342000,-7.78,6.44,-7.08,1
2,10083562330000,-17.97,19.34,-15.09,1
2,10083612348000,2.3,9.58,12.6,1
2,10083662336000,-4.29,3.53,1.73,1
2,10083712324000,-0.27,2.96,-4.25,1
2,10083762342000,-0.04,4.4,-5.13,1
2,10083812330000,-3.17,7.55,-10.27,1
2,10083862348000,-11.69,17.67,-12.95,1
2,10083912336000,-12.6,13.44,7.12,1
2,10083962354000,-4.75,3.38,-0.46,1
2,10084012311000,-1.04,1.88,1.18,1
2,10084062330000,-3.98,1.14,-2.18,1
2,10084112317000,-3.98,0.76,-6.51,1
2,10084162336000,-13.48,6.97,-13.99,1
2,10084212324000,-10.19,19.57,0.27,1
2,10084262342000,-1.53,9.15,1.42,1
2,10084312330000,-3.49,4.1,-4.82,1
2,10084362348000,-1.88,2.15,0.42,1
2,10084412336000,0.84,1.92,-3.17,1
2,10084462324000,-2.64,3.68,-6.97,1
2,10084512342000,-4.63,7.78,-10.27,1
2,10084562330000,-13.82,19.57,-8.01,1
2,10084612348000,-3.36,5.52,8.73,1
2,10084662336000,-3.91,0.93,-0.46,1
2,10084712324000,-4.21,2.26,-1.46,1
2,10084762342000,-2.75,2.76,-4.06,1
2,10084812330000,-5.52,9.38,-4.59,1
2,10084862348000,-17.67,19.0,-12.91,1
2,10084912336000,0.72,9.43,10.84,1
2,10084962324000,-5.48,6.55,1.46,1
2,10085012342000,-3.95,3.99,-2.45,1
2,10085062330000,-0.69,2.41,-2.22,1
2,10085112348000,-3.17,5.67,-3.21,1
2,10085162336000,-8.88,18.73,-11.5,1
2,10085212324000,-6.78,15.28,-9.85,1
2,10085269514000,-8.54,1.73,9.0,1
2,10085332288000,-1.12,0.11,-0.27,1
2,10085382307000,-2.11,0.34,-7.44,1
2,10085442335000,-8.47,2.79,-0.91,1
2,10085492322000,-19.38,19.5,-2.03,1
2,10085542341000,3.45,12.3,10.04,1
2,10085592328000,-8.43,4.94,-1.57,1
2,10085642347000,-2.75,2.34,-2.11,1
2,10085692335000,0.65,0.84,-0.8,1
2,10085742322000,-4.52,1.38,-6.66,1
2,10085792341000,-15.83,17.12,-6.13,1
2,10085842328000,-9.15,16.36,-9.08,1
2,10085892347000,-4.94,2.45,11.22,1
2,10085942335000,-0.53,0.89,-4.18,1
2,10085992292000,-3.15,1.08,1.27,1
2,10086042310000,-1.88,-0.23,-0.19,1
2,10086092328000,-13.95,11.07,-7.08,1
2,10086142347000,-13.72,17.12,-14.63,1
2,10086192335000,5.48,10.31,9.66,1
2,10086242322000,-5.2,4.71,-1.42,1
2,10086292341000,0.42,1.88,-2.83,1
2,10086342328000,1.46,1.57,-6.13,1
2,10086392347000,-8.27,2.98,-3.15,1
2,10086442335000,-17.12,15.79,-11.03,1
2,10086492322000,-14.52,14.94,7.31,1
2,10086542341000,-2.56,3.95,-1.95,1
2,10086592328000,1.12,2.37,-5.56,1
2,10086642316000,-2.11,-1.14,1.18,1
2,10086692335000,-4.21,-0.38,-2.45,1
2,10086742322000,-18.5,14.63,-4.56,1
2,10086792341000,-3.11,14.94,8.96,1
2,10086842328000,-4.37,6.89,2.18,1
2,10086892347000,-5.56,5.43,-3.49,1
2,10086942335000,0.76,4.71,-3.17,1
2,10086992292000,-0.42,1.8,-1.08,1
2,10087042371000,-9.47,3.06,1.54,1
2,10087092328000,-14.98,19.23,-12.83,1
2,10087142347000,-6.51,12.15,-1.08,1
2,10087192335000,-3.15,6.24,6.13,1
2,10087242322000,-1.27,1.95,-6.59,1
2,10087292341000,-0.76,-1.73,-1.27,1
2,10087342328000,-2.07,-3.72,0.46,1
2,10087392347000,-17.97,11.54,-5.94,1
2,10087442335000,-10.27,19.0,-2.91,1
2,10087492322000,1.04,5.98,0.34,1
2,10087542341000,-2.45,4.94,0.5,1
2,10087592328000,0.31,1.88,-0.69,1
2,10087642377000,-1.04,2.68,-2.49,1
2,10087692335000,-8.69,8.69,-7.16,1
2,10087742322000,-17.39,19.57,-16.55,1
2,10087792341000,-1.95,5.79,7.46,1
2,10087842359000,-1.08,4.14,2.07,1
2,10087892347000,-2.41,-0.46,-7.16,1
2,10087942335000,-2.22,-1.69,1.57,1
2,10087992292000,-5.98,2.87,-1.38,1
2,10088042371000,-18.28,18.7,4.18,1
2,10088092328000,-10.57,14.06,-0.53,1
2,10088142347000,1.54,9.58,3.83,1
2,10088192335000,-3.53,4.9,-0.99,1
2,10088242322000,0.69,2.91,-0.34,1
2,10088292341000,-1.53,2.34,-2.83,1
2,10088342328000,-9.38,9.51,-2.14,1
2,10088392347000,-13.33,19.38,-10.23,1
2,10088442304000,-8.62,8.77,0.15,1
2,10088492322000,0.76,-0.57,-0.46,1
2,10088542341000,-2.14,2.03,0.53,1
2,10088592298000,-3.17,-1.8,0.76,1
2,10088652296000,-4.37,3.87,-3.57,1
2,10088702253000,-19.61,19.57,-9.96,1
2,10088752332000,5.83,9.85,8.77,1
2,10088802259000,-4.29,3.41,2.76,1
2,10088852308000,-2.72,3.79,-4.02,1
2,10088852308000,-2.72,3.79,-4.02,1
2,10088912336000,1.38,2.11,-2.03,1
2,10088962354000,-5.43,4.52,-5.24,1
2,10089012281000,-10.84,17.12,-7.46,1
2,10089062299000,-11.99,15.79,-7.46,1
2,10089112348000,-1.14,3.11,9.0,1
2,10089162336000,0.34,1.23,-5.24,1
2,10089212324000,0.0,-2.03,-4.52,1
2,10089262342000,0.08,-2.14,-0.23,1
2,10089312330000,-14.33,11.56,-7.55,1
2,10089362348000,-10.04,18.05,-1.42,1
2,10089412336000,3.34,4.1,2.37,1
2,10089462324000,-6.47,4.44,-2.56,1
2,10089512342000,1.18,2.45,-3.11,1
2,10089562330000,2.03,2.11,-2.34,1
2,10089612379000,0.31,4.25,-7.44,1
2,10089662336000,-6.05,15.66,-10.95,1
2,10089712324000,-16.13,14.41,5.94,1
2,10089762342000,5.13,-1.99,-1.53,1
2,10089812330000,-4.48,2.79,-0.11,1
2,10089862348000,-6.66,-0.5,-0.69,1
2,10089912336000,-5.24,3.99,-4.37,1
2,10089962354000,-17.46,19.42,-17.82,1
2,10090012281000,-1.5,14.82,13.53,1
2,10090062330000,-3.49,3.26,-0.3,1
2,10090112348000,-1.57,5.52,-3.34,1
2,10090162336000,1.99,2.49,-3.79,1
2,10090212324000,-1.18,0.57,-2.91,1
2,10090262403000,-9.19,14.02,-14.14,1
2,10090312330000,-14.37,13.48,0.0,1
2,10090362348000,-5.24,3.34,2.64,1
2,10090412336000,-1.31,1.73,-2.68,1
2,10090462324000,-2.07,-4.33,0.76,1
2,10090512342000,-3.91,1.04,-1.5,1
2,10090562330000,-7.82,10.38,-14.14,1
2,10090612348000,-19.53,19.57,-13.4,1
2,10090662336000,3.34,9.3,6.93,1
2,10090712324000,-0.72,3.83,0.84,1
2,10090762342000,0.38,3.21,-2.72,1
2,10090812330000,-0.34,1.73,-4.37,1
2,10090862348000,-9.43,6.85,-6.66,1
2,10090912336000,-17.16,19.46,-11.88,1
2,10090962324000,4.94,13.44,9.04,1
2,10091012342000,-4.75,4.18,-3.91,1
2,10091062330000,-4.29,-0.95,-4.86,1
2,10091112348000,-2.79,-2.98,2.45,1
2,10091162336000,-4.21,1.08,-2.68,1
2,10091212324000,-11.54,10.57,-7.74,1
2,10091262342000,-17.05,19.57,-9.49,1
2,10091312330000,1.31,7.78,4.21,1
2,10091362348000,-0.69,3.11,-0.95,1
2,10091412336000,1.31,2.56,-2.72,1
2,10091462324000,-0.65,0.72,-1.76,1
2,10091512342000,-6.97,4.82,-5.13,1
2,10091562330000,-13.99,16.66,-13.95,1
2,10091612348000,-5.98,13.14,2.87,1
2,10091662336000,0.65,-4.33,-2.53,1
2,10091712324000,-3.26,3.91,-0.15,1
2,10091762342000,-4.48,1.14,-0.65,1
2,10091812330000,-4.25,3.45,-1.88,1
2,10091862348000,-15.4,18.16,-15.4,1
2,10091912336000,-9.66,13.57,-0.5,1
2,10091962354000,-0.46,3.53,4.44,1
2,10092012281000,-4.75,3.83,-2.75,1
2,10092062330000,-0.15,2.41,-0.84,1
2,10092112348000,-0.65,5.41,-6.36,1
2,10092162366000,-13.53,15.51,-10.15,1
2,10092212324000,-11.45,15.05,-5.41,1
2,10092262556000,-6.43,1.88,7.35,1
2,10092312360000,-4.67,-0.38,-4.99,1
2,10092362379000,-2.91,0.5,-0.61,1
2,10092412366000,-1.61,1.14,-1.8,1
2,10092462324000,-5.75,6.05,-7.59,1
2,10092512342000,-19.3,19.42,-15.17,1
2,10092562330000,8.31,7.5,8.2,1
2,10092612348000,-4.86,4.29,1.46,1
2,10092662336000,-2.53,3.6,-3.3,1
2,10092712293000,-0.15,3.6,-4.52,1
2,10092762342000,-7.89,6.89,-6.24,1
2,10092812330000,-18.43,19.15,-6.47,1
2,10092862348000,-5.6,9.38,7.74,1
2,10092912336000,-2.14,2.76,-2.91,1
2,10092962324000,-1.65,3.41,-0.99,1
2,10093012342000,-1.99,0.5,-2.41,1
2,10093062299000,-0.53,-3.53,-2.41,1
2,10093112348000,-16.4,4.99,-10.53,1
2,10093162336000,-11.75,19.23,-6.85,1
2,10093212324000,5.48,9.15,9.85,1
2,10093262342000,-0.89,3.76,0.61,1
2,10093312330000,-2.49,5.01,-3.72,1
2,10093362348000,-1.69,2.07,-6.59,1
2,10093412336000,-7.7,9.3,-15.24,1
2,10093462324000,-13.38,19.27,-12.15,1
2,10093512342000,-8.43,9.28,13.25,1
2,10093562330000,-4.63,5.01,-4.14,1
2,10093612348000,0.8,1.46,-10.11,1
2,10093662366000,0.34,-0.72,-1.18,1
2,10093722303000,-3.45,-2.3,-3.95,1
2,10093772291000,-19.61,17.24,-19.3,1
2,10093822309000,-1.5,17.67,12.41,1
2,10093872297000,-2.98,5.24,0.23,1
2,10093922346000,-0.27,1.54,-4.56,1
2,10093972333000,0.23,1.5,-2.14,1
2,10094022321000,-8.2,6.4,-5.01,1
2,10094072339000,-15.66,19.57,-16.51,1
2,10094122327000,-9.28,6.21,12.91,1
2,10094172346000,-4.02,2.49,-0.91,1
2,10094222333000,-2.91,1.92,-4.25,1
2,10094272321000,-0.57,-1.99,2.64,1
2,10094322400000,-3.79,1.42,0.11,1
2,10094372297000,-19.34,17.67,-16.17,1
2,10094422376000,-2.87,12.76,14.33,1
2,10094472364000,-3.53,2.37,-0.04,1
2,10094522352000,-2.98,2.41,-1.73,1
2,10094572339000,-1.23,3.79,-1.31,1
2,10094622358000,-2.41,5.18,-4.9,1
2,10094672376000,-8.92,15.17,-9.23,1
2,10094722364000,-11.84,16.47,-9.77,1
2,10094772321000,-14.06,6.21,11.6,1
2,10094822309000,-2.37,-1.27,0.61,1
2,10094872358000,-2.18,1.42,-4.79,1
2,10094922407000,-1.18,-0.34,-2.03,1
2,10094972364000,-8.39,1.42,-9.11,1
2,10095022382000,-19.34,19.57,-11.3,1
2,10095072339000,0.27,14.75,11.96,1
2,10095122327000,-2.53,2.56,-0.99,1
2,10095172346000,-1.23,0.57,-1.42,1
2,10095222364000,0.8,0.5,-2.07,1
2,10095272260000,-1.23,3.95,-13.67,1
2,10095322370000,-15.75,19.53,-18.31,1
2,10095372297000,-6.7,8.54,4.75,1
2,10095422346000,0.95,1.88,13.1,1
2,10095472333000,-2.11,6.59,-4.1,1
2,10095522321000,-1.73,1.88,-15.98,1
2,10095572339000,-7.5,-0.15,-7.93,1
2,10095622327000,-19.61,11.99,-12.49,1
2,10095672346000,-2.75,17.97,12.41,1
2,10095722333000,-3.45,4.67,-1.23,1
2,10095772291000,-1.95,0.65,-1.23,1
2,10095822309000,1.42,0.34,0.61,1
2,10095872297000,1.65,7.78,-9.0,1
2,10095922346000,-12.56,14.98,-14.06,1
2,10095972364000,-13.87,17.08,-4.67,1
2,10096022321000,-4.9,3.15,8.24,1
2,10096072339000,-4.29,2.53,-6.85,1
2,10096122327000,0.31,-1.12,-2.6,1
2,10096172346000,-0.76,-4.79,0.69,1
2,10096222333000,-17.67,3.72,-4.56,1
2,10096272230000,-16.66,18.66,-14.94,1
2,10096322309000,12.41,15.05,14.82,1
2,10096372297000,-2.37,6.66,3.06,1
2,10096422346000,-2.26,3.38,-0.46,1
2,10096472333000,0.8,0.11,-4.52,1
2,10096522321000,-3.34,9.89,-9.96,1
2,10096572339000,-18.89,19.5,-13.95,1
2,10096622327000,-1.76,5.52,11.54,1
2,10096672376000,-4.52,4.82,-2.53,1
2,10096722333000,-0.8,1.12,-0.11,1
2,10096772352000,-0.38,-2.75,-2.18,1
2,10096822339000,-6.32,-1.92,-4.44,1
2,10096872358000,-19.61,17.2,-16.55,1
2,10096922346000,0.38,17.88,6.13,1
2,10096972364000,0.72,6.74,5.33,1
2,10097022321000,-5.43,3.17,-1.12,1
2,10097072339000,-0.27,-0.72,-3.26,1
2,10097122327000,0.34,0.15,-5.13,1
2,10097172376000,-17.58,15.66,-14.25,1
2,10097222333000,-10.46,14.41,-6.7,1
2,10097272321000,-3.02,4.4,9.3,1
2,10097322309000,-4.29,4.18,-4.79,1
2,10097372358000,-1.92,2.41,-2.75,1
2,10097422346000,-4.02,-0.91,-2.03,1
2,10097472333000,-15.94,2.53,-5.13,1
2,10097522321000,-18.24,14.75,-9.53,1
2,10097572339000,1.33,16.47,7.82,1
2,10097622327000,-3.02,2.79,-3.11,1
2,10097672346000,-0.61,0.8,-1.23,1
2,10097722333000,-0.08,3.76,-6.47,1
2,10097772321000,-5.33,3.57,-9.19,1
2,10097822309000,-16.7,16.36,-14.82,1
2,10097872327000,-6.02,10.53,6.02,1
2,10097922315000,-6.02,2.26,0.57,1
2,10097972333000,-2.96,1.23,-2.56,1
2,10098022321000,-0.72,-1.08,-2.11,1
2,10098072370000,-4.79,2.18,-9.0,1
2,10098122327000,-18.89,10.5,-14.21,1
2,10098172346000,-2.26,18.39,6.59,1
2,10098222333000,-0.34,5.79,2.41,1
2,10098272321000,-2.14,2.79,-3.68,1
2,10098322309000,2.15,1.57,-4.71,1
2,10098372327000,-0.91,1.65,-4.79,1
2,10098422346000,-10.57,11.14,-14.94,1
2,10098472333000,-12.07,16.97,-9.96,1
2,10098522321000,-6.93,2.91,3.06,1
2,10098572370000,-2.83,4.6,0.57,1
2,10098622327000,-1.84,0.34,-2.79,1
2,10098672346000,-3.53,1.27,-6.28,1
2,10098722333000,-8.69,0.99,-6.17,1
2,10098772321000,-18.47,11.54,-6.93,1
2,10098822309000,-5.05,11.45,5.56,1
2,10098872327000,-2.14,-0.23,0.15,1
2,10098942365000,-1.99,3.76,-3.76,1
2,10098992231000,-2.11,6.4,-9.49,1
2,10099042371000,-12.72,9.04,-11.99,1
2,10099092267000,-12.79,8.85,-9.96,1
2,10099142347000,-6.59,7.55,5.01,1
2,10099192365000,-3.6,1.88,0.46,1
2,10099242322000,-0.57,0.46,-1.99,1
2,10099292341000,-3.64,1.12,-2.53,1
2,10099342328000,-12.11,2.72,-9.23,1
2,10099392347000,-18.77,15.83,-9.49,1
2,10099442335000,-6.97,10.69,6.05,1
2,10099492322000,-4.21,2.26,-0.61,1
2,10099542341000,0.0,2.45,-3.57,1
2,10099592328000,-0.69,0.99,-2.37,1
2,10099642377000,-6.43,4.52,-8.43,1
2,10099692335000,-12.68,11.8,-13.44,1
2,10099742322000,-8.54,12.41,-4.48,1
2,10099792341000,-3.91,3.76,3.99,1
2,10099842390000,-4.14,2.11,-2.07,1
2,10099892347000,-2.68,0.46,-3.17,1
2,10099942335000,-3.83,-0.89,-2.72,1
2,10099992292000,-12.64,3.02,-5.63,1
2,10100042341000,-19.61,12.41,-12.68,1
2,10100092328000,-1.27,12.26,8.01,1
2,10100142316000,-4.48,-0.5,0.69,1
2,10100192335000,1.18,3.57,-4.56,1
2,10100242322000,-2.64,3.91,-7.4,1
2,10100292341000,-11.65,7.7,-8.66,1
2,10100342328000,-19.34,19.31,-8.24,1
2,10100392316000,-0.69,-0.46,3.3,1
2,10100442335000,-4.21,0.34,-1.18,1
2,10100492322000,-2.26,-0.19,-3.36,1
2,10100542341000,-2.91,-0.53,-0.3,1
2,10100592328000,-9.04,2.03,-7.44,1
2,10100642347000,-18.05,10.08,-13.63,1
2,10100692335000,-6.02,15.98,6.28,1
2,10100742322000,-3.41,1.54,1.04,1
2,10100792341000,-0.76,0.99,-4.18,1
2,10100842328000,1.12,2.26,-4.02,1
2,10100892347000,-3.11,3.79,-5.75,1
2,10100942335000,-15.75,13.59,-14.6,1
2,10100992322000,-11.88,14.98,-7.4,1
2,10101042341000,-3.45,0.95,6.05,1
2,10101092328000,-1.92,3.41,-1.14,1
2,10101142377000,-0.53,1.99,-1.31,1
2,10101192304000,-5.63,0.46,-2.3,1
2,10101242322000,-10.92,-1.8,-11.37,1
2,10101292341000,-19.61,11.8,-11.54,1
2,10101342328000,2.03,16.04,9.47,1
2,10101392316000,-5.09,1.99,0.76,1
2,10101442335000,0.08,2.98,-3.72,1
2,10101492322000,-0.34,2.15,-5.71,1
2,10101542341000,-8.12,2.98,-10.04,1
2,10101592328000,-19.11,15.02,-13.99,1
2,10101642347000,-9.28,9.34,10.23,1
2,10101692335000,-2.91,0.46,0.31,1
2,10101742353000,-3.3,2.6,-1.31,1
2,10101792341000,-2.45,0.84,-1.61,1
2,10101842328000,-5.05,-0.27,-3.06,1
2,10101892347000,-17.27,10.08,-17.58,1
2,10101942335000,-9.85,14.37,-1.42,1
2,10101992292000,2.03,7.06,8.2,1
2,10102042341000,-3.95,2.96,-0.72,1
2,10102092328000,-0.15,3.02,-3.26,1
2,10102142347000,-4.02,3.49,-12.91,1
2,10102192335000,-15.89,11.56,-15.32,1
2,10102242322000,-9.53,7.74,-1.12,1
2,10102292341000,-9.28,-0.72,1.04,1
2,10102342328000,-1.23,0.34,0.0,1
2,10102392377000,-0.61,-1.61,-3.17,1
2,10102442335000,-7.86,-3.87,-4.18,1
2,10102492322000,-19.61,0.99,-9.0,1
2,10102542341000,-8.66,12.18,-15.51,1
2,10102592328000,2.83,16.89,11.92,1
2,10102642377000,-3.45,6.4,2.03,1
2,10102692335000,-0.84,2.6,-0.23,1
2,10102742322000,0.93,0.31,-8.31,1
2,10102792341000,-13.21,7.93,-12.95,1
2,10102842328000,-14.9,16.66,-13.76,1
2,10102892316000,-7.31,1.04,12.57,1
2,10102942335000,-3.95,1.8,2.37,1
2,10102992322000,-0.57,0.95,-4.52,1
2,10103042341000,1.42,-2.56,-5.18,1
2,10103092328000,-13.59,-0.84,-6.28,1
2,10103142377000,-19.34,6.78,-7.31,1
2,10103192335000,-9.15,14.21,3.72,1
2,10103242322000,-1.42,7.59,3.95,1
2,10103292341000,-1.31,2.41,1.84,1
2,10103342328000,0.23,2.07,-2.11,1
2,10103392347000,-2.18,2.64,-6.74,1
2,10103442335000,-16.82,6.28,-15.47,1
2,10103492322000,-15.6,13.87,-8.96,1
2,10103542341000,-5.33,6.55,12.45,1
2,10103592328000,-5.09,3.49,1.88,1
2,10103642377000,-2.34,1.27,-4.29,1
2,10103692365000,1.95,-3.06,-6.24,1
2,10103742322000,-3.41,-7.78,-5.09,1
2,10103792341000,-19.61,15.89,-14.18,1
2,10103842359000,0.08,16.28,9.85,1
2,10103892347000,2.15,7.78,2.68,1
2,10103942365000,-2.79,4.99,-6.24,1
2,10103942365000,-2.79,4.99,-6.24,1
2,10104012342000,-2.87,2.56,-1.38,1
2,10104062269000,-12.11,2.37,-6.97,1
2,10104112379000,-18.58,13.14,-15.17,1
2,10104162366000,-5.41,5.83,4.1,1
2,10104212385000,-3.72,1.76,4.4,1
2,10104262342000,-4.14,0.61,-10.19,1
2,10104312330000,0.0,-4.02,1.84,1
2,10104362348000,-8.24,-3.49,1.33,1
2,10104412366000,-19.5,17.62,-15.94,1
2,10104462354000,3.72,12.6,8.54,1
2,10104512342000,-4.59,1.08,-0.53,1
2,10104562360000,-3.68,2.34,-3.26,1
2,10104612348000,-1.73,2.72,-3.87,1
2,10104662366000,-7.27,-0.27,-6.17,1
2,10104712354000,-14.71,8.16,-14.44,1
2,10104762372000,-12.41,10.73,0.0,1
2,10104812330000,-6.17,1.33,5.79,1
2,10104812330000,-6.17,1.33,5.79,1
2,10104907911000,-1.99,0.11,-2.37,1
2,10104962293000,-9.28,-0.23,-4.86,1
2,10105012311000,-17.01,3.41,-14.29,1
2,10105062360000,-12.79,9.53,-3.15,1
2,10105112379000,-1.12,10.53,5.05,1
2,10105162366000,-3.06,2.56,0.0,1
2,10105212324000,-0.84,2.26,-4.37,1
2,10105263074000,-6.85,0.23,-6.63,1
2,10105312330000,-19.5,9.3,-15.6,1
2,10105362348000,-10.23,9.19,-0.42,1
2,10105412336000,-3.26,0.57,4.79,1
2,10105462324000,-2.3,0.34,-2.79,1
2,10105512342000,-5.33,-2.18,-4.56,1
2,10105562330000,-4.52,-4.56,-3.3,1
2,10105612379000,-14.94,2.64,-6.63,1
2,10105662336000,-9.0,17.67,12.49,1
2,10105712324000,-4.67,0.42,-2.26,1
2,10105762342000,-0.84,3.41,-0.61,1
2,10105812330000,-3.26,0.99,-4.79,1
2,10105862348000,-5.18,-3.68,-0.53,1
2,10105912336000,-19.61,7.86,-0.3,1
2,10105962354000,-10.57,11.88,3.91,1
2,10106012281000,-6.89,0.72,-1.08,1
2,10106062330000,-2.49,-2.49,-0.65,1
2,10106112348000,1.42,-5.01,-2.79,1
2,10106162336000,-7.27,-0.3,-3.83,1
2,10106212324000,-19.61,8.39,-5.98,1
2,10106262372000,-9.19,7.89,-4.21,1
2,10106312360000,-1.18,5.71,3.41,1
2,10106362379000,-6.32,0.93,-0.57,1
2,10106412336000,0.34,0.93,3.02,1
2,10106462385000,-6.02,3.45,-1.65,1
2,10106512342000,-19.61,11.92,-8.77,1
2,10106562330000,-12.37,9.58,-9.23,1
2,10106612348000,-2.6,3.11,0.19,1
2,10106662336000,-1.88,-2.91,5.05,1
2,10106712324000,2.34,-4.52,3.15,1
2,10106762342000,-8.92,-0.89,-0.53,1
2,10106812330000,-18.16,5.56,3.95,1
2,10106862348000,-14.98,6.24,7.35,1
2,10106912336000,-0.69,3.68,1.54,1
2,10106962324000,-3.68,0.04,1.95,1
2,10107012342000,-2.64,1.46,-1.12,1
2,10107062330000,-7.65,1.61,-6.05,1
2,10107112348000,-17.01,9.77,6.28,1
2,10107162336000,-13.38,7.63,10.08,1
2,10107212324000,-1.99,-0.42,1.14,1
2,10107262342000,-3.45,0.5,-1.92,1
2,10107312330000,-3.36,-3.02,-3.41,1
2,10107362348000,-6.7,-3.98,-1.12,1
2,10107412336000,-18.66,2.26,3.3,1
2,10107462354000,-16.93,16.36,14.33,1
2,10107512372000,-2.41,0.84,2.91,1
2,10107562360000,-7.74,-1.73,0.99,1
2,10107612348000,-2.6,0.72,-1.84,1
2,10107662458000,-4.9,2.6,-5.82,1
2,10107712324000,-9.89,3.26,0.5,1
2,10107762342000,-18.81,15.24,12.72,1
2,10107812330000,-4.71,-2.18,0.69,1
2,10107862348000,-3.06,-0.57,-1.18,1
2,10107912336000,-3.68,-3.02,-1.92,1
2,10107962354000,-1.88,-2.83,-2.53,1
2,10108012281000,-7.5,-1.08,-1.84,1
2,10108062330000,-19.61,15.79,1.73,1
2,10108112348000,-4.29,5.37,9.43,1
2,10108180341000,-6.97,-0.8,4.14,1
2,10108232252000,-3.68,1.14,-1.69,1
2,10108282392000,-2.3,3.15,-7.7,1
2,10108332349000,-8.54,-0.15,1.42,1
2,10108382307000,-18.89,13.33,15.28,1
2,10108442335000,-1.69,-4.86,8.08,1
2,10108492322000,-10.04,0.04,-6.47,1
2,10108542341000,-2.68,-1.08,-1.99,1
2,10108592328000,0.76,-0.61,0.76,1
2,10108642347000,-13.53,0.99,-1.61,1
2,10108692335000,-17.35,6.78,14.41,1
2,10108742322000,-5.43,3.3,0.08,1
2,10108792341000,-5.52,2.87,2.49,1
2,10108842328000,-1.12,-0.72,-0.69,1
2,10108892377000,1.18,-1.76,-0.91,1
2,10108942365000,-5.28,0.95,-3.41,1
2,10108992322000,-19.23,13.44,-7.74,1
2,10109042371000,-10.57,7.12,14.41,1
2,10109092328000,-10.15,-0.65,-1.95,1
2,10109142347000,-3.91,-0.91,-2.26,1
2,10109192335000,-1.42,-1.38,-0.5,1
2,10109252302000,-3.45,-0.65,-2.07,1
2,10109302228000,-17.46,8.05,-5.18,1
2,10109352338000,-13.87,7.08,13.59,1
2,10109402265000,-7.16,2.98,5.56,1
2,10109452314000,-7.01,-4.18,0.72,1
2,10109452314000,-7.01,-4.18,0.72,1
2,10109512281000,-4.9,1.99,-4.21,1
2,10109562330000,-2.18,2.91,-1.8,1
2,10109612348000,-14.33,5.98,3.06,1
2,10109662336000,-16.51,1.04,8.05,1
2,10109712324000,-4.48,-1.31,3.68,1
2,10109762311000,-4.48,0.0,-0.72,1
2,10109812330000,-2.26,-1.65,-1.38,1
2,10109862348000,-3.41,-2.75,-1.27,1
2,10109912336000,-11.69,-0.65,-1.46,1
2,10109962354000,-15.89,9.34,12.26,1
2,10110012311000,-10.95,3.3,-2.37,1
2,10110062330000,-0.46,2.56,4.02,1
2,10110112348000,1.18,0.23,0.23,1
2,10110162336000,-6.21,-0.95,-1.46,1
2,10110212324000,-13.99,3.72,-0.15,1
2,10110267774000,-18.07,12.68,7.12,1
2,10110332258000,-10.0,-1.99,-1.18,1
2,10110382307000,-6.85,-1.84,-0.27,1
2,10110432325000,0.42,0.15,-0.69,1
2,10110492292000,0.95,-2.3,-4.82,1
2,10110542341000,-13.21,-1.33,2.56,1
2,10110592328000,-18.54,10.8,13.06,1
2,10110642347000,-3.06,0.34,-0.53,1
2,10110692335000,-1.08,1.12,2.87,1
2,10110742322000,-3.83,0.89,-1.46,1
2,10110792341000,-4.21,0.38,-0.95,1
2,10110842328000,-13.63,1.84,-0.61,1
2,10110892316000,-19.46,11.65,6.97,1
2,10110942365000,-7.59,-3.91,5.52,1
2,10110992292000,-4.44,0.27,-1.33,1
2,10111042341000,0.34,0.11,-3.41,1
2,10111092328000,-2.26,-0.42,-0.69,1
2,10111142347000,-8.43,-2.98,-2.07,1
2,10111192335000,-16.97,-0.69,1.76,1
2,10111242322000,-12.18,5.79,5.09,1
2,10111292249000,-5.43,2.64,4.02,1
2,10111342328000,-3.87,-1.08,3.57,1
2,10111392377000,-5.05,1.76,-3.68,1
2,10111442335000,-2.11,0.61,-3.21,1
2,10111492322000,-9.66,2.45,-0.99,1
2,10111542341000,-16.66,12.79,8.89,1
2,10111592328000,-3.87,-3.57,4.99,1
2,10111642377000,-4.18,-1.99,-3.41,1
2,10111692335000,-3.41,-1.33,-2.41,1
2,10111742322000,-2.03,-1.92,0.27,1
2,10111792341000,-13.38,-0.61,-0.84,1
2,10111842328000,-18.96,8.2,10.19,1
2,10111892713000,-4.29,2.53,-1.38,1
2,10111942335000,-0.99,0.04,4.1,1
2,10111992292000,-4.67,0.61,-1.14,1
2,10112042341000,-4.75,1.99,-3.06,1
2,10112092328000,-6.85,2.87,-3.76,1
2,10112142377000,-19.57,10.95,9.53,1
2,10112192335000,-8.47,-7.35,5.33,1
2,10112242322000,-7.65,0.15,-0.42,1
2,10112292341000,-3.36,3.49,-0.89,1
2,10112342328000,1.73,-1.65,-4.25,1
2,10112392316000,-3.36,-4.37,-2.22,1
2,10112442335000,-17.77,1.12,4.82,1
2,10112492322000,-13.14,9.92,8.31,1
2,10112542341000,-1.76,-1.57,2.18,1
2,10112592328000,-3.45,-1.33,1.99,1
2,10112642347000,-5.56,1.69,-3.21,1
2,10112692335000,-7.55,2.37,-4.21,1
2,10112742322000,-17.82,9.15,5.22,1
2,10112792402000,-11.95,-1.04,6.7,1
2,10112842359000,-9.89,-2.11,0.23,1
2,10112892377000,-4.02,0.57,1.84,1
2,10112942335000,-0.23,-1.33,-4.75,1
2,10112992292000,-1.31,-2.68,-1.23,1
2,10113042341000,-11.84,0.0,-0.57,1
2,10113092328000,-17.69,7.63,9.51,1
2,10113142347000,-3.49,-0.53,-2.14,1
2,10113192335000,-2.91,0.5,2.07,1
2,10113242322000,-3.53,2.72,-1.65,1
2,10113292310000,-2.98,2.11,-2.11,1
2,10113342298000,-8.92,0.84,5.83,1
2,10113392316000,-19.61,7.93,0.11,1
2,10113442335000,-4.94,0.5,3.91,1
2,10113492322000,-8.5,-1.95,-1.31,1
2,10113542341000,-1.08,-2.14,0.08,1
2,10113592328000,1.65,-3.06,-2.68,1
2,10113642347000,-6.78,-1.14,-1.14,1
2,10113692335000,-19.61,5.94,2.11,1
2,10113742322000,-4.59,3.17,0.15,1
2,10113792341000,-1.42,-1.31,0.84,1
2,10113842298000,-3.76,1.84,1.88,1
2,10113892316000,-4.63,1.42,-1.73,1
2,10113942335000,-8.24,1.95,-1.27,1
2,10113992292000,-19.23,9.58,1.76,1
2,10114042341000,-9.15,-2.72,5.71,1
2,10114092328000,-5.67,-5.13,1.14,1
2,10114142347000,-1.38,-1.23,-4.29,1
2,10114192335000,-2.37,1.12,-1.73,1
2,10114242322000,-6.55,-1.84,-2.6,1
2,10114303052000,-19.46,-3.15,14.67,1
2,10114303052000,-19.46,-3.15,14.67,1
2,10114352277000,-4.82,4.37,-1.84,1
2,10114402296000,-4.1,2.07,2.68,1
2,10114452314000,-6.05,0.93,2.41,1
2,10114512342000,-3.64,1.04,-0.53,1
2,10114562330000,-6.09,2.11,-2.98,1
2,10114612348000,-17.73,10.73,-6.28,1
2,10114662336000,-12.3,-4.06,16.09,1
2,10114712324000,-5.09,-1.73,2.68,1
2,10114762342000,-5.01,0.5,-3.3,1
2,10114812330000,1.08,-0.65,-2.34,1
2,10114862348000,-0.19,-3.87,-2.64,1
2,10114912336000,-17.12,-0.15,-2.3,1
2,10114962324000,-17.69,9.53,8.58,1
2,10115012342000,-2.53,3.15,-2.26,1
2,10115062330000,-3.21,1.23,-0.19,1
2,10115112348000,-4.63,4.67,-1.14,1
2,10115162336000,0.65,2.11,-0.76,1
2,10115212324000,-3.34,0.61,-1.8,1
2,10115263227000,-19.57,14.29,-1.92,1
2,10115322370000,-10.88,-5.05,8.85,1
2,10115372327000,-7.65,-3.11,-1.73,1
2,10115422376000,-3.45,1.38,-1.65,1
2,10115472333000,1.23,0.15,-1.12,1
2,10115522321000,-1.33,-3.02,-3.02,1
2,10115572339000,-16.09,2.96,-1.31,1
2,10115622327000,-13.67,6.59,11.8,1
2,10115672346000,-1.95,1.04,1.92,1
2,10115722333000,-3.95,0.8,2.53,1
2,10115772321000,-4.33,1.76,-1.73,1
2,10115822339000,-3.87,1.73,-4.25,1
2,10115872327000,-8.05,2.64,-0.34,1
2,10115922346000,-18.54,10.31,6.78,1
2,10115972333000,-4.37,-3.15,3.49,1
2,10116022352000,-2.91,-2.79,-3.06,1
2,10116072339000,-2.34,-0.19,-1.46,1
2,10116122327000,1.33,-0.91,1.57,1
2,10116172346000,-8.69,-3.02,-2.3,1
2,10116222333000,-19.61,5.52,-0.61,1
2,10116272230000,-9.85,9.34,5.98,1
2,10116322339000,-1.88,1.14,-2.49,1
2,10116372327000,-5.56,3.21,5.09,1
2,10116422346000,-0.46,1.92,0.11,1
2,10116472364000,-1.04,0.65,-2.03,1
2,10116522321000,-11.41,2.49,-1.76,1
2,10116572339000,-15.83,10.5,11.07,1
2,10116622327000,-8.35,-1.76,3.3,1
2,10116672346000,-7.7,0.8,-2.14,1
2,10116722333000,-2.53,0.61,-0.76,1
2,10116772321000,1.31,-2.96,-1.31,1
2,10116822339000,-2.53,-4.59,-1.42,1
2,10116872327000,-19.61,8.92,1.14,1
2,10116922346000,-8.05,6.47,4.56,1
2,10116972333000,-4.29,0.8,0.42,1
2,10117022321000,-2.26,-1.14,0.95,1
2,10117072339000,-3.17,0.11,-0.04,1
2,10117122327000,-5.2,0.04,-4.21,1
2,10117172346000,-16.97,7.63,-3.34,1
2,10117222333000,-14.06,13.06,10.38,1
2,10117272321000,-8.24,-3.17,2.79,1
2,10117322339000,-6.51,-1.99,-6.28,1
2,10117372327000,-0.8,-0.53,-0.57,1
2,10117422346000,0.8,-2.56,-4.33,1
2,10117472303000,-5.67,-2.56,-5.2,1
2,10117522321000,-19.23,9.04,9.38,1
2,10117572339000,-2.37,1.57,2.03,1
2,10117622327000,-1.95,0.0,5.43,1
2,10117672346000,-7.65,1.18,-1.95,1
2,10117722364000,-2.75,2.11,-1.46,1
2,10117772413000,-3.87,1.65,-4.63,1
2,10117822339000,-17.86,14.37,4.33,1
2,10117872327000,-6.89,-3.02,7.35,1
2,10117922346000,-3.21,-1.18,-1.57,1
2,10117972333000,-2.22,-0.89,-0.89,1
2,10118022321000,-1.8,0.23,-1.8,1
2,10118072339000,0.53,-2.68,-1.14,1
2,10118122358000,-9.43,-1.76,-1.27,1
2,10118172376000,-17.58,6.7,13.63,1
2,10118222333000,0.08,-0.15,-0.72,1
2,10118272321000,0.69,2.03,-2.56,1
2,10118322339000,-4.59,3.68,4.44,1
2,10118372327000,-5.86,0.31,-1.27,1
2,10118422346000,-7.74,1.84,-0.19,1
2,10118472333000,-18.2,8.5,-0.38,1
2,10118522321000,-13.78,-2.64,12.41,1
2,10118572339000,-5.09,-0.99,-0.04,1
2,10118622327000,-2.45,0.11,-1.23,1
2,10118672407000,-2.07,0.15,-1.14,1
2,10118722333000,-2.91,-1.57,-2.07,1
2,10118772321000,-9.7,-2.91,1.12,1
2,10118822339000,-19.61,9.11,12.57,1
2,10118872327000,-2.87,1.69,-1.46,1
2,10118922376000,2.49,0.46,-1.88,1
2,10118972333000,-5.6,3.6,0.11,1
2,10119022321000,-1.57,0.84,0.46,1
2,10119072339000,-4.56,1.08,1.08,1
2,10119122327000,-14.06,6.7,-3.15,1
2,10119172346000,-17.77,6.24,9.34,1
2,10119222333000,-6.78,0.08,3.34,1
2,10119272504000,-2.22,-0.99,-1.53,1
2,10119322370000,-3.11,0.72,-1.95,1
2,10119372358000,-1.84,-0.95,-1.33,1
2,10119422346000,-5.05,-3.68,-2.07,1
2,10119472333000,-18.92,1.84,3.15,1
2,10119542371000,-7.4,4.4,3.15,1
2,10119592237000,-3.45,2.11,2.72,1
2,10119642377000,-5.13,1.95,1.84,1
2,10119692274000,-3.49,0.08,-1.08,1
2,10119742322000,-0.61,0.5,-2.34,1
2,10119792341000,-10.04,2.07,-2.83,1
2,10119842328000,-18.5,9.15,9.38,1
2,10119892347000,-5.94,-1.31,8.43,1
2,10119942335000,-6.7,0.23,-5.63,1
2,10119992322000,-1.88,0.46,0.31,1
2,10120042341000,0.0,1.99,-1.53,1
2,10120092328000,-3.53,-4.86,-0.8,1
2,10120142347000,-19.04,-1.99,4.48,1
2,10120192335000,-15.98,4.48,9.66,1
2,10120242353000,-3.17,1.38,-1.65,1
2,10120242353000,-3.17,1.38,-1.65,1
2,10120302289000,-1.42,-0.3,1.99,1
2,10120362287000,-4.25,1.61,-2.07,1
2,10120412336000,-3.17,1.57,-0.38,1
2,10120462324000,-10.88,2.91,-1.27,1
2,10120512342000,-19.34,8.12,0.84,1
2,10120562330000,-10.69,-2.72,8.24,1
2,10120612348000,-8.2,-3.57,-1.5,1
2,10120662336000,-5.37,1.76,-1.69,1
2,10120712324000,1.88,-0.08,-0.65,1
2,10120762342000,-2.75,-3.11,-0.5,1
2,10120812330000,-17.05,-2.56,-1.14,1
2,10120862348000,-17.86,8.35,8.31,1
2,10120912366000,-4.14,3.34,1.99,1
2,10120962354000,-5.24,-2.07,4.14,1
2,10121012281000,-3.68,0.53,-1.31,1
2,10121062330000,-2.96,-0.38,0.42,1
2,10121112348000,-11.88,0.93,-3.02,1
2,10121162336000,-19.61,6.09,-3.06,1
2,10121212324000,-15.17,1.8,14.41,1
2,10121262403000,-9.89,-1.57,0.89,1
2,10121312330000,-5.98,1.14,-1.38,1
2,10121362348000,-0.19,-0.69,-2.14,1
2,10121412366000,1.18,-1.92,-2.75,1
2,10121462324000,-2.83,-3.79,-2.37,1
2,10121512342000,-19.53,12.41,-2.3,1
2,10121562330000,-5.09,6.21,8.28,1
2,10121612348000,-3.98,-1.08,1.27,1
2,10121662336000,-7.01,1.38,1.69,1
2,10121712293000,-2.96,1.38,0.0,1
2,10121762342000,-0.65,1.23,-4.94,1
2,10121812330000,-7.59,0.5,-4.4,1
2,10121862379000,-18.69,11.14,11.54,1
2,10121912336000,-7.97,-2.22,5.24,1
2,10121962354000,-4.71,-1.88,-2.83,1
2,10122012311000,-5.56,2.6,0.72,1
2,10122062330000,-1.8,-0.23,1.18,1
2,10122112379000,-7.16,-2.64,-0.38,1
2,10122162336000,-15.62,-2.18,-0.61,1
2,10122212324000,-15.98,4.56,8.92,1
2,10122262342000,-1.95,3.49,5.24,1
2,10122312330000,-9.72,-0.23,4.14,1
2,10122362348000,-5.28,0.72,-0.15,1
2,10122412336000,-2.68,0.76,0.0,1
2,10122462324000,-1.04,1.08,-6.09,1
2,10122512342000,-13.72,5.67,-4.1,1
2,10122562330000,-16.36,4.9,18.09,1
2,10122612379000,-5.94,-0.19,3.34,1
2,10122662336000,-4.63,-0.08,-3.76,1
2,10122712324000,-1.14,-1.8,-3.45,1
2,10122762342000,1.92,-4.63,-0.95,1
2,10122812330000,-7.74,-3.45,-2.34,1
2,10122862348000,-19.61,5.71,1.92,1
2,10122912366000,-8.16,5.33,3.45,1
2,10122962324000,-1.5,0.27,-0.91,1
2,10123012342000,-3.15,0.95,3.53,1
2,10123062330000,-2.91,0.53,-1.23,1
2,10123112348000,-2.68,0.93,-2.22,1
2,10123162336000,-12.34,2.15,-1.12,1
2,10123212324000,-18.73,8.35,13.33,1
2,10123262342000,-7.89,-0.72,1.5,1
2,10123312330000,-1.04,0.11,-2.6,1
2,10123362348000,-2.49,1.33,-2.37,1
2,10123412397000,-1.65,-1.42,-0.5,1
2,10123462354000,-5.13,-5.28,-1.46,1
2,10123512372000,-19.61,3.76,6.63,1
2,10123562391000,-7.86,5.98,4.1,1
2,10123612348000,-2.98,-0.99,-0.72,1
2,10123662336000,-4.63,1.14,3.68,1
2,10123712324000,-3.3,4.1,-1.69,1
2,10123762342000,-0.04,3.34,-5.24,1
2,10123812330000,-10.31,4.1,-4.29,1
2,10123862348000,-17.27,4.33,12.11,1
2,10123912336000,-7.16,-4.56,0.31,1
2,10123962293000,-7.16,-2.11,-3.34,1
2,10124012281000,-2.53,0.95,0.46,1
2,10124062360000,2.03,-1.92,-0.19,1
2,10124112348000,-2.64,-3.26,-2.91,1
2,10124162336000,-17.35,-0.84,1.57,1
2,10124212324000,-12.79,5.75,5.01,1
2,10124262342000,-1.95,-0.27,-0.11,1
2,10124312330000,-4.14,1.31,4.4,1
2,10124362348000,-5.33,2.96,-1.12,1
2,10124412336000,-1.46,1.88,-2.56,1
2,10124462324000,-6.09,0.38,-3.95,1
2,10124512342000,-19.61,9.47,11.03,1
2,10124562330000,-5.43,-3.17,5.22,1
2,10124622266000,-6.55,0.15,-2.14,1
2,10124672315000,-1.04,-0.27,-1.95,1
2,10124722333000,1.54,-4.4,0.8,1
2,10124772321000,-8.92,-4.25,-2.37,1
2,10124822339000,-19.61,1.38,8.12,1
2,10124872327000,-8.96,8.31,5.71,1
2,10124922346000,-0.65,-1.18,-4.21,1
2,10124972303000,1.23,-0.23,4.9,1
2,10125022291000,-3.49,-0.23,-1.46,1
2,10125072339000,-9.15,0.53,0.46,1
2,10125122327000,-11.75,1.08,-0.65,1
2,10125172346000,-19.61,11.11,1.92,1
2,10125222333000,-7.89,-2.53,8.35,1
2,10125272260000,-2.34,1.31,0.19,1
2,10125322339000,0.0,-3.11,-5.41,1
2,10125372327000,-3.36,-4.37,-4.06,1
2,10125422376000,-16.59,1.23,-1.92,1
2,10125472333000,-19.53,14.18,-1.08,1
2,10125522321000,-5.37,4.25,4.1,1
2,10125572339000,-7.44,0.61,-2.96,1
2,10125622358000,-3.91,0.34,-0.08,1
2,10125672346000,0.04,0.76,-0.61,1
2,10125722333000,-4.29,-0.42,-4.44,1
2,10125772321000,-18.58,2.98,3.26,1
2,10125822339000,-18.77,7.74,3.41,1
2,10125872327000,-7.97,-0.23,5.09,1
2,10125922346000,-4.82,2.03,-2.53,1
2,10125972333000,-1.18,-0.5,-1.14,1
2,10126022321000,0.34,-3.83,-2.26,1
2,10126072339000,-7.7,-5.13,0.0,1
2,10126122327000,-19.61,4.37,-9.77,1
2,10126172346000,-8.88,13.4,10.99,1
2,10126222333000,-3.15,-1.5,-2.11,1
2,10126272230000,-6.59,0.23,3.3,1
2,10126322339000,-3.17,3.68,-2.53,1
2,10126372327000,-3.72,1.04,-0.95,1
2,10126422346000,-10.76,2.03,0.46,1
2,10126472333000,-19.23,13.21,-5.37,1
2,10126522352000,-13.57,1.8,8.81,1
