user-id,timestamp,accX,accY,accZ,ActivityEncoded
19,130196601595000,-2.3,-2.98,-4.67,1
19,130196641878000,-17.58,-8.16,-8.24,1
19,130196681459000,-19.23,-1.84,-3.99,1
19,130196681459000,-19.23,-1.84,-3.99,1
19,130196761415000,-17.69,14.02,-2.03,1
19,130196841646000,8.08,17.88,-0.15,1
19,130196881593000,11.69,11.84,7.04,1
19,130196921632000,0.08,2.83,-4.21,1
19,130196961549000,-15.98,15.51,-6.63,1
19,130197041505000,-17.67,-2.37,1.65,1
19,130197081453000,-9.0,-7.08,-0.8,1
19,130197121522000,-7.44,-9.85,-3.06,1
19,130197161531000,-0.42,-7.35,-3.17,1
19,130197211519000,2.6,-5.79,-4.33,1
19,130197291597000,1.04,-5.9,2.3,1
19,130197331575000,-3.26,-4.86,3.34,1
19,130197371675000,-4.4,-3.21,-3.38,1
19,130197452089000,-19.23,-0.27,-0.31,1
19,130197492403000,-17.97,5.94,-7.27,1
19,130197542207000,-12.45,16.44,0.84,1
19,130197581605000,-5.52,19.76,4.25,1
19,130197622682000,11.54,16.47,9.3,1
19,130197701601000,-4.33,2.98,-6.13,1
19,130197743227000,-18.47,17.86,2.41,1
19,130197791750000,-19.19,2.87,-0.31,1
19,130197831483000,-11.73,-1.31,-2.79,1
19,130197871522000,-7.08,-6.74,-3.21,1
19,130197911531000,2.26,-6.78,-2.68,1
19,130197991945000,2.11,-3.95,-1.31,1
19,130198031496000,0.89,-2.98,3.15,1
19,130198071504000,-4.48,-7.93,6.74,1
19,130198151521000,-16.93,-11.56,-4.82,1
19,130198192140000,-19.23,-7.86,-3.02,1
19,130198231599000,-19.23,2.96,-2.34,1
19,130198275026000,-17.77,9.7,-1.31,1
19,130198311952000,-2.15,14.63,-2.68,1
19,130198392061000,11.99,16.51,3.76,1
19,130198431642000,4.52,2.91,2.79,1
19,130198471529000,-6.97,4.94,-7.06,1
19,130198515321000,-19.11,16.86,2.75,1
19,130198591646000,-10.53,-1.76,-3.79,1
19,130198631502000,-5.13,-6.51,-3.57,1
19,130198671632000,-1.92,-7.04,-4.18,1
19,130198751649000,0.38,-4.4,-4.33,1
19,130198791811000,1.76,-2.68,-2.91,1
19,130198831514000,0.42,-3.98,-0.72,1
19,130198871645000,-2.53,-4.1,0.46,1
19,130198912050000,-13.67,-6.47,-3.79,1
19,130198991609000,-19.15,2.41,-3.87,1
19,130199031618000,-17.69,8.12,-7.63,1
19,130199071657000,-14.37,18.85,-2.68,1
19,130199111513000,-1.88,19.53,2.03,1
19,130199191713000,5.71,0.89,3.53,1
19,130199231477000,-2.68,4.82,-6.78,1
19,130199351381000,-10.34,-1.5,-0.84,1
19,130199351381000,-10.34,-1.5,-0.84,1
19,130199391450000,-4.71,-7.44,-0.76,1
19,130199431520000,-2.83,-8.08,-2.68,1
19,130199471498000,1.84,-6.78,-3.02,1
19,130199511659000,1.12,-3.34,-1.04,1
19,130199591615000,-3.72,-4.56,5.05,1
19,130199631624000,-2.64,-3.76,-1.76,1
19,130199671541000,-16.02,-8.24,-5.09,1
19,130199752077000,-17.92,3.49,-1.69,1
19,130199791750000,-14.63,9.72,-0.19,1
19,130199831636000,-12.57,15.64,5.18,1
19,130199871522000,2.22,13.99,-2.11,1
19,130199951601000,-2.15,1.46,-1.76,1
19,130199991701000,-16.93,8.69,-1.27,1
19,130200031648000,-19.23,10.15,-1.46,1
19,130200071657000,-18.16,0.5,-4.52,1
19,130200151613000,-4.99,-7.46,-2.87,1
19,130200191682000,-1.5,-7.82,-4.44,1
19,130200231599000,0.65,-6.09,-4.37,1
19,130200271486000,0.84,-3.79,-2.45,1
19,130200351625000,-2.64,-3.72,2.41,1
19,130200391725000,-7.35,-3.87,-2.07,1
19,130200434480000,-18.54,-11.45,-3.87,1
19,130200471651000,-19.23,-3.15,-1.38,1
19,130200551607000,-14.82,10.57,-5.05,1
19,130200591737000,-10.38,19.23,5.18,1
19,130200631471000,1.88,17.43,-1.65,1
19,130200671541000,10.53,9.77,5.48,1
19,130200751588000,-12.45,8.01,-7.46,1
19,130200791689000,-19.23,13.29,2.53,1
19,130200831514000,-18.2,-1.88,-1.54,1
19,130200871522000,-6.63,-4.63,-1.46,1
19,130200951479000,1.46,-6.63,-3.45,1
19,130200991701000,1.76,-4.71,-3.49,1
19,130201031465000,0.34,-2.37,-0.72,1
19,130201071504000,0.46,-2.49,1.42,1
19,130201151643000,-14.98,-6.85,-3.38,1
19,130201191713000,-19.23,-8.88,-2.91,1
19,130201231477000,-19.23,1.46,-3.15,1
19,130201271638000,-19.23,7.63,-4.75,1
19,130201351625000,-7.31,16.74,4.06,1
19,130201391756000,12.56,18.62,4.14,1
19,130201431520000,8.43,2.37,7.93,1
19,130201472658000,-3.99,1.57,-5.56,1
19,130201512239000,-18.47,15.94,1.18,1
19,130201591707000,-13.18,0.0,-1.04,1
19,130201631471000,-5.94,-4.25,-1.08,1
19,130201671632000,-3.45,-5.75,-2.45,1
19,130201751680000,2.34,-3.6,-2.91,1
19,130201791505000,0.46,-2.03,-1.18,1
19,130201831422000,-2.3,-6.17,1.73,1
19,130201871553000,-7.78,-6.02,-0.57,1
19,130201911653000,-15.24,-5.13,-4.02,1
19,130201991701000,-19.23,2.64,-2.98,1
19,130202031618000,-16.89,7.27,-3.99,1
19,130202071657000,-11.73,15.02,0.72,1
19,130202151552000,9.23,16.97,6.21,1
19,130202191713000,2.91,2.91,2.3,1
19,130202241548000,-13.87,13.14,-6.21,1
19,130202281496000,-19.23,6.93,4.71,1
19,130202321504000,-16.47,-1.88,-2.11,1
19,130202401491000,-3.34,-8.35,-4.56,1
19,130202441591000,-0.89,-8.35,-5.94,1
19,130202481599000,0.89,-7.93,-5.98,1
19,130202521486000,2.41,-3.87,-2.26,1
19,130202601503000,-1.92,-3.15,4.06,1
19,130202641634000,-5.79,-1.99,-1.84,1
19,130202681490000,-18.24,-9.58,-3.79,1
19,130202721620000,-19.23,-2.91,1.23,1
19,130202801668000,-12.15,11.88,-3.21,1
19,130202841646000,-8.89,18.31,1.08,1
19,130202881441000,5.37,19.38,4.44,1
19,130202921602000,7.93,5.37,6.89,1
19,130203001894000,-14.25,15.02,-5.71,1
19,130203041505000,-19.23,10.0,5.41,1
19,130203081483000,-12.83,0.72,0.72,1
19,130203121522000,-3.99,-2.96,-3.45,1
19,130203161501000,-5.22,-7.25,-2.96,1
19,130203241457000,1.53,-4.75,-3.15,1
19,130203281587000,0.95,-3.41,-2.18,1
19,130203321535000,0.3,-5.43,0.61,1
19,130203401582000,-14.29,-5.09,-3.26,1
19,130203441621000,-19.23,-6.82,-2.22,1
19,130203481508000,-19.23,2.15,-4.18,1
19,130203521516000,-14.25,6.24,-2.83,1
19,130203567567000,-9.7,16.66,3.45,1
19,130203651674000,11.8,14.67,5.75,1
19,130203691774000,3.49,2.18,0.89,1
19,130203731508000,-8.08,7.89,-8.05,1
19,130203771547000,-19.23,14.98,5.05,1
19,130203851564000,-8.69,-3.26,1.95,1
19,130203891634000,-6.21,-8.31,1.38,1
19,130203931673000,-2.72,-5.94,-2.87,1
19,130203971498000,1.61,-4.56,-4.1,1
19,130204011629000,0.23,-1.08,-0.61,1
19,130204091798000,-0.8,-2.3,-0.46,1
19,130204131532000,-7.46,-7.08,0.08,1
19,130204171663000,-17.92,-7.63,-1.84,1
19,130204211671000,-19.23,-3.68,-4.52,1
19,130204291780000,-16.47,12.45,-2.07,1
19,130204332704000,-10.84,18.12,5.63,1
19,130204371522000,-0.34,11.14,-2.41,1
19,130204411806000,6.89,13.59,-0.65,1
19,130204493623000,-0.72,4.37,-4.9,1
19,130204542207000,-18.92,17.27,5.9,1
19,130204591798000,-17.12,0.95,4.25,1
19,130204631502000,-5.79,-4.33,3.3,1
19,130204671541000,-6.44,-7.46,-0.65,1
19,130204711580000,-0.46,-6.78,-2.41,1
19,130204791841000,1.53,-2.87,-1.46,1
19,130204831667000,1.69,-3.87,-0.76,1
19,130204871553000,-3.17,-5.43,0.8,1
19,130204911684000,-12.6,-4.71,-1.04,1
19,130205002016000,-19.23,5.24,-3.06,1
19,130205041658000,-17.08,9.58,-4.52,1
19,130205081514000,-11.99,18.77,-1.54,1
19,130205121645000,-2.72,19.65,2.87,1
19,130205201662000,4.79,2.98,1.04,1
19,130205241762000,-7.27,4.4,-8.28,1
19,130205281618000,-19.23,16.97,3.95,1
19,130205331636000,-18.77,-0.91,0.3,1
19,130205371675000,-10.15,-2.68,-3.72,1
19,130205411684000,-7.93,-8.73,-3.6,1
19,130205491640000,1.42,-6.4,-2.18,1
19,130205536287000,2.07,-3.95,-0.53,1
19,130205573427000,1.8,-4.29,3.45,1
19,130205651704000,-3.95,-2.22,-1.99,1
19,130205691774000,-14.18,-8.73,-2.49,1
19,130205731630000,-19.23,-10.95,0.46,1
19,130205771516000,-19.23,1.18,-3.38,1
19,130205811708000,-17.67,8.81,-3.57,1
19,130205891664000,-6.17,16.47,-2.56,1
19,130205933137000,10.72,17.47,1.65,1
19,130205971651000,5.33,2.18,5.2,1
19,130206051546000,-19.19,18.58,3.49,1
19,130206091646000,-19.19,4.67,-1.04,1
19,130206131532000,-12.07,-1.46,-5.48,1
19,130206171510000,-9.34,-6.74,-4.4,1
19,130206251497000,0.5,-6.51,-8.05,1
19,130206291750000,2.26,-4.52,-7.89,1
19,130206331697000,4.02,-3.41,-3.06,1
19,130206371645000,1.38,-3.41,1.57,1
19,130206451509000,-8.85,4.79,-6.7,1
19,130206571260000,-15.64,4.79,-6.7,1
19,130206571260000,-15.64,4.79,-6.7,1
19,130206571260000,-15.64,4.79,-6.7,1
19,130206611635000,-10.38,14.1,-2.53,1
19,130206701662000,9.34,16.78,7.01,1
19,130206741670000,4.59,2.15,3.36,1
19,130206781496000,-3.53,4.71,-6.24,1
19,130206821718000,-18.66,18.01,5.24,1
19,130206871675000,-18.01,4.63,-0.27,1
19,130206951509000,-5.79,-6.63,-2.96,1
19,130206991579000,-1.76,-6.09,-2.79,1
19,130207031618000,1.84,-4.52,-2.76,1
19,130207071687000,2.87,-4.1,-3.76,1
19,130207151521000,-0.27,-5.05,0.57,1
19,130207191621000,-5.71,-4.29,2.14,1
19,130207233553000,-16.04,-5.28,-4.21,1
19,130207271669000,-19.23,-4.71,-2.34,1
19,130207351564000,-16.51,8.85,-4.29,1
19,130207391756000,-13.02,18.12,-2.76,1
19,130207431642000,-3.06,19.57,2.68,1
19,130207471651000,12.3,15.85,7.63,1
19,130207551454000,-1.08,0.99,-3.11,1
19,130207591768000,-15.47,14.6,-3.68,1
19,130207631654000,-19.23,6.74,7.21,1
19,130207671541000,-15.66,-0.95,-0.04,1
19,130207711580000,-6.93,-5.82,2.26,1
19,130207791689000,-3.06,-4.71,-1.57,1
19,130207831514000,1.23,-3.34,-1.33,1
19,130207871553000,2.3,-2.34,-1.38,1
19,130207951479000,-0.57,-2.68,4.29,1
19,130207991731000,-6.02,-4.67,-3.72,1
19,130208031648000,-18.89,-11.45,-5.28,1
19,130208071535000,-19.23,-4.18,0.42,1
19,130208151674000,-19.23,9.38,-1.5,1
19,130208191713000,-13.25,16.32,3.6,1
19,130208231508000,-6.44,12.41,0.08,1
19,130208271669000,6.43,15.66,-2.15,1
19,130208311708000,12.53,1.33,-0.46,1
19,130208352480000,1.92,1.33,-0.46,1
19,130208404298000,-13.8,10.65,-5.37,1
19,130208491670000,-17.31,-2.72,0.57,1
19,130208531526000,-8.81,-4.4,-1.46,1
19,130208571718000,-7.06,-8.66,-1.57,1
19,130208651521000,1.04,-4.63,-1.92,1
19,130208691469000,1.95,-4.48,-2.64,1
19,130208731660000,1.61,-1.73,-0.15,1
19,130208771547000,1.65,-1.73,2.22,1
19,130208851747000,-9.96,-4.37,-2.34,1
19,130208851747000,-19.23,-12.56,-1.73,1
19,130208941499000,-19.23,0.95,-6.21,1
19,130208981691000,-18.58,8.66,-5.33,1
19,130209021638000,-12.37,18.7,5.63,1
19,130209101656000,4.52,8.47,-0.23,1
19,130209141664000,7.08,8.28,-0.57,1
19,130209181703000,3.79,4.29,-0.15,1
19,130209221651000,-2.11,2.76,-3.06,1
19,130209262178000,-18.05,14.6,-0.19,1
19,130209343782000,-12.87,-2.3,1.04,1
19,130209381898000,-6.47,-7.59,1.65,1
19,130209421663000,-7.93,-10.23,-1.84,1
19,130209461580000,-1.18,-7.21,-2.53,1
19,130209541475000,1.69,-5.71,-1.92,1
19,130209581667000,4.52,-1.53,0.57,1
19,130209621522000,1.46,-1.27,2.22,1
19,130209701662000,-11.37,-4.4,-3.76,1
19,130209744112000,-19.23,-15.17,0.15,1
19,130209781648000,-19.23,-2.53,-4.33,1
19,130209821657000,-18.7,5.41,-4.29,1
19,130209901765000,-10.57,16.02,2.34,1
19,130209941652000,1.46,17.27,0.69,1
19,130209981538000,8.08,13.48,4.02,1
19,130210021669000,4.37,5.37,1.76,1
19,130210061586000,-3.76,3.02,-4.14,1
19,130210142824000,-19.23,6.02,-2.11,1
19,130210181581000,-16.47,-4.79,0.91,1
19,130210221651000,-7.46,-11.03,3.06,1
19,130210301668000,-1.14,-6.24,-2.76,1
19,130210341646000,0.76,-5.98,-3.68,1
19,130210381502000,2.07,-5.86,-4.52,1
19,130210421632000,3.17,-1.04,0.61,1
19,130210461702000,1.08,-1.65,2.49,1
19,130210541536000,-11.26,-4.67,-3.87,1
19,130210583986000,-19.23,-15.13,0.84,1
19,130210621431000,-19.23,-2.72,-5.94,1
19,130210701906000,-14.79,14.6,5.43,1
19,130210701906000,-14.79,14.6,5.43,1
19,130210784364000,2.91,17.86,2.07,1
19,130210821504000,8.16,13.21,4.59,1
19,130210861696000,-9.04,4.6,-5.52,1
19,130210944246000,-19.23,14.6,3.49,1
19,130210981660000,-19.23,1.99,-2.41,1
19,130211021516000,-15.83,-3.76,-1.42,1
19,130211101656000,-6.02,-8.27,-3.41,1
19,130211141634000,-0.72,-5.41,-2.96,1
19,130211181642000,0.19,-5.75,-3.49,1
19,130211221620000,1.31,-4.18,-3.11,1
19,130211301759000,1.42,-3.64,4.59,1
19,130211341646000,-1.99,-1.99,0.53,1
19,130211381532000,-10.61,-4.99,-3.83,1
19,130211421663000,-19.23,-17.35,0.61,1
19,130211464143000,-19.23,-4.52,-7.01,1
19,130211541627000,-19.04,14.56,-1.8,1
19,130211582735000,-13.59,16.82,3.95,1
19,130211622560000,-0.76,18.81,-2.83,1
19,130211662660000,11.56,14.18,8.16,1
19,130211741640000,-4.06,3.02,-4.33,1
19,130211781587000,-18.66,16.04,-0.69,1
19,130211821626000,-19.23,7.63,-2.87,1
19,130211901735000,-13.91,-8.27,-3.68,1
19,130211941499000,-5.41,-10.95,-1.27,1
19,130211981477000,-0.61,-6.63,-2.68,1
19,130212021669000,2.26,-7.12,-5.63,1
19,130212061708000,1.18,-1.31,0.42,1
19,130212141603000,4.21,-0.84,2.75,1
19,130212181673000,-2.22,-4.21,2.68,1
19,130212221620000,-8.73,-4.82,-2.91,1
19,130212301668000,-19.23,-6.93,-3.49,1
19,130212351625000,-19.23,4.56,-10.76,1
19,130212391542000,-18.43,15.02,-4.37,1
19,130212431642000,-12.18,16.74,5.86,1
19,130212471498000,-0.89,18.54,-1.95,1
19,130212551698000,4.06,4.52,2.45,1
19,130212593294000,-3.91,3.91,-6.47,1
19,130212631502000,-18.47,16.78,-0.04,1
19,130212671663000,-19.23,3.3,-0.46,1
19,130212751527000,-8.24,-4.79,-1.92,1
19,130212791536000,-7.35,-9.89,-2.15,1
19,130212831483000,-2.03,-5.98,-1.84,1
19,130212871675000,1.95,-4.99,-2.98,1
19,130212911592000,1.5,-1.08,0.38,1
19,130212991518000,0.99,-3.98,4.25,1
19,130213031648000,-4.75,-4.56,-0.11,1
19,130213071535000,-14.44,-8.43,-6.28,1
19,130213151643000,-19.23,2.15,-3.21,1
19,130213191591000,-19.23,7.25,-7.06,1
19,130213231630000,-16.21,11.92,-2.76,1
19,130213271516000,-9.04,14.18,5.28,1
19,130213311616000,1.8,17.27,-4.6,1
19,130213353578000,11.5,15.4,5.05,1
19,130213451692000,-18.24,14.86,-2.76,1
19,130213491609000,-19.23,7.35,-1.57,1
19,130213531465000,-18.62,-2.53,-0.11,1
19,130213571535000,-12.45,-4.75,-4.6,1
19,130213651552000,1.33,-5.98,-4.86,1
19,130213731386000,1.33,-5.98,-0.61,1
19,130213771516000,2.98,-2.34,-0.61,1
19,130213771516000,2.98,-2.34,-0.61,1
19,130213851625000,-1.84,-1.57,1.38,1
19,130213891481000,-7.82,-3.41,-4.86,1
19,130213931673000,-19.23,-13.76,-1.31,1
19,130213971498000,-19.23,-3.68,-3.45,1
19,130214011476000,-18.35,4.1,-7.74,1
19,130214091646000,-11.99,17.47,4.29,1
19,130214131502000,2.87,18.24,1.57,1
19,130214171632000,10.11,12.79,5.13,1
19,130214211519000,1.76,1.46,-0.65,1
19,130214291475000,-19.23,16.04,6.36,1
19,130214331636000,-19.11,-2.3,3.06,1
19,130214372865000,-9.96,-2.11,0.11,1
19,130214451509000,-2.79,-5.56,-2.11,1
19,130214491457000,1.5,-3.72,-2.34,1
19,130214531618000,2.64,-4.25,-4.29,1
19,130214571626000,0.89,-1.65,-1.69,1
19,130214651521000,-5.86,-8.2,0.19,1
19,130214691591000,-14.18,-7.25,-1.08,1
19,130214731599000,-19.23,-7.93,-4.67,1
19,130214771486000,-19.23,2.91,-2.87,1
19,130214851656000,-13.72,14.48,-3.21,1
19,130214891603000,-6.36,18.05,3.64,1
19,130214931520000,5.6,14.63,-0.11,1
19,130214971651000,9.81,12.22,3.17,1
19,130215052370000,-11.54,7.5,-7.12,1
19,130215094484000,-19.23,13.02,4.21,1
19,130215131593000,-18.85,-0.8,0.69,1
19,130215171510000,-8.2,-3.41,2.26,1
19,130215251527000,-3.99,-7.08,-3.06,1
19,130215291597000,0.5,-4.75,-2.3,1
19,130215331483000,1.99,-5.43,-3.41,1
19,130215371492000,2.45,-2.3,-1.42,1
19,130215451631000,-1.57,-2.26,1.46,1
19,130215491518000,-5.86,-2.03,-0.89,1
19,130215531587000,-18.47,-12.56,-1.92,1
19,130215572023000,-19.23,-3.57,-1.18,1
19,130215611604000,-19.19,2.49,-5.24,1
19,130215691713000,-13.02,18.81,5.75,1
19,130215731508000,0.23,17.05,-3.3,1
19,130215771638000,11.11,15.43,7.31,1
19,130215851503000,-8.31,7.63,-8.5,1
19,130215891695000,-19.23,16.25,5.09,1
19,130215931642000,-19.23,0.89,-1.42,1
19,130215971651000,-12.41,-2.14,-2.45,1
19,130216051485000,-6.63,-9.81,-4.63,1
19,130216091615000,-1.92,-8.31,-5.75,1
19,130216131624000,0.76,-7.65,-7.16,1
19,130216171663000,2.07,-2.98,-1.95,1
19,130216251649000,-1.38,-3.36,3.26,1
19,130216291475000,-2.76,-2.68,-3.21,1
19,130216333589000,-17.27,-10.8,-3.17,1
19,130216382997000,-19.23,-2.68,-1.84,1
19,130216421632000,-18.54,4.86,-8.05,1
19,130216461702000,-14.82,15.24,-2.22,1
19,130216541505000,1.88,18.5,3.57,1
19,130216581636000,11.33,12.95,8.77,1
19,130216621645000,-0.23,1.61,-2.15,1
19,130216661684000,-19.23,9.51,5.09,1
19,130216741640000,-18.54,-6.21,3.87,1
19,130216781496000,-7.27,-7.12,1.42,1
19,130216821504000,-6.7,-7.4,-3.45,1
19,130216821504000,-6.7,-7.4,-3.45,1
19,130216915376000,2.45,-3.26,-4.67,1
19,130216991579000,2.03,-0.76,0.46,1
19,130217031465000,1.08,-5.98,5.67,1
19,130217071626000,-1.33,-3.72,-2.03,1
19,130217111635000,-14.1,-7.63,-7.12,1
19,130217192140000,-18.35,2.41,-4.14,1
19,130217234560000,-16.4,7.82,-2.91,1
19,130217271822000,-16.36,17.5,8.24,1
19,130217351472000,6.82,16.82,-1.42,1
19,130217393129000,7.63,9.08,4.9,1
19,130217431520000,-0.95,2.72,-3.15,1
19,130217471712000,-16.7,14.82,-4.06,1
19,130217512880000,-19.23,7.25,3.68,1
19,130217591493000,-9.51,-9.11,-1.27,1
19,130217631471000,-6.36,-9.7,-3.64,1
19,130217671510000,-0.8,-5.94,-2.11,1
19,130217751497000,1.31,-4.18,-2.79,1
19,130217791536000,1.8,-2.41,1.57,1
19,130217831483000,0.5,-3.87,2.41,1
19,130217871522000,-4.63,-2.07,1.46,1
19,130217919466000,-15.47,-8.54,-4.37,1
19,130217962129000,-19.23,1.08,-5.43,1
19,130218041475000,-18.05,8.54,-6.51,1
19,130218081636000,-13.57,15.85,-2.87,1
19,130218121645000,-4.56,19.0,3.76,1
19,130218201631000,7.65,5.71,6.82,1
19,130218241518000,-1.76,1.54,-4.33,1
19,130218281618000,-16.17,14.98,-2.07,1
19,130218321596000,-19.23,6.82,3.45,1
19,130218361543000,-8.24,-4.37,-3.91,1
19,130218441469000,-6.55,-7.86,-3.15,1
19,130218481477000,-0.93,-5.6,-2.3,1
19,130218521638000,1.99,-4.37,-3.26,1
19,130218601595000,1.14,-1.76,-0.31,1
19,130218641481000,-0.76,-5.13,2.6,1
19,130218681642000,-5.28,-3.95,-0.04,1
19,130218721468000,-15.51,-8.39,-5.43,1
19,130218761537000,-19.23,2.15,-3.95,1
19,130218841615000,-18.58,8.96,-6.66,1
19,130218883150000,-13.38,16.59,2.07,1
19,130218921602000,-6.24,17.2,3.3,1
19,130218961702000,6.89,4.9,9.0,1
19,130219041505000,0.34,0.23,-1.14,1
19,130219081636000,-13.14,11.03,-6.17,1
19,130219121675000,-19.23,11.03,6.63,1
19,130219161531000,-19.0,-1.84,-0.08,1
19,130219241670000,-9.38,-7.78,-2.26,1
19,130219281496000,-3.6,-6.47,-2.56,1
19,130219321626000,1.61,-4.18,-3.17,1
19,130219361543000,2.03,-3.15,-2.72,1
19,130219442934000,1.69,-4.79,4.21,1
19,130219481630000,-1.69,-3.45,1.57,1
19,130219521547000,-7.93,-4.52,-4.21,1
19,130219561708000,-19.19,-12.98,-3.34,1
19,130219651643000,-19.23,8.43,-6.17,1
19,130219691621000,-18.12,18.31,-4.14,1
19,130219731477000,-8.92,14.79,4.37,1
19,130219771516000,5.82,17.35,-3.72,1
19,130219851656000,1.73,1.31,-0.76,1
19,130219891634000,-11.07,10.69,-10.12,1
19,130219931551000,-19.23,13.4,6.28,1
19,130219975191000,-18.77,-3.83,2.07,1
19,130220051515000,-4.67,-9.43,5.01,1
19,130220091493000,-3.99,-5.82,-0.34,1
19,130220131624000,1.23,-3.21,-0.57,1
19,130220171510000,1.8,-2.6,-0.61,1
19,130220251497000,-2.6,-4.02,0.65,1
19,130220291963000,-10.46,-6.4,-1.65,1
19,130220331636000,-19.19,-9.47,0.11,1
19,130220371522000,-19.23,-1.08,-1.08,1
19,130220413362000,-19.23,4.56,-2.22,1
19,130220491670000,-10.46,14.37,5.37,1
19,130220531618000,-2.22,8.85,-1.33,1
19,130220571504000,7.12,16.21,-0.72,1
19,130220651643000,-2.22,1.23,-2.83,1
19,130220694307000,-18.47,11.75,0.46,1
19,130220731721000,-19.23,-0.15,0.65,1
19,130220771761000,-17.16,-2.53,-1.38,1
19,130220811800000,-8.31,-5.2,-1.12,1
19,130220941286000,0.91,-5.63,-2.18,1
19,130220941286000,0.91,-5.63,-2.18,1
19,130220981935000,1.73,-5.24,-2.11,1
19,130221021547000,3.17,-3.72,-1.54,1
19,130221101625000,-5.33,-2.03,0.38,1
19,130221142274000,-14.9,-7.16,-2.72,1
19,130221181642000,-19.23,-10.69,-0.5,1
19,130221221620000,-19.23,2.03,-3.02,1
19,130221301637000,-13.44,17.39,4.02,1
19,130221301637000,-13.44,14.79,-2.41,1
19,130221371584000,3.64,14.79,-2.41,1
19,130221411806000,12.37,11.5,6.7,1
19,130221493318000,-14.63,9.0,-3.83,1
19,130221531465000,-19.23,10.88,4.37,1
19,130221571504000,-18.73,-2.41,0.3,1
19,130221651521000,-8.85,-7.01,-3.83,1
19,130221691469000,-4.67,-8.5,-3.45,1
19,130221731599000,0.23,-6.05,-3.57,1
19,130221771669000,2.34,-6.21,-4.48,1
19,130221851533000,1.33,-2.79,0.04,1
19,130221891634000,-1.5,-2.79,2.53,1
19,130221931612000,-8.66,-3.45,-1.27,1
19,130221971559000,-19.23,-14.06,-1.65,1
19,130222051637000,-19.23,3.17,-7.93,1
19,130222091646000,-17.2,13.76,-3.87,1
19,130222131563000,-11.03,16.78,3.3,1
19,130222171510000,-2.98,17.69,1.38,1
19,130222251588000,2.75,3.21,3.17,1
19,130222291627000,-6.44,3.38,-8.81,1
19,130222331605000,-19.19,16.51,2.75,1
19,130222371614000,-19.23,0.23,0.11,1
19,130222451479000,-5.98,-5.6,-4.4,1
19,130222491609000,-4.33,-8.47,-3.76,1
19,130222531465000,0.46,-5.9,-3.99,1
19,130222571687000,2.41,-4.33,-4.82,1
19,130222611665000,2.07,-2.11,-2.03,1
19,130222691591000,0.19,-3.02,2.45,1
19,130222731630000,-3.68,-3.45,-1.18,1
19,130222772249000,-17.54,-8.69,-4.75,1
19,130222818117000,-19.19,-1.61,-1.57,1
19,130222863405000,-16.97,3.11,-6.44,1
19,130222951479000,-5.52,16.09,-2.37,1
19,130222992189000,5.82,13.63,-0.84,1
19,130223031648000,7.16,8.54,3.72,1
19,130223071626000,-0.23,1.88,-1.61,1
19,130223151460000,-19.23,6.09,3.87,1
19,130223191591000,-17.47,-1.88,-0.46,1
19,130223231630000,-6.09,-5.05,0.89,1
19,130223271516000,-5.63,-7.35,-1.69,1
19,130223311647000,1.23,-2.75,-1.73,1
19,130223391573000,1.99,-2.98,-1.88,1
19,130223431551000,1.46,-1.84,-0.65,1
19,130223471498000,1.04,-2.75,0.8,1
19,130223511659000,-4.48,-5.67,0.46,1
19,130223554475000,-17.62,-11.41,-3.11,1
19,130223641603000,-19.23,2.72,-2.98,1
19,130223681612000,-19.23,10.57,-4.52,1
19,130223721620000,-15.24,19.27,3.06,1
19,130223801454000,12.45,18.92,-0.34,1
19,130223841646000,10.34,5.33,5.52,1
19,130223881471000,-0.23,1.14,-2.22,1
19,130223921510000,-14.82,11.6,-5.56,1
19,130223961549000,-19.23,7.35,2.3,1
19,130224041475000,-6.93,-6.09,2.26,1
19,130224081514000,-8.2,-8.92,-2.22,1
19,130224121645000,-4.29,-7.31,-2.98,1
19,130224161653000,0.65,-4.56,-2.83,1
19,130224241609000,2.96,-0.15,-0.23,1
19,130224281618000,1.95,-2.75,6.63,1
19,130224321474000,-0.15,-3.02,0.5,1
19,130224401643000,-19.23,-11.8,-0.65,1
19,130224441682000,-18.85,-1.33,-3.06,1
19,130224481630000,-14.25,4.37,-4.18,1
19,130224521638000,-12.64,12.76,4.37,1
19,130224601625000,4.94,16.02,-2.64,1
19,130224641634000,8.12,12.07,2.91,1
19,130224681642000,1.04,2.15,-0.04,1
19,130224721468000,-13.06,11.18,-5.33,1
19,130224761690000,-19.23,6.59,1.12,1
19,130224841493000,-8.47,-3.49,-3.76,1
19,130224881502000,-4.67,-6.78,-2.68,1
19,130224921480000,-0.95,-6.13,-1.92,1
19,130225001833000,2.72,-4.48,-3.76,1
19,130225041627000,2.49,-2.56,-1.08,1
19,130225081483000,1.76,-5.9,4.9,1
19,130225121645000,-2.22,-6.05,0.34,1
19,130225161562000,-19.23,-12.26,-0.15,1
19,130225241487000,-19.23,0.38,-4.79,1
19,130225281618000,-19.15,6.13,-7.08,1
19,130225321596000,-15.55,14.86,-3.99,1
19,130225361665000,4.63,18.92,3.17,1
19,130225441713000,8.66,10.61,7.01,1
19,130225481599000,0.27,1.04,-1.23,1
19,130225521638000,-13.14,9.34,-7.01,1
19,130225574007000,-19.23,7.55,-0.15,1
19,130225611452000,-17.86,-3.21,4.18,1
19,130225691286000,-8.31,-8.43,-0.53,1
19,130225731294000,-3.15,-4.06,-2.03,1
19,130225771394000,1.18,-1.73,-0.72,1
19,130225851442000,1.57,-0.11,0.34,1
19,130225891511000,0.46,-1.18,1.8,1
19,130225931612000,-6.17,-6.93,-0.93,1
19,130225985597000,-19.23,-6.7,0.23,1
19,130226022310000,-19.23,-1.84,-2.79,1
19,130226061708000,-19.19,3.26,-3.68,1
19,130226151704000,-9.89,14.56,4.4,1
19,130226191438000,-0.11,6.13,-1.8,1
19,130226231477000,3.72,7.97,-0.93,1
19,130226271669000,5.82,6.66,3.21,1
19,130226311800000,1.65,0.84,-1.08,1
19,130226392915000,-19.23,10.88,5.86,1
19,130226431306000,-16.25,-2.22,4.29,1
19,130226471498000,-5.43,-4.06,2.49,1
19,130226551515000,-1.54,-4.52,-0.61,1
19,130226591646000,2.45,-3.06,-0.89,1
19,130226631502000,2.68,-1.8,-0.8,1
19,130226671510000,1.42,-0.34,0.5,1
19,130226711793000,-1.27,-2.56,1.76,1
19,130226791475000,-19.19,-11.84,0.11,1
19,130226831483000,-19.0,-2.18,-0.76,1
19,130226871645000,-18.12,2.49,-4.4,1
19,130226911775000,-17.47,8.31,-0.93,1
19,130226993135000,-2.49,12.03,-2.64,1
19,130227031496000,7.93,18.54,-0.61,1
19,130227071626000,7.35,4.18,6.97,1
19,130227111665000,-3.53,14.48,0.69,1
19,130227193239000,-19.23,1.46,1.73,1
19,130227231599000,-14.9,-0.61,-1.54,1
19,130227271516000,-8.24,-5.2,-3.6,1
19,130227351625000,-0.31,-6.78,-2.26,1
19,130227391634000,2.56,-4.9,-2.6,1
19,130227431642000,2.03,-2.49,-1.23,1
19,130227471468000,3.57,-3.45,-0.38,1
19,130227551637000,-5.6,-4.18,-2.64,1
19,130227593660000,-17.54,-12.3,-5.05,1
19,130227631593000,-19.23,-4.99,0.89,1
19,130227671510000,-16.02,1.69,-3.72,1
19,130227751619000,-14.79,17.16,2.07,1
19,130227791597000,-4.94,16.44,0.46,1
19,130227831941000,9.3,16.7,7.44,1
19,130227871614000,3.6,2.3,2.98,1
19,130227951631000,-19.19,12.68,4.79,1
19,130227991609000,-19.23,-2.03,0.76,1
19,130228111299000,-5.67,-7.78,-2.26,1
19,130228111299000,-5.67,-7.78,-2.26,1
19,130228151460000,0.11,-4.52,-1.33,1
19,130228191591000,2.34,-4.94,-1.73,1
19,130228231477000,2.72,-4.1,-1.73,1
19,130228271638000,2.79,-2.98,0.0,1
19,130228351595000,-7.16,-2.72,-1.27,1
19,130228393129000,-17.88,-12.76,-4.63,1
19,130228431612000,-19.23,-5.37,1.27,1
19,130228471407000,-18.43,1.27,-4.71,1
19,130228551637000,-17.47,16.32,0.53,1
19,130228591646000,-5.37,19.76,5.67,1
19,130228631624000,10.5,17.86,6.85,1
19,130228671602000,4.14,2.22,7.01,1
19,130228711793000,-5.94,1.42,-4.67,1
19,130228791719000,-19.23,0.69,-0.57,1
19,130228831605000,-15.64,-1.8,-2.49,1
19,130228871492000,-6.82,-5.09,-1.95,1
19,130228951509000,-1.38,-6.09,-2.26,1
19,130228991457000,1.31,-5.01,-1.92,1
19,130229031496000,1.92,-3.76,-1.46,1
19,130229071474000,1.31,-2.96,2.07,1
19,130229151582000,-8.12,-4.71,-2.6,1
19,130229191438000,-18.62,-14.33,-0.95,1
19,130229231477000,-19.23,-6.32,-1.33,1
19,130229271608000,-19.23,2.53,-4.44,1
19,130229351625000,-15.32,12.49,0.04,1
19,130229391634000,-5.18,18.28,8.88,1
19,130229431551000,6.09,17.16,6.82,1
19,130229471559000,5.2,4.1,8.01,1
19,130229511659000,-17.54,13.44,-1.65,1
19,130229593874000,-19.23,3.15,1.57,1
19,130229631593000,-16.4,-2.22,-2.07,1
19,130229671510000,-8.5,-4.06,-5.33,1
19,130229751497000,-3.06,-7.63,-4.67,1
19,130229791475000,1.53,-4.9,-4.79,1
19,130229831605000,2.6,-3.11,-3.68,1
19,130229871522000,2.53,-1.99,1.23,1
19,130229951601000,0.0,-2.96,-2.37,1
19,130229991487000,-13.53,-8.62,-7.4,1
19,130230031618000,-19.23,-10.04,1.27,1
19,130230071657000,-19.0,1.12,-5.48,1
19,130230111574000,-15.28,8.62,-3.34,1
19,130230192140000,-7.25,19.57,-0.04,1
19,130230231508000,9.43,16.97,7.31,1
19,130230271669000,3.17,3.72,3.26,1
19,130230311800000,-5.43,2.96,-4.75,1
19,130230391634000,-19.23,1.88,-0.23,1
19,130230431642000,-17.39,-4.33,-1.8,1
19,130230471468000,-8.62,-8.96,-0.38,1
19,130230551637000,-1.08,-6.43,-2.98,1
19,130230591646000,2.3,-4.56,-3.99,1
19,130230631471000,1.61,-2.07,-1.23,1
19,130230671663000,2.53,-3.98,4.4,1
19,130230751588000,-3.49,-4.29,-3.64,1
19,130230791627000,-17.35,-12.91,-5.09,1
19,130230831911000,-19.23,-5.82,-0.61,1
19,130230871492000,-17.39,3.02,-2.68,1
19,130230911775000,-14.9,8.39,-0.15,1
19,130230991487000,-0.04,13.06,-2.83,1
19,130231031587000,11.73,16.17,6.17,1
19,130231071504000,-0.31,2.45,0.3,1
19,130231111787000,-13.95,6.59,-4.63,1
19,130231191591000,-19.19,-2.68,-1.46,1
19,130231231508000,-11.65,-3.34,-4.4,1
19,130231271516000,-6.74,-7.86,-1.61,1
19,130231351839000,2.03,-4.48,-4.6,1
19,130231391542000,2.07,-2.53,-3.79,1
19,130231431520000,2.18,-1.18,0.3,1
19,130231483369000,-0.23,-6.93,4.33,1
19,130231521669000,-2.72,-4.63,-3.15,1
19,130231601503000,-19.23,-6.47,0.04,1
19,130231641481000,-19.15,2.87,-4.37,1
19,130231681642000,-18.81,10.27,-4.75,1
19,130231721498000,-15.7,18.16,6.4,1
19,130231761659000,9.72,16.21,4.37,1
19,130231841646000,3.64,4.02,1.04,1
19,130231881502000,-4.1,2.03,-4.25,1
19,130231921602000,-18.58,14.75,0.0,1
19,130232001558000,-16.82,-2.64,-1.73,1
19,130232041475000,-8.24,-8.27,1.99,1
19,130232081636000,-6.36,-8.73,-2.26,1
19,130232121553000,-0.84,-4.75,-1.33,1
19,130232201662000,1.69,-2.11,-0.61,1
19,130232241609000,0.5,-2.64,2.45,1
19,130232281618000,-4.37,-4.4,5.75,1
19,130232321474000,-11.45,-6.85,-3.53,1
19,130232361726000,-19.23,-3.72,-1.61,1
19,130232441621000,-19.23,1.69,-3.21,1
19,130232481508000,-19.04,8.54,-2.91,1
19,130232521669000,-13.8,11.37,5.01,1
19,130232601625000,10.42,18.01,7.63,1
19,130232641634000,3.76,2.83,7.16,1
19,130232682283000,-8.54,1.92,-8.24,1
19,130232722719000,-19.23,12.26,3.45,1
19,130232761537000,-19.23,-2.26,0.72,1
19,130232842592000,-7.27,-6.02,-2.03,1
19,130232881471000,-4.86,-6.89,-2.34,1
19,130232921632000,0.69,-4.71,-2.96,1
19,130232961702000,2.87,-0.91,-0.53,1
19,130233041627000,-0.5,-5.67,7.27,1
19,130233081636000,-2.68,-6.32,-1.69,1
19,130233132295000,-16.04,-10.92,-5.9,1
19,130233171907000,-19.23,-9.0,-2.79,1
19,130233251497000,-17.54,7.31,-2.34,1
19,130233291627000,-13.82,10.73,0.15,1
19,130233331514000,-7.82,14.14,3.6,1
19,130233371645000,8.5,19.23,3.15,1
19,130233411775000,-10.23,2.37,-7.01,1
19,130233493135000,-19.23,9.19,3.91,1
19,130233531465000,-19.23,-4.25,-1.76,1
19,130233571535000,-15.47,-5.24,-2.96,1
19,130233651491000,-4.44,-7.89,-3.17,1
19,130233691621000,0.53,-4.21,-3.15,1
19,130233731599000,2.45,-1.95,-3.53,1
19,130233771516000,3.17,0.11,0.84,1
19,130233851625000,0.46,-4.86,0.95,1
19,130233891634000,-4.06,-6.24,-3.95,1
19,130233931642000,-18.66,-13.4,-6.02,1
19,130233972078000,-19.08,-3.49,-1.61,1
19,130234011659000,-15.55,2.56,-3.95,1
19,130234091646000,-16.17,16.55,4.67,1
19,130234131410000,-1.08,16.66,-0.65,1
19,130234172304000,10.42,13.48,8.16,1
19,130234211610000,0.57,1.73,-0.42,1
19,130234291475000,-19.23,6.97,4.21,1
19,130234331636000,-19.15,-4.99,-1.04,1
19,130234371645000,-11.8,-7.16,-1.08,1
19,130234411775000,-7.01,-9.23,-1.57,1
19,130234491640000,0.69,-2.87,-1.8,1
19,130234531587000,2.37,-1.92,-2.76,1
19,130234571626000,2.14,-0.72,0.5,1
19,130234651674000,-0.5,-2.79,0.72,1
19,130234691499000,-6.02,-4.48,-2.53,1
19,130234731477000,-19.08,-13.87,-2.96,1
19,130234771913000,-18.01,-3.45,-1.5,1
19,130234851472000,-17.73,7.63,-0.8,1
19,130234891634000,-17.12,13.59,6.85,1
19,130234931490000,-3.21,10.8,-1.57,1
19,130234971498000,5.82,13.4,0.3,1
19,130235051698000,-8.01,0.27,-4.18,1
19,130235091493000,-19.19,10.53,2.14,1
19,130235131471000,-19.23,-2.03,-2.79,1
19,130235171663000,-13.25,-3.64,-2.68,1
19,130235291414000,-0.84,-5.48,-3.45,1
19,130235291414000,-0.84,-5.48,-3.45,1
19,130235331544000,1.14,-3.79,-3.83,1
19,130235371645000,1.69,-1.84,-2.15,1
19,130235451509000,-0.15,-3.45,1.8,1
19,130235491640000,-7.31,-5.01,-3.45,1
19,130235533998000,-19.23,-14.63,-2.91,1
19,130235576540000,-18.89,-2.56,-3.3,1
19,130235620546000,-17.39,3.49,-3.53,1
19,130235701601000,-11.22,14.86,4.02,1
19,130235741487000,6.21,17.67,0.42,1
19,130235781648000,7.78,10.0,5.09,1
19,130235821657000,-4.21,1.99,-4.06,1
19,130235901521000,-19.23,-0.27,-0.34,1
19,130235941591000,-17.54,-3.21,-2.26,1
19,130235981508000,-8.58,-4.82,1.14,1
19,130236021486000,-5.67,-9.04,1.95,1
19,130236101595000,1.61,-2.45,-1.46,1
19,130236141511000,3.68,-1.33,-1.27,1
19,130236181642000,2.14,1.54,1.5,1
19,130236221651000,-1.46,-1.76,5.79,1
19,130236261629000,-1.27,-2.96,-3.64,1
19,130236343507000,-18.09,-4.75,4.44,1
19,130236381471000,-8.05,0.46,-0.5,1
19,130236421480000,-12.72,2.83,-0.95,1
19,130236461549000,-16.63,5.6,10.08,1
19,130236541505000,-0.61,4.21,-4.37,1
19,130236581514000,3.26,8.2,-2.79,1
19,130236621522000,2.34,6.4,-0.65,1
19,130236661501000,-7.16,4.1,-2.22,1
19,130236743867000,-19.0,-2.22,-1.65,1
19,130236781618000,-8.31,-3.68,4.06,1
19,130236821474000,-5.83,-7.44,1.23,1
19,130236861513000,0.84,-3.41,-1.99,1
19,130236941621000,2.3,-2.75,-1.84,1
19,130236981508000,2.37,-0.34,-0.42,1
19,130236981508000,2.37,-4.67,-3.34,1
19,130237078523000,-4.25,-4.67,-3.34,1
19,130237122774000,-17.82,-13.25,-10.31,1
19,130237161562000,-19.19,-7.16,-1.5,1
19,130237241487000,-17.82,6.21,-2.15,1
19,130237281648000,-15.94,12.03,5.94,1
19,130237321504000,-5.75,9.15,-2.11,1
19,130237361543000,6.93,17.54,-6.82,1
19,130237441621000,-8.85,2.26,-4.4,1
19,130237481599000,-19.19,11.65,1.38,1
19,130237533540000,-19.23,-1.38,-2.22,1
19,130237571443000,-13.8,-3.36,-3.76,1
19,130237611726000,-7.25,-5.37,-3.68,1
19,130237691621000,0.42,-4.94,-4.6,1
19,130237731599000,1.04,-3.17,-5.09,1
19,130237771669000,1.92,-1.57,-4.18,1
19,130237851533000,0.04,-4.14,2.41,1
19,130237891664000,-4.4,-5.13,-1.38,1
19,130237931551000,-18.09,-10.65,-6.21,1
19,130237972719000,-19.23,-3.83,-1.65,1
19,130238011507000,-19.19,2.15,-7.82,1
19,130238091493000,-13.18,17.2,-3.11,1
19,130238131471000,-2.68,18.47,3.21,1
19,130238171632000,7.78,16.78,7.46,1
19,130238211610000,1.42,4.02,-8.43,1
19,130238292177000,-19.23,11.92,4.75,1
19,130238331483000,-19.11,-1.69,-1.12,1
19,130238371614000,-10.08,-2.37,-0.53,1
19,130238451479000,-4.1,-6.43,-2.6,1
19,130238491640000,-0.11,-5.37,-2.72,1
19,130238531679000,1.53,-5.98,-4.02,1
19,130238571657000,1.8,-3.6,-1.69,1
19,130238651643000,-4.9,-3.68,0.99,1
19,130238691469000,-13.87,-6.02,-1.42,1
19,130238732912000,-19.23,-9.15,-2.64,1
19,130238772218000,-19.23,1.61,-4.48,1
19,130238811586000,-18.2,7.63,-4.52,1
19,130238891634000,-5.86,19.72,4.18,1
19,130238932619000,7.82,18.39,8.08,1
19,130238971498000,4.59,3.99,8.54,1
19,130239011598000,-3.91,1.5,-4.82,1
19,130239053560000,-18.16,15.32,-1.92,1
19,130239141481000,-14.52,-3.95,-1.76,1
19,130239181520000,-6.85,-6.82,-1.61,1
19,130239221620000,-4.29,-7.44,-2.91,1
19,130239301515000,1.73,-5.2,-3.49,1
19,130239341768000,1.14,-2.87,-1.31,1
19,130239381624000,0.42,-3.36,1.14,1
19,130239421632000,-2.26,-3.79,1.95,1
19,130239461671000,-7.63,-3.68,-1.38,1
19,130239503511000,-19.04,-9.96,-4.29,1
19,130239591646000,-16.36,5.98,-4.75,1
19,130239631471000,-14.6,16.74,0.5,1
19,130239675142000,-3.26,19.76,0.89,1
19,130239712343000,12.15,13.53,10.5,1
19,130239791689000,-11.11,6.36,-8.43,1
19,130239831453000,-19.23,10.12,4.52,1
19,130239872194000,-18.92,-1.5,-2.53,1
19,130239951540000,-5.63,-7.55,-0.76,1
19,130239991609000,-2.68,-6.32,-2.64,1
19,130240031496000,1.46,-3.98,-2.41,1
19,130240071504000,2.41,-2.79,-1.69,1
19,130240151491000,-0.34,-4.94,6.21,1
19,130240191591000,-4.48,-6.78,0.69,1
19,130240231508000,-11.3,-8.66,-7.7,1
19,130240272218000,-19.23,-12.11,-2.3,1
19,130240312318000,-19.23,1.08,-2.79,1
19,130240392091000,-17.77,15.13,-0.8,1
19,130240432497000,-8.62,17.5,4.71,1
19,130240472719000,12.15,19.42,8.96,1
19,130240511812000,3.95,5.43,5.94,1
19,130240594148000,-19.19,13.72,-0.19,1
19,130240631410000,-19.23,-0.99,-0.19,1
19,130240671632000,-15.05,-1.18,-2.76,1
19,130240751497000,-4.33,-7.25,-3.6,1
19,130240791689000,-0.42,-5.94,-3.91,1
19,130240831605000,1.92,-5.13,-5.86,1
19,130240871675000,0.65,-3.64,-2.41,1
19,130240951509000,-1.08,-3.87,1.23,1
19,130240991609000,-2.41,-2.87,-3.99,1
19,130241031496000,-17.47,-10.84,-6.74,1
19,130241071474000,-19.23,-3.68,-0.19,1
19,130241151613000,-13.87,11.07,-1.69,1
19,130241191469000,-14.25,17.82,3.15,1
19,130241231477000,5.43,19.61,5.18,1
19,130241271516000,7.08,8.5,7.04,1
19,130241351472000,-15.02,11.11,-6.74,1
19,130241391634000,-19.23,7.16,4.21,1
19,130241431612000,-17.69,-4.75,-0.19,1
19,130241471620000,-7.67,-7.63,-0.93,1
19,130241534334000,-4.06,-7.59,-3.72,1
19,130241571535000,1.61,-5.05,-4.82,1
19,130241611543000,2.53,-2.96,-3.15,1
19,130241691591000,0.42,-6.28,5.86,1
19,130241731752000,-2.6,-5.75,-2.45,1
19,130241771486000,-12.98,-7.89,-4.14,1
19,130241851381000,-19.23,0.5,-3.21,1
19,130241891511000,-19.23,7.08,-4.14,1
19,130241931764000,-16.36,12.87,4.14,1
19,130241971651000,-9.43,11.84,0.8,1
19,130242011507000,2.96,16.86,-1.33,1
19,130242091646000,-0.23,1.33,-1.46,1
19,130242131563000,-14.06,8.5,-5.6,1
19,130242171663000,-19.23,8.43,3.68,1
19,130242251466000,-7.97,-3.68,-2.15,1
19,130242291627000,-6.02,-10.0,-2.03,1
19,130242331605000,-1.8,-7.93,-3.45,1
19,130242451418000,1.69,-2.83,0.19,1
19,130242451418000,1.69,-2.83,0.19,1
19,130242491487000,-2.53,-5.24,5.71,1
19,130242531740000,-5.48,-2.6,-2.22,1
19,130242571443000,-15.36,-9.04,-5.18,1
19,130242611757000,-19.23,-10.99,1.42,1
19,130242691621000,-17.77,7.59,-4.4,1
19,130242731630000,-16.13,16.51,1.57,1
19,130242771638000,-6.05,18.62,2.11,1
19,130242851472000,1.61,1.73,2.03,1
19,130242891634000,-11.5,3.76,-7.74,1
19,130242939455000,-19.23,7.08,4.37,1
19,130242981905000,-18.47,-3.26,-1.31,1
19,130243021608000,-8.62,-4.06,-3.06,1
19,130243101472000,-1.65,-6.4,-2.49,1
19,130243141664000,2.26,-5.01,-3.41,1
19,130243181520000,2.03,-3.21,-1.95,1
19,130243221559000,0.84,-3.34,2.45,1
19,130243301607000,-5.24,-4.25,-4.25,1
19,130243341524000,-17.31,-12.95,-6.24,1
19,130243382204000,-19.23,-6.47,-0.08,1
19,130243421571000,-19.0,1.76,-3.87,1
19,130243501527000,-16.36,16.89,5.41,1
19,130243541719000,-1.57,17.35,-1.33,1
19,130243581514000,11.65,13.59,11.14,1
19,130243621461000,0.72,1.42,-8.43,1
19,130243664064000,-11.8,8.2,-8.43,1
19,130243741640000,-18.81,-3.79,-0.57,1
19,130243781648000,-8.89,-3.95,-2.18,1
19,130243821474000,-4.86,-8.01,-2.53,1
19,130243861635000,-1.54,-8.2,-3.17,1
19,130243941652000,1.18,-4.75,-1.8,1
19,130243981660000,0.95,-4.37,1.33,1
19,130244021486000,-3.79,-3.95,6.93,1
19,130244101625000,-16.32,-10.99,-3.15,1
19,130244141634000,-19.23,-9.23,-0.93,1
19,130244181642000,-19.23,0.34,-4.67,1
19,130244221437000,-19.11,8.12,-5.83,1
19,130244301637000,-5.6,18.89,6.32,1
19,130244343965000,11.6,14.67,13.1,1
19,130244381654000,2.64,2.07,3.3,1
19,130244421602000,-7.21,3.11,-8.31,1
19,130244501466000,-19.23,-1.12,-0.61,1
19,130244541505000,-11.92,-3.02,-3.21,1
19,130244581636000,-5.98,-6.59,-3.15,1
19,130244621492000,-2.76,-7.63,-3.11,1
19,130244701662000,1.23,-6.21,-4.52,1
19,130244741670000,0.34,-3.87,-1.18,1
19,130244781496000,-1.73,-4.52,2.41,1
19,130244821779000,-5.71,-2.68,0.89,1
19,130244901643000,-19.23,-10.04,0.08,1
19,130244941591000,-19.23,0.38,-4.56,1
19,130244981508000,-19.19,8.2,-7.08,1
19,130245021638000,-14.6,18.47,1.65,1
19,130245061678000,-1.76,19.23,3.06,1
19,130245141634000,3.87,0.99,4.25,1
19,130245181642000,-8.05,5.18,-9.7,1
19,130245221437000,-19.23,13.82,7.08,1
19,130245301546000,-7.4,-0.65,-1.42,1
19,130245341646000,-3.68,-5.18,-2.49,1
19,130245381624000,-1.14,-7.08,-3.68,1
19,130245421632000,1.92,-5.52,-4.6,1
19,130245501619000,0.3,-3.76,-1.38,1
19,130245541505000,-5.09,-6.05,0.19,1
19,130245586427000,-12.76,-5.56,-0.5,1
19,130245623506000,-19.19,-9.89,-2.72,1
19,130245701479000,-19.23,4.14,-2.41,1
19,130245741548000,-17.39,10.19,-2.45,1
19,130245781587000,-12.64,18.85,4.33,1
19,130245831422000,6.36,18.47,-1.5,1
19,130245871522000,8.92,9.3,4.82,1
19,130245911836000,-1.57,1.23,-3.11,1
19,130245991426000,-19.23,3.91,5.41,1
19,130246031740000,-16.51,-2.18,-1.27,1
19,130246071504000,-8.01,-7.08,2.07,1
19,130246111574000,-1.65,-4.94,-3.02,1
19,130246191560000,0.91,-3.57,-3.02,1
19,130246231721000,1.31,-2.49,-1.88,1
19,130246271669000,1.57,-2.22,1.46,1
19,130246351564000,-6.74,-1.73,-1.04,1
19,130246391634000,-18.01,-11.75,-2.68,1
19,130246431612000,-19.23,-5.24,-2.79,1
19,130246471651000,-18.85,1.84,-2.6,1
19,130246520814000,-16.74,11.75,0.61,1
19,130246601503000,2.3,14.86,-0.61,1
19,130246641664000,10.46,13.8,7.31,1
19,130246681520000,1.27,1.73,-0.57,1
19,130246721590000,-11.92,7.67,-7.5,1
19,130246801637000,-17.43,-2.79,0.99,1
19,130246841646000,-3.87,-6.17,4.44,1
19,130246881471000,-5.75,-7.04,-1.76,1
19,130246921449000,-1.42,-5.37,-2.37,1
19,130247001894000,1.84,-2.11,-1.92,1
19,130247041505000,1.53,-1.65,0.38,1
19,130247081636000,-0.42,-4.02,3.26,1
19,130247121584000,-5.52,-4.14,-2.6,1
19,130247201723000,-18.92,-2.26,-0.23,1
19,130247241609000,-14.02,2.3,-2.22,1
19,130247281496000,-14.75,9.28,0.84,1
19,130247321626000,-13.4,17.05,5.33,1
19,130247401552000,10.31,16.93,2.98,1
19,130247441469000,2.22,3.02,0.15,1
19,130247441469000,2.22,3.02,0.15,1
19,130247522890000,-19.23,7.82,3.64,1
19,130247562624000,-19.0,-2.11,-3.17,1
19,130247642427000,-6.78,-7.31,-3.57,1
19,130247681520000,-2.83,-6.43,-3.6,1
19,130247721590000,0.5,-4.67,-3.57,1
19,130247801607000,0.23,-3.91,-1.14,1
19,130247841524000,-0.89,-4.67,0.84,1
19,130247881624000,-4.63,-2.96,0.65,1
19,130247921602000,-12.53,-4.1,-2.3,1
19,130247961702000,-19.23,-10.76,-1.88,1
19,130248041505000,-19.15,8.5,-6.85,1
19,130248081514000,-15.85,17.12,-1.76,1
19,130248121584000,-5.24,19.5,4.75,1
19,130248201570000,4.44,3.34,5.82,1
19,130248241518000,-3.15,0.04,-4.9,1
19,130248281648000,-16.17,12.45,-0.69,1
19,130248321596000,-19.23,3.49,2.56,1
19,130248401491000,-2.64,-6.51,3.41,1
19,130248441469000,-3.99,-6.89,-2.03,1
19,130248481660000,-0.04,-4.75,-1.76,1
19,130248521577000,1.99,-4.02,-1.76,1
19,130248601656000,-0.23,-2.11,0.38,1
19,130248641511000,-5.28,-6.24,0.0,1
19,130248681490000,-14.48,-8.12,-2.22,1
19,130248721651000,-19.23,-9.0,-2.83,1
19,130248761537000,-19.23,1.5,-2.45,1
19,130248841676000,-15.09,16.55,4.33,1
19,130248881502000,-3.99,17.47,1.08,1
19,130248921449000,8.2,13.33,5.05,1
19,130249001802000,-2.91,1.18,-2.68,1
19,130249041658000,-17.27,8.73,-2.3,1
19,130249081514000,-19.23,2.3,1.61,1
19,130249121614000,-18.96,-3.57,-2.98,1
19,130249201723000,-6.02,-8.08,-1.23,1
19,130249241487000,-0.69,-4.86,-2.53,1
19,130249281648000,2.41,-3.49,-3.45,1
19,130249321474000,1.65,-2.18,-1.33,1
19,130249401704000,-3.49,-4.1,6.02,1
19,130249441621000,-9.34,-6.05,-4.56,1
19,130249481630000,-18.54,-12.15,-3.99,1
19,130249521669000,-19.23,-5.33,-1.14,1
19,130249561586000,-19.0,7.78,-1.5,1
19,130249721254000,9.77,16.82,7.04,1
19,130249721254000,9.77,16.82,7.04,1
19,130249721254000,9.77,16.82,7.04,1
19,130249801546000,-12.95,5.98,-6.89,1
19,130249841646000,-19.23,7.59,4.18,1
19,130249881624000,-19.23,-2.83,-1.65,1
19,130249921571000,-11.65,-6.32,-0.53,1
19,130250001497000,-4.63,-7.16,-3.26,1
19,130250041627000,-0.08,-3.83,-3.17,1
19,130250081636000,1.18,-2.72,-3.72,1
19,130250121614000,1.23,-1.95,-3.02,1
19,130250201540000,-1.27,-4.18,-0.72,1
19,130250244691000,-14.37,-9.19,-0.76,1
19,130250282259000,-19.23,-8.66,-4.1,1
19,130250321474000,-19.23,1.18,-2.49,1
19,130250401521000,-17.05,17.69,7.65,1
19,130250441469000,-3.15,18.28,1.04,1
19,130250481477000,8.39,14.79,4.4,1
19,130250521638000,2.14,1.57,0.65,1
19,130250561555000,-8.66,2.83,-5.79,1
19,130250646028000,-18.66,-3.79,-0.5,1
19,130250681703000,-7.59,-7.44,9.81,1
19,130250721468000,-6.97,-6.4,-0.76,1
19,130250801515000,1.61,-2.41,-2.41,1
19,130250841890000,2.53,-1.5,-2.96,1
19,130250881654000,1.61,-0.53,-1.46,1
19,130250921358000,1.14,-0.91,0.3,1
19,130250961336000,-1.65,-3.64,0.42,1
19,130251008272000,-16.44,-8.08,-2.26,1
19,130251092958000,-16.47,1.69,-0.84,1
19,130251141695000,-13.29,11.45,7.59,1
19,130251181764000,-12.11,11.69,2.56,1
19,130251221468000,-2.68,6.4,-3.34,1
19,130251301576000,4.18,6.02,1.18,1
19,130251341676000,0.53,0.04,-0.65,1
19,130251382692000,-11.35,14.48,-2.22,1
19,130251422670000,-19.23,8.96,5.09,1
19,130251461732000,-11.35,1.12,3.95,1
19,130251541475000,-4.33,-4.4,-1.42,1
19,130251581636000,0.57,-3.26,-0.61,1
19,130251621645000,2.07,-2.34,-0.38,1
19,130251701479000,0.3,-0.8,0.57,1
19,130251741518000,-6.47,-8.24,-1.61,1
19,130251782625000,-19.15,-11.37,-1.84,1
19,130251821474000,-19.19,-5.48,2.22,1
19,130251861696000,-16.21,1.08,-1.76,1
19,130251941621000,-14.63,10.23,0.76,1
19,130251981538000,-7.67,13.82,3.64,1
19,130252021638000,0.0,10.15,-2.76,1
19,130252101472000,3.98,1.18,0.84,1
19,130252141481000,-6.82,2.72,-5.13,1
19,130252181978000,-19.23,9.7,6.32,1
19,130252221590000,-18.31,-1.33,1.84,1
19,130252261690000,-5.37,-1.73,1.8,1
19,130252341493000,-2.64,-4.94,-1.57,1
19,130252381502000,2.07,-2.79,-1.5,1
19,130252421663000,3.68,-1.12,-0.76,1
19,130252501588000,-3.83,-3.49,7.16,1
19,130252543123000,-12.76,-8.12,-4.4,1
19,130252582094000,-19.23,-13.14,-0.84,1
19,130252621614000,-13.67,-2.07,-1.61,1
19,130252661531000,-15.75,2.34,-1.57,1
19,130252705202000,-17.43,8.96,4.86,1
19,130252791597000,-0.95,7.46,-0.69,1
19,130252831636000,5.41,10.92,-1.73,1
19,130252871522000,4.44,7.46,1.27,1
19,130252911562000,-7.7,2.53,-4.79,1
19,130252957674000,-18.85,-3.02,-1.14,1
19,130253041627000,-9.77,-4.63,-0.95,1
19,130253081514000,-6.89,-9.34,-1.69,1
19,130253121614000,-1.73,-7.97,-3.99,1
19,130253201662000,1.99,-4.18,-3.38,1
19,130253241640000,1.92,-2.3,-1.5,1
19,130253281587000,-0.53,-5.24,2.03,1
19,130253321657000,-4.4,-3.41,0.19,1
19,130253401643000,-19.23,-9.92,-1.99,1
19,130253441591000,-18.47,1.04,-3.6,1
19,130253481508000,-13.57,9.23,-2.87,1
19,130253521486000,-14.29,18.66,4.02,1
19,130253601656000,9.77,13.06,4.67,1
19,130253643709000,0.3,1.04,-1.57,1
19,130253681764000,-12.83,8.89,-6.09,1
19,130253731782000,-19.23,1.76,3.76,1
19,130253771638000,-15.21,-1.61,-2.53,1
19,130253851656000,-7.55,-8.05,-3.34,1
19,130253891634000,-2.18,-6.82,-3.57,1
19,130253931612000,0.65,-5.37,-3.26,1
19,130253971651000,1.53,-4.21,-2.41,1
19,130254051485000,-2.68,-5.24,3.95,1
19,130254091646000,-5.83,-2.96,-1.14,1
19,130254131746000,-15.32,-9.81,-3.21,1
19,130254172060000,-19.23,-9.85,-0.08,1
19,130254251619000,-18.85,10.76,-6.93,1
19,130254291505000,-13.82,16.97,0.72,1
19,130254331728000,-3.91,19.65,5.2,1
19,130254371645000,9.89,16.97,10.84,1
19,130254451631000,-8.81,4.25,-8.16,1
19,130254491670000,-19.23,13.91,4.94,1
19,130254531618000,-19.23,-2.26,-1.31,1
19,130254571504000,-13.44,-3.68,-4.21,1
19,130254612825000,-8.01,-7.74,-3.91,1
19,130254691652000,0.8,-7.35,-5.18,1
19,130254732790000,1.27,-7.27,-5.05,1
19,130254772218000,2.6,-4.29,-2.11,1
19,130254851472000,-2.72,-0.84,1.33,1
19,130254891634000,-7.01,-2.22,-2.79,1
19,130254931612000,-19.23,-10.61,-1.31,1
19,130254971498000,-19.11,-1.76,-1.57,1
19,130255011629000,-12.34,3.49,-5.43,1
19,130255091493000,-5.52,17.62,0.42,1
19,130255131624000,4.25,18.12,8.96,1
19,130255171693000,0.84,2.76,4.99,1
19,130255251619000,-19.23,13.53,1.46,1
19,130255291505000,-19.23,-0.19,-1.65,1
19,130255331636000,-12.76,-4.33,-3.34,1
19,130255371645000,-6.63,-7.89,-3.21,1
19,130255451631000,1.04,-3.76,-2.68,1
19,130255491640000,1.14,-4.14,-3.76,1
19,130255531740000,1.65,-3.34,-2.34,1
19,130255571504000,1.57,-4.48,-0.65,1
19,130255611543000,-1.65,-2.11,1.88,1
19,130255691499000,-19.19,-9.62,-4.99,1
19,130255731569000,-19.08,-0.04,-2.15,1
19,130255771669000,-15.24,3.41,-4.67,1
19,130255851411000,-6.32,19.5,1.65,1
19,130255891511000,10.99,16.97,8.54,1
19,130255931642000,2.37,2.49,1.38,1
19,130255971529000,-11.18,4.71,-7.78,1
19,130256011629000,-19.23,9.43,3.57,1
19,130256092226000,-9.38,-1.57,-1.57,1
19,130256131624000,-5.86,-6.82,-1.92,1
19,130256171541000,-2.98,-6.32,-2.6,1
19,130256251466000,2.03,-2.53,-1.69,1
19,130256291627000,0.72,-1.8,-0.89,1
19,130256331758000,-1.04,-4.21,0.11,1
19,130256371675000,-5.18,-4.94,1.5,1
19,130256414247000,-13.95,-6.05,-2.07,1
19,130256492006000,-19.23,0.99,-2.34,1
19,130256531587000,-18.28,5.28,-2.79,1
19,130256571657000,-14.41,12.6,-2.6,1
19,130256651460000,6.36,17.27,-1.5,1
19,130256691499000,8.16,6.89,6.05,1
19,130256731599000,-6.32,1.61,-4.25,1
19,130256771638000,-19.0,10.61,-0.57,1
19,130256811525000,-3.15,-6.47,-2.96,1
19,130256941377000,-3.15,-6.47,-2.96,1
19,130256941377000,-3.15,-6.47,-2.96,1
19,130256981813000,-0.11,-5.52,-3.17,1
19,130257021608000,1.46,-4.59,-3.57,1
19,130257061678000,1.31,-3.06,-2.22,1
19,130257141481000,-1.92,-3.72,1.12,1
19,130257141481000,-1.92,-3.72,1.12,1
19,130257213960000,-16.55,-9.28,-2.56,1
19,130257291627000,-19.23,2.15,-4.82,1
19,130257331636000,-18.5,12.95,-5.9,1
19,130257371645000,-10.8,18.89,3.36,1
19,130257451479000,9.49,14.06,2.22,1
19,130257491487000,6.17,5.71,1.76,1
19,130257531587000,-2.6,0.65,-2.98,1
19,130257571657000,-18.01,11.54,-0.08,1
19,130257651613000,-15.7,-1.38,-1.84,1
19,130257691469000,-6.21,-4.18,-1.8,1
19,130257731599000,-5.09,-8.05,-2.91,1
19,130257771516000,-1.04,-5.94,-3.11,1
19,130257851625000,1.95,-4.56,-4.33,1
19,130257891634000,2.34,-3.45,-2.49,1
19,130257931612000,-1.12,-3.49,2.64,1
19,130257971620000,-6.55,-3.11,0.53,1
19,130258051485000,-19.23,-10.65,-0.23,1
19,130258091646000,-19.23,0.08,-5.22,1
19,130258132417000,-18.12,6.82,-2.79,1
19,130258171632000,-14.1,13.4,-0.69,1
19,130258214571000,-5.71,19.04,3.02,1
19,130258291627000,6.28,6.74,7.89,1
19,130258331728000,-3.64,1.08,-5.18,1
19,130258371645000,-18.2,10.15,2.26,1
19,130258411653000,-19.19,-0.69,1.12,1
19,130258491487000,-5.41,-3.98,-2.37,1
19,130258531587000,-4.79,-7.31,-1.61,1
19,130258571657000,-0.34,-5.86,-2.3,1
19,130258651491000,1.33,-2.37,-1.31,1
19,130258691591000,1.08,-2.41,-0.31,1
19,130258731599000,-3.95,-5.63,1.27,1
19,130258771669000,-14.21,-6.89,-0.61,1
19,130258851564000,-19.23,-1.08,-3.26,1
19,130258891481000,-19.23,5.28,-3.68,1
19,130258931612000,-17.39,10.53,-2.98,1
19,130258971529000,-6.7,17.12,5.13,1
19,130259051607000,8.27,13.4,-1.31,1
19,130259091554000,4.82,3.57,3.21,1
19,130259131624000,-8.58,2.3,-6.97,1
19,130259171663000,-19.23,11.54,3.17,1
19,130259251466000,-12.22,-0.34,-3.21,1
19,130259291658000,-7.44,-6.66,-3.57,1
19,130259331605000,-4.18,-9.08,-3.57,1
19,130259371522000,0.23,-6.28,-3.34,1
19,130259451631000,3.41,-3.53,-0.53,1
19,130259491640000,1.5,-3.17,3.95,1
19,130259531740000,-4.25,-2.64,2.14,1
19,130259571657000,-6.51,-2.79,-2.34,1
19,130259651613000,-19.23,-4.59,-1.27,1
19,130259691469000,-19.11,2.37,-4.52,1
19,130259731752000,-15.32,9.62,-1.18,1
19,130259771516000,-14.21,15.51,4.56,1
19,130259812135000,3.64,19.27,-3.68,1
19,130259891511000,-3.06,0.93,-2.56,1
19,130259931764000,-17.24,11.41,-0.95,1
19,130259972078000,-19.23,6.05,-0.15,1
19,130260011476000,-16.51,0.89,-4.14,1
19,130260091554000,-5.43,-8.2,-3.38,1
19,130260131624000,-3.26,-9.11,-4.21,1
19,130260171541000,-0.76,-9.28,-5.18,1
19,130260211641000,1.53,-6.02,-2.87,1
19,130260291627000,-2.87,-0.91,5.37,1
19,130260331758000,-3.26,-1.31,-2.03,1
19,130260371522000,-15.66,-9.0,-3.99,1
19,130260451570000,-16.21,0.65,-4.56,1
19,130260491487000,-11.35,8.28,-3.02,1
19,130260531618000,-14.48,14.82,-1.04,1
19,130260571657000,-3.26,19.19,1.88,1
19,130260651582000,-5.9,1.54,-2.41,1
19,130260691927000,-17.77,10.23,0.08,1
19,130260732545000,-19.23,7.78,-3.87,1
19,130260771638000,-17.2,-2.6,-2.53,1
19,130260811708000,-8.01,-5.2,-4.71,1
19,130260891603000,-0.8,-5.94,-5.94,1
19,130260931764000,1.27,-4.1,-6.13,1
19,130260971651000,1.76,-2.53,-4.21,1
19,130261051607000,-0.11,-5.48,6.93,1
19,130261091676000,-1.38,-1.95,-1.8,1
19,130261131593000,-9.19,-3.91,-7.5,1
19,130261171663000,-19.23,-11.73,-0.89,1
19,130261251436000,-10.88,4.37,-5.37,1
19,130261291505000,-10.92,14.56,1.69,1
19,130261331636000,-11.54,16.55,-0.53,1
19,130261372072000,6.47,19.65,1.14,1
19,130261451540000,-6.85,4.1,-6.51,1
19,130261451540000,-6.85,4.1,-6.51,1
19,130261541597000,-17.58,-1.69,0.89,1
19,130261581636000,-4.52,-3.79,0.57,1
19,130261621492000,-5.13,-6.4,-2.11,1
19,130261701540000,1.18,-4.44,-2.79,1
19,130261741609000,1.12,-4.02,-2.49,1
19,130261781618000,0.53,-3.83,-2.15,1
19,130261821443000,-4.48,-5.86,0.3,1
19,130261861543000,-9.92,-4.14,1.14,1
19,130261951479000,-19.23,0.69,-2.34,1
19,130261991396000,-19.11,9.08,-3.3,1
19,130262031740000,-13.59,16.04,-4.06,1
19,130262071535000,-3.26,18.89,3.34,1
19,130262111513000,8.85,15.64,2.18,1
19,130262191591000,-4.75,1.5,-4.37,1
19,130262231508000,-18.89,12.79,-0.19,1
19,130262271394000,-19.23,0.89,0.42,1
19,130262351595000,-6.59,-5.75,0.5,1
19,130262391634000,-4.75,-6.7,-2.03,1
19,130262431612000,-0.04,-5.01,-2.68,1
19,130262471498000,1.61,-3.34,-2.15,1
19,130262551637000,0.38,-2.91,0.46,1
19,130262591524000,-4.14,-3.91,1.95,1
19,130262631746000,-9.92,-3.72,-0.84,1
19,130262671510000,-19.08,-11.5,-3.17,1
19,130262751466000,-19.08,4.06,-3.76,1
19,130262791658000,-16.63,13.91,-1.84,1
19,130262831728000,-7.74,19.19,4.44,1
19,130262871614000,8.01,16.82,5.94,1
19,130262951448000,-3.06,0.99,-4.21,1
19,130262991640000,-17.92,13.57,-1.04,1
19,130263041475000,-19.23,-1.53,0.0,1
19,130263081667000,-10.46,-3.95,1.92,1
19,130263121492000,-6.47,-6.82,-0.89,1
19,130263201692000,1.04,-3.76,-3.15,1
19,130263241640000,2.49,-1.65,-2.56,1
19,130263281648000,1.23,-0.76,-0.65,1
19,130263321596000,2.11,-5.13,4.48,1
19,130263408357000,-13.06,-6.21,-5.24,1
19,130263408357000,-13.06,-6.21,-5.24,1
19,130263494508000,-16.32,2.68,-3.15,1
19,130263531648000,-10.95,6.66,-2.11,1
19,130263582246000,-12.07,15.83,3.41,1
19,130263624605000,2.11,13.82,-1.31,1
19,130263671571000,6.85,10.0,3.6,1
19,130263757509000,-18.58,10.08,0.0,1
19,130263794588000,-19.23,0.65,-2.15,1
19,130263831972000,-13.53,-2.49,-1.8,1
19,130263871522000,-7.16,-8.62,-0.19,1
19,130263911531000,1.27,-7.25,-4.71,1
19,130263991609000,2.49,-5.2,-4.21,1
19,130264111391000,-3.64,-1.95,0.89,1
19,130264111391000,-3.64,-1.95,0.89,1
19,130264151460000,-8.12,-4.02,-2.72,1
19,130264191591000,-19.08,-13.57,-1.65,1
19,130264231630000,-19.23,-4.44,-3.72,1
19,130264271486000,-18.39,3.15,-5.09,1
19,130264358766000,-12.45,17.31,3.72,1
19,130264394258000,6.89,19.53,4.56,1
19,130264431612000,7.59,6.78,8.77,1
19,130264471620000,-3.95,1.84,-4.75,1
19,130264516969000,-18.16,12.91,-1.08,1
19,130264591646000,-14.82,-4.02,-2.68,1
19,130264631593000,-7.86,-7.04,-4.63,1
19,130264671602000,-6.28,-8.43,-4.44,1
19,130264711641000,1.31,-4.63,-4.33,1
19,130264791689000,2.07,-3.11,-1.61,1
19,130264831605000,3.3,-6.17,4.4,1
19,130264871492000,-0.72,-1.31,1.69,1
19,130264951601000,-15.98,-9.49,-4.25,1
19,130264991609000,-19.23,-8.62,-0.42,1
19,130265031709000,-16.09,1.73,-5.22,1
19,130265071718000,-9.96,11.69,-0.93,1
19,130265151491000,0.5,15.85,-3.15,1
19,130265191438000,9.49,14.37,7.97,1
19,130265231599000,-2.11,1.23,-2.22,1
19,130265271638000,-15.32,8.05,-4.48,1
19,130265351533000,-16.7,-2.6,1.12,1
19,130265391634000,-5.05,-7.01,2.3,1
19,130265431612000,-4.86,-5.6,-2.98,1
19,130265471468000,-0.31,-4.56,-4.1,1
19,130265551607000,0.42,-2.3,-3.38,1
19,130265591615000,1.61,-1.27,-1.38,1
19,130265631624000,0.19,-2.98,1.42,1
19,130265671724000,-0.95,-1.5,1.76,1
19,130265711702000,-19.23,-7.44,-3.83,1
19,130265791505000,-18.85,1.46,-3.34,1
19,130265831728000,-15.89,5.71,-6.05,1
19,130265871431000,-12.87,16.13,6.89,1
19,130265951509000,6.7,15.17,0.89,1
19,130265991487000,3.57,3.64,1.95,1
19,130266031740000,-9.92,6.47,-6.44,1
19,130266071535000,-19.23,12.37,2.22,1
19,130266151460000,-8.92,-2.75,-0.89,1
19,130266191438000,-4.56,-5.2,-2.22,1
19,130266231599000,-2.83,-5.52,-2.6,1
19,130266271638000,-1.38,-6.51,-3.26,1
19,130266351503000,0.69,-4.33,-1.95,1
19,130266391511000,-0.19,-2.72,0.65,1
19,130266431642000,-2.37,-1.08,1.12,1
19,130266471620000,-12.34,-3.6,0.11,1
19,130266551698000,-19.23,2.87,-3.91,1
19,130266591646000,-16.51,9.0,-3.95,1
19,130266631746000,-12.53,17.16,3.57,1
19,130266673372000,-1.18,19.5,-2.79,1
19,130266711519000,10.8,16.59,5.71,1
19,130266791689000,-9.3,5.48,-7.63,1
19,130266831544000,-19.23,12.57,5.41,1
19,130266871675000,-19.15,1.23,-2.26,1
19,130266911684000,-10.61,-0.8,-2.68,1
19,130266991457000,-2.91,-6.17,-2.37,1
19,130267031587000,1.14,-4.18,-2.49,1
19,130267071626000,1.42,-3.34,-1.8,1
19,130267151491000,-4.18,-5.01,0.61,1
19,130267191438000,-5.22,-2.49,0.08,1
19,130267232118000,-16.82,-8.39,-1.99,1
19,130267271547000,-19.23,-4.25,-2.56,1
19,130267312715000,-18.73,3.45,-2.18,1
19,130267391817000,-10.42,19.11,2.6,1
19,130267434663000,6.55,19.76,3.11,1
19,130267471803000,5.71,8.39,6.85,1
19,130267511568000,-8.77,2.56,-6.63,1
19,130267591646000,-19.23,0.99,-4.14,1
19,130267631746000,-11.69,-1.5,-4.37,1
19,130267671419000,-6.24,-5.75,-3.64,1
19,130267751619000,0.46,-4.86,-4.44,1
19,130267791689000,1.61,-4.71,-4.67,1
19,130267831728000,1.8,-3.64,-1.27,1
19,130267871522000,0.61,-5.18,4.14,1
19,130267951601000,-7.55,-3.17,-4.37,1
19,130267991609000,-19.15,-10.31,-4.18,1
19,130268031587000,-19.0,-1.46,-2.07,1
19,130268071657000,-13.06,2.98,-5.28,1
19,130268151582000,-6.28,17.92,-1.31,1
19,130268191438000,8.88,18.7,10.0,1
19,130268231599000,2.07,5.63,1.69,1
19,130268271638000,-13.38,9.34,-7.7,1
19,130268311555000,-19.23,9.28,1.42,1
19,130268391450000,-10.08,-3.15,-3.17,1
19,130268431642000,-6.02,-6.17,-2.64,1
19,130268471620000,-2.03,-5.43,-2.98,1
19,130268551637000,1.65,-1.57,-1.95,1
19,130268591646000,0.8,-1.5,-0.93,1
19,130268631593000,-1.95,-6.43,3.02,1
19,130268671663000,-5.43,-5.09,-1.18,1
19,130268751466000,-19.23,-5.82,-2.76,1
19,130268791597000,-19.19,2.76,-3.49,1
19,130268831636000,-16.32,8.31,-3.3,1
19,130268871675000,-12.6,15.32,2.14,1
19,130268951479000,12.03,17.88,6.13,1
19,130268991609000,2.91,3.21,1.95,1
19,130269031618000,-9.7,4.18,-6.85,1
19,130269071657000,-19.23,10.99,0.69,1
19,130269151918000,-11.18,-2.03,-2.3,1
19,130269191438000,-5.28,-4.9,-2.49,1
19,130269231599000,-2.45,-6.7,-2.76,1
19,130269271516000,0.84,-5.75,-2.96,1
19,130269311708000,1.5,-3.68,-1.69,1
19,130269391634000,-1.65,-3.53,0.95,1
19,130269431764000,-6.74,-3.45,1.14,1
19,130269471620000,-15.85,-7.25,-2.26,1
19,130269551607000,-19.23,1.95,-3.6,1
19,130269592256000,-18.89,10.57,-7.4,1
19,130269631624000,-11.8,16.21,-3.57,1
19,130269671510000,0.38,19.65,6.7,1
19,130269751619000,-1.38,1.92,1.31,1
19,130269791689000,-15.17,9.19,-3.3,1
19,130269831605000,-19.23,7.12,2.34,1
19,130269871614000,-18.73,0.8,-2.45,1
19,130269951479000,-6.32,-5.05,-3.64,1
19,130269991487000,-0.34,-4.33,-4.44,1
19,130270031618000,2.56,-2.03,-4.02,1
19,130270071626000,1.8,-1.31,-2.56,1
19,130270151491000,-1.61,-5.56,-0.42,1
19,130270191591000,-6.02,-5.13,-0.31,1
19,130270231660000,-17.24,-6.89,-2.64,1
19,130270275636000,-19.23,-1.31,-3.11,1
19,130270351472000,-17.16,8.66,-4.06,1
19,130270391634000,-13.02,16.89,5.24,1
19,130270431642000,-0.95,18.66,-2.18,1
19,130270471620000,11.92,14.44,6.13,1
19,130270511537000,1.27,7.27,-6.05,1
19,130270591707000,-19.23,10.08,3.02,1
19,130270631746000,-19.08,0.5,-2.64,1
19,130270671510000,-10.84,-1.5,-4.18,1
19,130270751619000,-1.23,-7.55,-3.38,1
19,130270791689000,1.65,-4.99,-2.87,1
19,130270831605000,1.31,-3.72,-1.65,1
19,130270871645000,0.8,-3.83,1.14,1
19,130270951601000,-4.06,-2.18,-1.92,1
19,130270991457000,-10.19,-5.43,-4.44,1
19,130271031587000,-19.23,-11.22,-2.41,1
19,130271071626000,-18.85,-0.91,-1.38,1
19,130271111696000,-14.94,4.71,-3.76,1
19,130271201692000,-7.08,17.58,4.14,1
19,130271241640000,10.04,10.61,2.26,1
19,130271361421000,-19.23,10.61,2.26,1
19,130271361421000,-19.23,10.61,2.26,1
19,130271361421000,-19.0,1.04,-1.84,1
19,130271441652000,-10.65,-1.69,-3.41,1
19,130271481508000,-7.08,-6.43,-3.68,1
19,130271521486000,-2.56,-6.89,-4.99,1
19,130271601656000,1.92,-3.68,-5.09,1
19,130271641603000,3.34,-1.95,-2.76,1
19,130271681490000,0.61,-6.09,6.43,1
19,130271721590000,-3.11,-3.53,-0.5,1
19,130271761568000,-19.19,-9.08,0.46,1
19,130271841493000,-19.08,-1.08,-3.64,1
19,130271881624000,-15.13,4.37,-7.97,1
19,130271921449000,-11.88,13.14,-3.17,1
19,130271969606000,-4.75,19.42,1.92,1
19,130272011659000,-0.11,1.38,2.91,1
19,130272091676000,-11.14,6.4,-8.24,1
19,130272131715000,-19.23,13.18,1.14,1
19,130272171541000,-19.04,-1.5,-0.31,1
19,130272251466000,-4.82,-7.21,-1.65,1
19,130272291505000,-2.68,-6.82,-2.64,1
19,130272331636000,1.65,-4.9,-3.02,1
19,130272371645000,2.64,-3.36,-3.17,1
19,130272451570000,2.79,-1.46,2.18,1
19,130272491640000,-1.73,-4.79,0.34,1
19,130272532198000,-13.99,-8.16,-2.87,1
19,130272571992000,-19.23,-10.46,-1.95,1
19,130272651460000,-19.19,6.63,-6.32,1
19,130272691469000,-18.47,15.02,-5.86,1
19,130272731752000,-11.35,17.54,-1.18,1
19,130272771516000,7.44,19.7,11.14,1
19,130272811739000,6.13,7.67,10.8,1
19,130272853548000,-3.3,0.31,-2.83,1
19,130272921541000,-19.23,11.45,3.45,1
19,130272961916000,-17.97,-2.34,-2.45,1
19,130273042482000,-6.21,-8.16,-6.24,1
19,130273081941000,-3.17,-7.4,-4.44,1
19,130273121614000,-0.23,-5.63,-5.41,1
19,130273201631000,3.26,-5.2,3.98,1
19,130273241640000,-0.46,-3.06,4.44,1
19,130273281618000,-1.04,-1.18,0.23,1
19,130273321626000,-10.04,-3.95,-5.9,1
19,130273401643000,-18.92,0.31,-4.14,1
19,130273441652000,-13.95,5.56,-5.83,1
19,130273481477000,-10.61,12.34,-2.6,1
19,130273522249000,-4.1,17.88,-1.08,1
19,130273561739000,9.11,14.02,13.63,1
19,130273645082000,-18.89,12.68,-3.64,1
19,130273682130000,-19.23,7.44,-3.06,1
19,130273721712000,-19.0,-5.18,-2.76,1
19,130273801515000,-4.1,-6.13,-5.37,1
19,130273841676000,0.5,-4.86,-5.43,1
19,130273881502000,2.56,-3.45,-7.7,1
19,130273921571000,2.18,-1.31,-3.26,1
19,130274001649000,-1.14,-3.68,5.05,1
19,130274041689000,-3.15,-3.06,-2.3,1
19,130274081636000,-16.28,-4.75,-7.89,1
19,130274124025000,-19.23,-2.72,-2.3,1
19,130274201723000,-14.41,10.38,-4.6,1
19,130274241548000,-12.6,17.27,0.42,1
19,130274281618000,4.14,19.72,2.96,1
19,130274321626000,8.2,10.5,8.58,1
19,130274401674000,-19.15,13.06,1.38,1
19,130274441682000,-19.23,1.54,-3.15,1
19,130274481508000,-10.27,-3.3,-1.88,1
19,130274521608000,-4.33,-5.43,-1.23,1
19,130274601503000,1.04,-4.33,-5.48,1
19,130274641511000,1.95,-1.99,-2.83,1
19,130274681673000,1.65,-2.56,2.96,1
19,130274721681000,0.15,-8.47,5.82,1
19,130274761690000,-3.34,-4.82,-4.48,1
19,130274851656000,-19.23,-0.53,-4.29,1
19,130274851656000,-19.23,-0.53,-4.29,1
19,130274931917000,-16.09,10.95,-1.08,1
19,130274971620000,-12.22,16.7,5.71,1
19,130275051637000,12.15,15.32,9.08,1
19,130275091554000,-0.04,2.15,1.04,1
19,130275134462000,-13.91,8.73,-7.5,1
19,130275171663000,-19.23,10.8,3.17,1
19,130275211549000,-18.62,-0.76,-1.5,1
19,130275291658000,-7.7,-7.16,-3.3,1
19,130275331636000,-3.3,-6.85,-3.49,1
19,130275371675000,0.61,-6.09,-5.43,1
19,130275411684000,0.95,-3.87,-4.14,1
19,130275491640000,1.76,-3.87,5.05,1
19,130275531770000,-1.65,-2.26,-0.57,1
19,130275571504000,-11.6,-3.76,-7.08,1
19,130275616518000,-19.23,-6.28,-0.23,1
19,130275691621000,-11.22,5.6,-4.48,1
19,130275731721000,-15.47,16.04,3.76,1
19,130275772066000,-7.46,18.58,-2.15,1
19,130275851656000,3.98,3.11,3.49,1
19,130275891634000,-8.16,4.79,-7.86,1
19,130275931612000,-19.23,14.71,2.18,1
19,130275971651000,-19.11,-0.34,0.08,1
19,130276051607000,-5.79,-7.01,0.11,1
19,130276091524000,-3.99,-6.78,-2.83,1
19,130276131593000,0.69,-4.44,-2.18,1
19,130276171632000,1.92,-3.53,-1.65,1
19,130276251497000,0.11,-4.1,5.01,1
19,130276291505000,-3.64,-3.15,-0.08,1
19,130276331636000,-13.38,-5.01,-5.71,1
19,130276371645000,-19.23,-8.69,-1.18,1
19,130276411958000,-19.23,-0.23,-5.71,1
19,130276491487000,-14.63,14.37,1.65,1
19,130276531740000,-8.01,18.85,4.29,1
19,130276571413000,7.4,18.92,3.15,1
19,130276651643000,-3.76,0.95,-5.79,1
19,130276691621000,-16.63,14.02,0.19,1
19,130276732301000,-19.23,8.16,0.91,1
19,130276771486000,-14.71,-0.8,0.99,1
19,130276851472000,-6.63,-7.82,-3.99,1
19,130276891511000,0.04,-5.43,-4.48,1
19,130276931642000,2.3,-4.52,-5.48,1
19,130276971651000,1.23,-2.22,-2.64,1
19,130277051485000,-0.08,-3.95,2.14,1
19,130277091676000,-5.9,-3.26,-1.46,1
19,130277131776000,-18.58,-9.81,-3.3,1
19,130277171663000,-19.23,-3.57,-1.8,1
19,130277211671000,-17.27,2.37,-5.79,1
19,130277260194000,-11.75,19.76,3.11,1
19,130277302248000,-9.85,9.77,4.52,1
19,130277371614000,9.62,9.77,4.52,1
19,130277451692000,-17.82,12.03,2.45,1
19,130277491548000,-19.23,6.66,-2.26,1
19,130277531587000,-15.36,-4.06,-1.33,1
19,130277571657000,-7.86,-9.34,1.73,1
19,130277651460000,0.27,-4.37,-3.49,1
19,130277691560000,2.11,-3.76,-4.44,1
19,130277732027000,1.57,-1.84,-1.18,1
19,130277771577000,1.92,-6.74,6.78,1
19,130277851595000,-7.12,-2.72,-4.06,1
19,130277891969000,-19.04,-10.99,-6.66,1
19,130277931856000,-19.08,-1.33,-3.45,1
19,130277971681000,-12.3,3.3,-1.54,1
19,130278051668000,-9.34,12.98,-5.67,1
19,130278091524000,4.99,16.44,-2.96,1
19,130278131593000,7.12,11.54,4.79,1
19,130278171510000,-6.78,4.37,-6.02,1
19,130278211641000,-19.23,1.54,-1.04,1
19,130278291475000,-11.41,-2.45,-0.04,1
19,130278331758000,-7.93,-7.89,-1.31,1
19,130278371614000,-3.49,-8.39,-4.86,1
19,130278411531000,1.5,-5.94,1.18,1
19,130278541322000,0.38,-4.56,1.18,1
19,130278541322000,0.38,-4.56,1.18,1
19,130278581941000,-5.01,-2.3,-0.5,1
19,130278621614000,-17.39,-8.08,-2.45,1
19,130278701479000,-17.39,2.64,-5.05,1
19,130278741731000,-9.72,11.54,0.3,1
19,130278781618000,-8.43,19.57,1.69,1
19,130278821443000,5.33,17.82,-1.31,1
19,130278901674000,-2.83,2.96,-4.75,1
19,130278941743000,-18.01,15.02,2.26,1
19,130278991609000,-19.23,2.79,-2.68,1
19,130279031618000,-10.92,-1.08,-1.95,1
19,130279071504000,-7.97,-6.32,-2.45,1
19,130279151521000,0.19,-4.86,-3.72,1
19,130279191469000,1.38,-3.36,-2.87,1
19,130279231782000,1.33,-2.34,-1.46,1
19,130279271486000,0.04,-3.83,1.61,1
19,130279351625000,-17.24,-9.53,-4.1,1
19,130279391939000,-19.23,-4.79,-4.4,1
19,130279431795000,-16.89,2.53,-2.11,1
19,130279471498000,-10.31,12.18,2.96,1
19,130279551668000,2.22,15.47,-3.41,1
19,130279591676000,6.85,11.07,1.33,1
19,130279631593000,3.49,2.56,1.18,1
19,130279671663000,-6.55,7.5,-5.56,1
19,130279751527000,-18.39,-0.34,1.76,1
19,130279791566000,-4.79,-3.41,5.13,1
19,130279831789000,-6.05,-6.05,-1.08,1
19,130279871645000,-4.29,-5.33,-3.76,1
19,130279951509000,1.69,-2.56,-3.79,1
19,130279991487000,1.46,-1.14,-1.57,1
19,130280031740000,0.72,-3.11,-2.34,1
19,130280071474000,-6.21,-5.52,0.38,1
19,130280151643000,-19.23,-3.15,-3.64,1
19,130280191591000,-19.19,4.67,-2.68,1
19,130280231630000,-15.09,8.12,-1.88,1
19,130280271516000,-10.42,18.81,2.98,1
19,130280351656000,10.19,17.69,-3.34,1
19,130280391664000,6.43,3.38,3.57,1
19,130280435152000,-5.98,9.53,-7.67,1
19,130280471651000,-19.23,13.95,1.99,1
19,130280511690000,-18.16,3.3,0.61,1
19,130280591707000,-3.68,-5.79,-3.3,1
19,130280631593000,-2.72,-9.04,-4.29,1
19,130280671663000,-0.42,-11.41,-5.83,1
19,130280751741000,2.96,-4.29,-0.95,1
19,130280791475000,-1.57,-2.87,2.14,1
19,130280831605000,-5.71,-0.23,1.14,1
19,130280871675000,-16.17,-4.99,-5.86,1
19,130280911714000,-19.23,-1.46,1.76,1
19,130280991609000,-16.32,13.4,-5.48,1
19,130281031648000,-7.89,19.72,3.83,1
19,130281071718000,3.15,18.35,3.68,1
19,130281151460000,0.5,0.46,-0.31,1
19,130281197267000,-14.94,13.76,-3.38,1
19,130281236208000,-19.23,12.11,4.14,1
19,130281274416000,-15.28,0.38,-1.8,1
19,130281311616000,-4.63,-1.84,-3.45,1
19,130281391481000,-1.99,-6.97,-3.45,1
19,130281431764000,0.84,-7.55,-5.09,1
19,130281471620000,0.8,-5.67,-3.34,1
19,130281551515000,-1.42,-2.26,4.06,1
19,130281591585000,-3.64,-0.8,-0.34,1
19,130281631624000,-16.51,-6.36,-3.83,1
19,130281671632000,-19.23,-4.99,0.61,1
19,130281752748000,-11.37,11.37,-1.88,1
19,130281793001000,-10.04,19.76,2.72,1
19,130281831605000,6.17,18.62,0.57,1
19,130281871522000,9.7,9.04,6.17,1
19,130281951601000,-16.86,13.38,-2.41,1
19,130281992158000,-19.23,7.82,2.79,1
19,130282031709000,-13.99,1.14,-0.46,1
19,130282071657000,-6.78,-6.43,1.04,1
19,130282151552000,-1.42,-6.63,-3.91,1
19,130282191621000,1.12,-6.24,-3.6,1
19,130282231630000,2.56,-3.26,-2.07,1
19,130282271699000,2.45,-2.79,0.57,1
19,130282351533000,-7.4,-2.91,-1.69,1
19,130282391542000,-18.92,-9.47,-2.91,1
19,130282431459000,-19.19,-1.57,-0.84,1
19,130282471529000,-14.02,2.11,-4.99,1
19,130282511537000,-10.8,11.54,-2.26,1
19,130282596834000,6.55,19.76,1.69,1
19,130282635713000,7.04,6.47,4.56,1
19,130282680543000,-8.85,6.02,-6.36,1
19,130282721468000,-19.23,15.24,2.79,1
19,130282801668000,-11.96,-6.21,0.11,1
19,130282841646000,-6.55,-8.69,-1.88,1
19,130282881532000,-1.27,-6.7,-3.79,1
19,130282921632000,1.92,-3.87,-3.11,1
19,130283001863000,2.49,-3.36,0.11,1
19,130283041627000,0.11,-4.4,3.83,1
19,130283081667000,-3.15,-2.18,-2.18,1
19,130283121645000,-15.17,-9.72,-5.67,1
19,130283201570000,-18.2,0.99,-3.87,1
19,130283241670000,-17.01,8.05,-1.95,1
19,130283284486000,-16.89,17.35,4.86,1
19,130283321779000,-0.76,18.2,-5.56,1
19,130283401521000,4.79,2.96,0.91,1
19,130283441499000,-8.24,7.46,-8.05,1
19,130283481630000,-19.23,12.83,4.37,1
19,130283521608000,-17.12,-1.31,1.69,1
19,130283561555000,-6.28,-0.3,-1.23,1
19,130283641634000,-4.6,-7.59,-2.41,1
19,130283681490000,0.91,-5.86,-0.8,1
19,130283721590000,1.73,-3.53,-0.61,1
19,130283761537000,0.99,-1.5,0.42,1
19,130283841615000,-7.63,-4.63,-4.82,1
19,130283881624000,-17.24,-9.81,-3.91,1
19,130283921632000,-19.23,-8.88,-1.95,1
19,130283961732000,-19.23,1.42,-3.68,1
19,130284043581000,-17.24,13.67,6.66,1
19,130284043581000,-17.24,13.67,6.66,1
19,130284122224000,11.54,19.15,3.3,1
19,130284161684000,4.67,7.78,5.18,1
19,130284241701000,-19.23,14.52,-0.61,1
19,130284281618000,-19.23,-0.27,-1.46,1
19,130284321626000,-17.27,-4.18,-5.37,1
19,130284401674000,-6.66,-10.19,-5.52,1
19,130284441499000,-1.46,-7.04,-5.52,1
19,130284481508000,1.18,-7.5,-8.73,1
19,130284521638000,1.8,-5.28,-3.68,1
19,130284561555000,-5.37,-1.14,8.62,1
19,130284641634000,-1.27,-1.27,-1.73,1
19,130284681642000,-14.82,-9.3,-6.24,1
19,130284721590000,-19.23,-13.59,-2.79,1
19,130284801515000,-11.73,9.04,-2.3,1
19,130284841646000,-14.29,17.86,5.24,1
19,130284881624000,-5.6,13.4,-0.23,1
19,130284921632000,7.44,19.46,0.99,1
19,130285001894000,-10.38,5.01,-9.81,1
19,130285041719000,-19.23,15.32,3.26,1
19,130285081636000,-19.23,-1.69,-1.69,1
19,130285121461000,-10.0,-4.52,-1.27,1
19,130285201509000,-4.06,-8.08,-3.91,1
19,130285241640000,0.19,-7.46,-5.01,1
19,130285281465000,1.04,-7.04,-5.79,1
19,130285321443000,2.83,-4.52,-2.68,1
19,130285401643000,-3.02,-1.18,2.72,1
19,130285441621000,-7.74,-2.11,-2.68,1
19,130285481630000,-19.08,-13.21,-0.57,1
19,130285531770000,-19.23,-0.91,-5.67,1
19,130285571626000,-16.82,5.52,-6.59,1
19,130285651643000,-8.54,2.15,-5.63,1
19,130285776949000,-5.56,2.15,-5.63,1
19,130285776949000,-5.56,2.15,-5.63,1
19,130285776949000,-5.56,2.15,-5.63,1
19,130285851595000,-19.23,1.33,0.69,1
19,130285891634000,-16.32,-3.15,-2.07,1
19,130285931734000,-9.04,-6.51,-3.34,1
19,130285971498000,-6.02,-8.58,-3.83,1
19,130286051515000,1.92,-5.75,-4.25,1
19,130286091646000,2.26,-4.06,-2.03,1
19,130286131624000,5.24,-3.6,3.49,1
19,130286171510000,-2.45,-3.45,1.76,1
19,130286251649000,-18.01,-12.72,-3.57,1
19,130286291627000,-19.23,-8.31,-1.12,1
19,130286331758000,-19.19,1.27,-5.94,1
19,130286372163000,-17.35,10.69,-4.48,1
19,130286457338000,-1.54,19.46,-1.12,1
19,130286493257000,13.4,13.25,10.27,1
19,130286531770000,4.18,0.27,4.59,1
19,130286571687000,-3.99,2.37,-7.7,1
19,130286611635000,-18.24,15.32,5.94,1
19,130286691652000,-12.49,-0.27,-0.8,1
19,130286731782000,-8.08,-7.21,-1.57,1
19,130286771669000,-5.86,-9.28,-2.83,1
19,130286851686000,2.18,-5.9,-1.99,1
19,130286891695000,2.49,-3.15,-0.34,1
19,130286931795000,0.89,-4.06,2.87,1
19,130286971620000,-5.52,-2.75,0.89,1
19,130287051668000,-19.23,-13.33,-1.23,1
19,130287091676000,-19.23,-2.41,-3.21,1
19,130287131776000,-18.35,4.79,-6.21,1
19,130287171785000,-14.67,12.95,-1.12,1
19,130287211671000,-13.44,16.93,4.99,1
19,130287291689000,10.8,13.02,10.0,1
19,130287331605000,-1.65,1.69,-2.03,1
19,130287371675000,-16.17,10.19,-5.71,1
19,130287451448000,-18.05,-2.45,0.19,1
19,130287491548000,-8.28,-4.82,-2.49,1
19,130287532289000,-7.01,-9.08,-4.52,1
19,130287571474000,-1.31,-8.05,-4.33,1
19,130287611543000,1.42,-7.31,-4.6,1
19,130287691591000,1.04,-3.53,-0.72,1
19,130287731599000,-2.68,-5.01,2.45,1
19,130287771516000,-7.97,-3.17,-0.95,1
19,130287851686000,-19.23,-7.08,-2.87,1
19,130287891603000,-19.23,2.18,-7.01,1
19,130287931764000,-15.89,12.95,-4.37,1
19,130287971620000,-13.53,19.53,3.53,1
19,130288051607000,9.62,13.87,7.59,1
19,130288091554000,4.86,2.22,2.6,1
19,130288131624000,-5.41,4.1,-7.63,1
19,130288172731000,-19.23,15.66,4.48,1
19,130288211610000,-19.23,0.11,2.07,1
19,130288291658000,-9.04,-10.5,-0.23,1
19,130288331605000,-5.24,-8.66,-3.53,1
19,130288371492000,0.19,-5.56,-2.37,1
19,130288451234000,2.68,-3.3,-0.27,1
19,130288491212000,-0.42,-3.53,4.06,1
19,130288531374000,-5.33,-1.88,0.72,1
19,130288571596000,-10.23,-5.79,-4.1,1
19,130288651491000,-19.23,-2.79,-2.07,1
19,130288691682000,-17.27,4.14,-3.45,1
19,130288731813000,-14.06,11.99,3.15,1
19,130288771699000,-11.8,15.64,1.23,1
19,130288811647000,10.04,11.96,7.01,1
19,130288891511000,-1.04,0.93,-2.11,1
19,130288941194000,-18.35,11.6,3.53,1
19,130288983308000,-19.23,3.3,-2.3,1
19,130289021638000,-13.99,-1.08,-1.61,1
19,130289061739000,-7.7,-6.36,-0.57,1
19,130289141542000,-0.89,-7.31,-5.05,1
19,130289181703000,1.18,-5.05,-4.56,1
19,130289221468000,1.73,-2.14,-1.46,1
19,130289301515000,-3.02,-3.3,2.91,1
19,130289341493000,-7.31,-2.53,-3.21,1
19,130289381654000,-18.77,-12.45,-1.46,1
19,130289421419000,-19.19,-2.72,-1.12,1
19,130289501497000,-14.82,13.38,-2.03,1
19,130289541689000,-12.6,18.85,3.72,1
19,130289581514000,2.68,19.0,0.3,1
19,130289621614000,10.53,10.65,6.05,1
19,130289661531000,0.5,0.72,-1.18,1
19,130289708070000,-15.79,4.52,4.4,1
19,130289792085000,-16.28,-3.21,-0.95,1
19,130289836427000,-8.85,-8.08,-0.53,1
19,130289875337000,-6.59,-7.12,-3.76,1
19,130289912660000,-1.46,-5.09,-2.83,1
19,130289991487000,1.33,-3.79,-1.99,1
19,130290031770000,3.36,-2.87,2.34,1
19,130290071504000,0.3,-2.53,2.75,1
19,130290151491000,-14.71,-6.89,-3.53,1
19,130290191621000,-19.23,-10.19,-1.31,1
19,130290231630000,-18.24,1.95,-2.83,1
19,130290271669000,-18.96,7.08,-2.76,1
19,130290351595000,-7.31,17.73,4.63,1
19,130290391511000,11.26,18.7,7.78,1
19,130290431795000,7.16,3.26,5.05,1
19,130290471651000,-4.4,2.49,-6.74,1
19,130290512025000,-18.81,14.82,3.21,1
19,130290591676000,-11.75,-3.83,1.99,1
19,130290631776000,-6.4,-5.71,0.04,1
19,130290671693000,-5.37,-4.79,-2.22,1
19,130290711580000,0.08,-2.87,-3.6,1
19,130290791566000,1.46,-0.15,0.04,1
19,130290831697000,1.57,-4.82,5.71,1
19,130290871553000,-5.75,-5.37,-5.98,1
19,130290951631000,-18.05,-0.61,0.5,1
19,130290991640000,-10.42,2.22,-0.69,1
19,130291031770000,-11.8,8.89,8.24,1
19,130291071504000,-11.07,10.53,3.83,1
19,130291111574000,-2.98,6.09,-3.68,1
19,130291192171000,4.82,8.85,0.38,1
19,130291231782000,-0.95,3.79,-0.31,1
19,130291273195000,-16.36,9.96,1.88,1
19,130291351656000,-16.09,-1.84,0.72,1
19,130291391664000,-8.08,-6.36,1.42,1
19,130291431642000,-5.83,-4.63,-2.26,1
19,130291471651000,-1.14,-3.36,-1.38,1
19,130291551515000,1.18,-1.69,-0.53,1
19,130291591493000,0.72,-2.07,1.92,1
19,130291631624000,-1.42,-3.45,1.57,1
19,130291671663000,-14.18,-5.24,-4.25,1
19,130291711732000,-19.23,-8.12,-1.38,1
19,130291791689000,-19.15,5.05,-2.15,1
19,130291831575000,-17.73,13.44,3.11,1
19,130291871675000,-9.3,14.94,2.49,1
19,130291951509000,12.26,14.71,3.91,1
19,130291991487000,2.18,1.61,1.33,1
19,130292031709000,-9.34,3.64,-5.43,1
19,130292071626000,-19.23,12.45,0.53,1
19,130292151613000,-12.6,-1.73,-3.6,1
19,130292191469000,-9.0,-6.51,-1.88,1
19,130292231752000,-5.01,-7.25,-3.06,1
19,130292271516000,0.3,-5.2,-1.95,1
19,130292311555000,2.34,-3.36,-1.14,1
19,130292391634000,1.8,-6.28,7.12,1
19,130292431764000,-5.18,-3.83,1.12,1
19,130292471498000,-11.73,-8.39,-5.33,1
19,130292511690000,-19.23,-14.4,-1.84,1
19,130292591524000,-18.73,5.28,-1.14,1
19,130292631593000,-16.17,13.53,5.24,1
19,130292671632000,-10.04,14.67,-2.53,1
19,130292751894000,9.23,7.08,7.46,1
19,130292791689000,-2.6,1.08,-3.95,1
19,130292911317000,-16.13,-0.38,-1.14,1
19,130292911317000,-16.13,-0.38,-1.14,1
19,130292951479000,-7.67,-2.87,-3.95,1
19,130292991579000,-7.74,-8.39,-3.38,1
19,130293082277000,1.31,-5.6,-4.18,1
19,130293082277000,1.31,-5.6,-4.18,1
19,130293121492000,1.92,-2.3,-2.34,1
19,130293161653000,2.98,-2.41,0.0,1
19,130293241640000,-2.18,-2.37,-2.45,1
19,130293281740000,-14.98,-8.69,-7.74,1
19,130293321626000,-19.23,-9.38,2.3,1
19,130293401552000,-15.75,10.84,-4.52,1
19,130293441621000,-16.66,19.19,4.18,1
19,130293481477000,3.87,19.38,-0.34,1
19,130293521638000,11.41,12.07,7.63,1
19,130293601656000,-15.32,11.65,-6.32,1
19,130293641664000,-19.23,5.41,4.79,1
19,130293681490000,-16.36,-2.34,0.3,1
19,130293721468000,-5.56,-4.4,-2.56,1
19,130293801515000,-0.8,-6.32,-3.99,1
19,130293841646000,2.26,-5.41,-4.67,1
19,130293881654000,0.95,-3.06,-2.6,1
19,130293921602000,0.95,-2.75,-0.34,1
19,130294001680000,-5.52,-3.83,-3.15,1
19,130294041627000,-18.31,-10.88,-4.86,1
19,130294081605000,-19.23,-5.09,-4.14,1
19,130294121675000,-19.23,3.64,-6.93,1
19,130294201662000,-12.98,19.72,3.68,1
19,130294241518000,2.41,18.7,-0.84,1
19,130294281618000,11.07,13.4,5.86,1
19,130294321504000,2.14,2.07,0.08,1
19,130294401674000,-19.23,14.25,7.27,1
19,130294441621000,-18.89,-1.23,-0.65,1
19,130294481508000,-8.85,-1.88,-0.31,1
19,130294521638000,-5.86,-9.62,0.42,1
19,130294601656000,2.14,-5.98,-2.15,1
19,130294641511000,3.02,-4.18,-1.8,1
19,130294681520000,3.3,-1.33,0.27,1
19,130294721620000,0.27,-4.48,3.68,1
19,130294802034000,-13.18,-7.35,-4.71,1
19,130294842683000,-19.23,-12.22,1.84,1
19,130294881502000,-19.0,-0.3,-2.34,1
19,130294921632000,-14.33,4.4,-3.87,1
19,130295001955000,-9.3,18.47,3.76,1
19,130295041505000,4.02,18.7,3.11,1
19,130295081667000,8.16,7.25,8.16,1
19,130295121706000,-1.73,1.31,-4.44,1
19,130295161592000,-16.59,14.52,0.57,1
19,130295244020000,-13.67,-3.26,0.69,1
19,130295281648000,-3.6,-3.98,-3.49,1
19,130295321535000,-2.96,-7.89,-2.34,1
19,130295361635000,0.04,-7.93,-4.29,1
19,130295441621000,1.53,-5.24,-1.99,1
19,130295481630000,1.57,-4.25,0.46,1
19,130295521638000,-1.84,-4.59,2.75,1
19,130295601625000,-17.82,-12.26,-2.68,1
19,130295641695000,-19.23,-7.35,0.42,1
19,130295681490000,-19.23,1.57,-5.9,1
19,130295721681000,-16.7,11.99,-5.28,1
19,130295761629000,-14.98,19.15,0.65,1
19,130295841676000,9.49,13.53,11.95,1
19,130295881624000,3.64,2.53,3.3,1
19,130295921632000,-6.09,5.6,-9.7,1
19,130295961549000,-19.19,17.01,5.9,1
19,130296041505000,-9.04,-4.1,-0.84,1
19,130296081514000,-4.99,-7.59,-4.48,1
19,130296121675000,-4.56,-10.61,-5.22,1
19,130296201662000,1.88,-7.21,-6.66,1
19,130296241670000,3.02,-2.96,-1.46,1
19,130296281618000,1.53,-3.83,5.05,1
19,130296321687000,-1.61,-2.14,1.99,1
19,130296371645000,-10.95,-4.86,-6.32,1
19,130296411531000,-19.23,-12.11,1.69,1
19,130296491548000,-11.69,8.01,-4.94,1
19,130296531618000,-12.6,19.11,5.13,1
19,130296571718000,-5.37,15.4,-0.99,1
19,130296651552000,5.71,7.46,3.95,1
19,130296691652000,-6.55,4.56,-5.94,1
19,130296732545000,-19.23,15.36,2.49,1
19,130296772768000,-19.23,0.46,-2.34,1
19,130296811586000,-12.45,-4.56,-2.68,1
19,130296891634000,-4.02,-12.26,-6.05,1
19,130296931642000,-0.89,-14.29,-10.42,1
19,130296971773000,1.08,-6.97,-5.63,1
19,130297051546000,-4.18,-5.2,11.3,1
19,130297091615000,-1.84,-1.61,1.8,1
19,130297131502000,-5.56,-5.2,-4.25,1
19,130297172700000,-19.11,-16.51,-3.49,1
19,130297211488000,-19.23,-5.79,-2.83,1
19,130297292207000,-15.36,16.17,0.11,1
19,130297331636000,-13.4,17.97,4.18,1
19,130297371522000,4.94,19.76,2.68,1
19,130297411684000,7.86,11.07,6.89,1
19,130297493532000,-17.86,14.98,-2.3,1
19,130297531648000,-19.23,7.59,0.69,1
19,130297571596000,-15.43,-4.4,-0.89,1
19,130297611665000,-6.44,-5.63,-4.99,1
19,130297691438000,-0.53,-9.7,-7.5,1
19,130297731569000,1.27,-8.77,-9.92,1
19,130297771638000,3.53,-4.67,-4.79,1
19,130297851656000,-3.11,-1.46,7.08,1
19,130297891634000,-4.14,-1.69,-2.53,1
19,130297931703000,-17.67,-11.73,-3.99,1
19,130297972322000,-19.23,-6.05,1.69,1
19,130298051668000,-8.89,11.35,-1.57,1
19,130298051668000,-8.89,11.35,-1.57,1
19,130298141298000,2.49,18.2,3.72,1
19,130298181856000,8.16,8.69,8.08,1
19,130298221559000,-1.92,2.6,-6.17,1
19,130298301607000,-19.23,5.18,1.12,1
19,130298341524000,-11.6,-3.15,1.08,1
19,130298381746000,-4.4,-6.7,-3.38,1
19,130298421510000,-2.41,-9.53,-4.14,1
19,130298461519000,0.34,-10.46,-5.33,1
19,130298541627000,2.37,-3.41,-2.79,1
19,130298581514000,0.34,-3.72,0.65,1
19,130298621522000,-1.33,-3.53,1.84,1
19,130298701692000,-19.23,-12.68,-3.87,1
19,130298741640000,-19.23,-1.99,-5.09,1
19,130298781618000,-17.27,8.28,-8.5,1
19,130298821626000,-14.25,19.5,4.71,1
19,130298901704000,9.49,16.09,5.43,1
19,130298941621000,6.78,6.05,5.48,1
19,130298981630000,0.72,1.65,-1.38,1
19,130299021669000,-14.25,14.75,-6.89,1
19,130299061616000,-19.23,9.0,3.91,1
19,130299141634000,-6.93,-8.16,-4.14,1
19,130299181673000,-5.75,-11.37,-4.1,1
19,130299221498000,-0.8,-9.38,-4.37,1
19,130299301637000,4.48,-5.67,-5.18,1
19,130299341646000,4.25,-2.18,1.31,1
19,130299381654000,-2.22,-2.37,4.86,1
19,130299421632000,-3.99,-1.04,-0.27,1
19,130299501588000,-19.23,-12.3,3.21,1
19,130299541475000,-19.15,0.11,-7.12,1
19,130299581636000,-14.44,9.23,-3.57,1
19,130299622469000,-15.83,18.62,5.43,1
19,130299661653000,-3.95,19.34,1.5,1
19,130299751680000,1.95,1.69,0.61,1
19,130299797243000,-11.03,10.38,-9.0,1
19,130299834169000,-19.23,13.21,6.02,1
19,130299871645000,-17.73,-2.34,-0.69,1
19,130299911531000,-4.14,-7.93,-4.6,1
19,130299991457000,-1.04,-8.27,-6.17,1
19,130300031465000,1.14,-2.45,2.87,1
19,130300151308000,0.15,-2.45,2.87,1
19,130300151308000,0.15,-2.45,2.87,1
19,130300191591000,-2.26,-2.11,0.27,1
19,130300231599000,-15.79,-7.4,-6.93,1
19,130300271638000,-19.23,-5.18,-0.76,1
19,130300311464000,-10.23,12.26,-1.14,1
19,130300392183000,-8.77,19.46,2.03,1
19,130300431673000,4.71,16.78,0.38,1
19,130300471773000,9.49,11.26,6.66,1
19,130300551668000,-18.47,16.93,0.8,1
19,130300591676000,-19.23,5.98,0.11,1
19,130300631502000,-15.98,-0.95,-1.69,1
19,130300671724000,-6.44,-5.9,-4.67,1
19,130300751466000,-2.07,-10.19,-7.06,1
19,130300791719000,2.3,-11.45,-11.6,1
19,130300831514000,3.76,-6.32,-4.63,1
19,130300871461000,3.53,-6.32,1.88,1
19,130300911684000,-5.05,-1.76,-2.72,1
19,130300991609000,-15.98,-10.46,-6.36,1
19,130301034547000,-19.23,-7.63,2.49,1
19,130301072237000,-18.77,0.65,-8.89,1
19,130301151643000,-14.75,16.4,2.22,1
19,130301191560000,-4.67,19.5,5.05,1
19,130301231477000,10.11,13.38,12.87,1
19,130301271761000,1.14,1.92,1.42,1
19,130301312379000,-11.18,8.24,-10.99,1
19,130301392091000,-16.63,-3.26,-2.64,1
19,130301431490000,-4.79,-3.02,-1.88,1
19,130301471742000,-4.06,-8.35,-4.37,1
19,130301551515000,1.61,-8.85,-12.3,1
19,130301591676000,3.49,-4.14,-7.59,1
19,130301631502000,3.49,-2.79,-2.34,1
19,130301671754000,-0.61,-3.15,1.99,1
19,130301754976000,-18.7,-12.72,-5.24,1
19,130301792909000,-19.23,-1.57,1.46,1
19,130301834413000,-18.43,5.37,-6.78,1
19,130301881685000,-14.02,15.79,-2.68,1
19,130301921663000,-10.5,19.11,4.63,1
19,130302001527000,8.01,5.94,8.88,1
19,130302041475000,-1.99,0.42,-5.48,1
19,130302081636000,-16.04,12.64,-2.53,1
19,130302121767000,-19.23,6.59,4.56,1
19,130302201540000,-5.52,-9.49,3.83,1
19,130302241640000,-4.33,-8.08,-2.68,1
19,130302281618000,-0.27,-6.24,-2.98,1
19,130302321474000,1.23,-6.7,-4.37,1
19,130302361665000,1.42,-4.48,-3.34,1
19,130302441621000,-2.03,-4.67,0.72,1
19,130302481508000,-7.08,-5.01,-0.04,1
19,130302522523000,-18.09,-11.45,-4.21,1
19,130302563997000,-19.19,6.74,-6.05,1
19,130302641695000,-18.89,16.44,-0.95,1
19,130302681703000,-12.18,19.38,4.02,1
19,130302721468000,11.88,19.61,10.69,1
19,130302801515000,-4.02,2.11,-4.71,1
19,130302841768000,-18.5,15.51,2.41,1
19,130302881624000,-19.23,2.83,-1.33,1
19,130302921541000,-16.55,-4.4,-2.18,1
19,130302961519000,-7.16,-7.55,-4.63,1
19,130303041505000,0.8,-9.04,-5.41,1
19,130303081667000,3.95,-7.74,-6.7,1
19,130303121767000,2.72,-3.87,-2.49,1
19,130303201692000,-2.45,-3.87,7.65,1
19,130303241640000,-1.33,-2.3,-3.15,1
19,130303291627000,-16.97,-13.87,-5.37,1
19,130303331880000,-19.23,-8.92,0.89,1
19,130303371736000,-16.55,3.6,-4.02,1
19,130303451356000,-17.01,17.24,1.76,1
19,130303491365000,-2.37,19.72,3.06,1
19,130303531343000,10.92,13.25,9.49,1
19,130303571382000,2.53,1.12,1.73,1
19,130303611391000,-10.12,14.75,3.95,1
19,130303691347000,-17.5,-1.18,-0.84,1
19,130303731294000,-5.6,-2.3,-1.8,1
19,130303771608000,-5.18,-7.82,-3.79,1
19,130303812135000,-4.1,-9.89,-4.25,1
19,130303891573000,1.42,-8.43,-6.44,1
19,130303931642000,3.45,-4.37,-0.95,1
19,130303971773000,-1.95,-2.45,10.34,1
19,130304051515000,-3.21,-4.82,-5.28,1
19,130304092195000,-19.04,-13.4,-3.26,1
19,130304131502000,-19.11,-0.84,-2.37,1
19,130304171754000,-13.21,6.4,-5.09,1
19,130304211488000,-12.72,16.36,5.33,1
19,130304271608000,-1.57,17.31,2.26,1
19,130304311494000,11.14,14.86,9.81,1
19,130304391603000,-13.8,9.96,-8.54,1
19,130304431642000,-19.23,12.98,3.11,1
19,130304471590000,-19.04,-5.71,0.8,1
19,130304551607000,-4.99,-8.24,-3.21,1
19,130304591463000,-1.38,-6.7,-3.21,1
19,130304631654000,1.42,-4.99,-5.33,1
19,130304671754000,1.38,-4.21,-5.98,1
19,130304751466000,0.57,-3.95,-0.72,1
19,130304791689000,-0.76,-2.98,2.53,1
19,130304831636000,-8.12,-5.33,-1.65,1
19,130304874025000,-19.23,-9.62,-5.98,1
19,130304915620000,-19.23,2.3,-6.02,1
19,130304962740000,-14.6,19.72,3.17,1
19,130305041689000,3.76,19.65,-0.95,1
19,130305081636000,11.26,11.73,8.31,1
19,130305121584000,0.89,1.95,-1.76,1
19,130305161684000,-19.23,4.86,4.82,1
19,130305241487000,-16.51,-3.6,0.04,1
19,130305281618000,-7.25,-4.02,-2.96,1
19,130305321535000,-5.52,-7.63,-3.02,1
19,130305401521000,1.99,-7.12,-5.33,1
19,130305441621000,2.72,-4.75,-4.79,1
19,130305481630000,3.21,-2.3,-1.12,1
19,130305521669000,0.27,-3.72,2.41,1
19,130305561678000,-2.56,-3.36,2.41,1
19,130305647310000,-19.23,-7.5,1.27,1
19,130305686159000,-19.23,2.22,-7.21,1
19,130305724641000,-16.74,9.85,-7.12,1
19,130305761812000,-13.38,17.16,6.13,1
19,130305851503000,11.45,17.31,8.24,1
19,130305891634000,5.13,3.38,3.98,1
19,130305931581000,-4.18,4.82,-7.89,1
19,130305971773000,-19.08,18.28,4.94,1
19,130306051485000,-14.33,-5.79,0.34,1
19,130306091615000,-2.76,-7.97,0.34,1
19,130306131532000,-1.46,-7.35,-1.69,1
19,130306171632000,1.65,-6.43,-3.11,1
19,130306251649000,0.91,-2.53,-1.18,1
19,130306291597000,1.12,-2.53,0.0,1
19,130306331636000,-2.37,-5.33,2.83,1
19,130306371767000,-12.03,-5.33,-2.87,1
19,130306411562000,-19.23,0.84,-2.56,1
19,130306491487000,-18.2,6.21,-5.67,1
19,130306531648000,-14.29,15.75,3.98,1
19,130306571748000,-9.96,14.98,-2.64,1
19,130306611543000,9.11,10.34,3.49,1
19,130306691469000,-0.69,1.14,-2.15,1
19,130306731630000,-16.21,8.85,-2.26,1
19,130306771791000,-19.23,9.51,0.76,1
19,130306851472000,-8.5,-2.83,-4.21,1
19,130306891573000,-7.44,-8.77,-3.72,1
19,130306931642000,-2.37,-8.62,-4.48,1
19,130306971590000,1.23,-8.27,-6.13,1
19,130307051668000,4.37,-1.73,-0.72,1
19,130307091493000,1.12,-4.44,2.56,1
19,130307131685000,-4.75,-4.29,1.95,1
19,130307171663000,-12.03,-5.43,-6.05,1
19,130307211610000,-19.23,19.34,3.57,1
19,130307371492000,-9.15,19.34,3.57,1
19,130307371492000,-9.15,19.34,3.57,1
19,130307371492000,-9.15,19.34,3.57,1
19,130307411623000,7.4,18.73,11.56,1
19,130307491609000,-1.57,1.46,-5.01,1
19,130307531679000,-17.27,16.17,-0.89,1
19,130307571779000,-19.23,7.21,-0.19,1
19,130307611726000,-8.35,-6.93,-4.99,1
19,130307691469000,-6.89,-11.33,-5.71,1
19,130307731599000,-2.79,-12.3,-6.59,1
19,130307771638000,3.83,-13.78,-10.92,1
19,130307851625000,-0.31,-2.75,6.32,1
19,130307893709000,-9.3,-0.95,11.54,1
19,130307932008000,0.72,-3.36,-2.26,1
19,130307971773000,-11.5,-8.69,-6.7,1
19,130308051698000,-17.77,2.26,-3.6,1
19,130308091493000,-10.5,10.38,0.34,1
19,130308131654000,-14.98,15.98,3.6,1
19,130308171754000,-5.41,16.4,-1.5,1
19,130308251619000,2.26,3.34,3.6,1
19,130308293367000,-11.07,9.23,-10.19,1
19,130308331850000,-19.23,14.79,6.78,1
19,130308371767000,-17.88,-2.68,-1.42,1
19,130308411531000,-8.43,-4.71,-4.25,1
19,130308491640000,-4.02,-12.22,-10.88,1
19,130308531709000,2.45,-10.88,-18.5,1
19,130308571626000,5.98,-2.72,-9.81,1
19,130308651643000,-8.43,-8.92,11.45,1
19,130308691591000,2.49,-5.05,-3.64,1
19,130308691591000,2.49,-5.05,-3.64,1
19,130308791536000,-19.23,-7.78,-3.76,1
19,130308841646000,-19.23,11.69,-3.6,1
19,130308882753000,-18.2,18.5,5.6,1
19,130308921510000,-5.05,14.94,-4.67,1
19,130309002016000,6.66,6.66,7.89,1
19,130309041505000,0.08,2.68,-3.6,1
19,130309081667000,-15.94,15.47,-5.52,1
19,130309121675000,-19.23,10.08,1.18,1
19,130309201662000,-9.34,-6.36,-5.98,1
19,130309241518000,-5.9,-10.27,-5.9,1
19,130309281526000,-0.08,-8.73,-7.31,1
19,130309321657000,3.83,-7.25,-11.6,1
19,130309361665000,4.86,-3.68,-8.08,1
19,130309441621000,-6.97,-7.35,11.14,1
19,130309481630000,-1.95,-3.17,-0.34,1
19,130309521638000,-11.92,-8.08,-7.5,1
19,130309561678000,-19.23,-0.84,-6.63,1
19,130309643159000,-15.85,8.66,-5.33,1
19,130309681490000,-15.66,16.97,1.88,1
19,130309721620000,-10.0,19.42,6.47,1
19,130309801759000,7.08,4.79,6.66,1
19,130309841646000,-0.93,2.53,-4.21,1
19,130309881685000,-15.79,14.44,-5.98,1
19,130309921632000,-19.23,7.35,3.98,1
19,130310001680000,-6.17,-5.41,-4.21,1
19,130310041475000,-5.09,-10.04,-5.67,1
19,130310081483000,-0.08,-7.86,-8.35,1
19,130310121675000,2.3,-4.75,-9.7,1
19,130310161501000,2.3,-1.42,-3.64,1
19,130310241670000,-0.34,-6.36,5.63,1
19,130310281648000,-0.89,-3.21,-4.6,1
19,130310321657000,-16.51,-8.27,-10.0,1
19,130310401491000,-13.33,4.1,-7.86,1
19,130310442323000,-8.43,13.44,5.41,1
19,130310481691000,-12.26,17.12,-3.38,1
19,130310521516000,0.04,15.7,-2.34,1
19,130310601503000,2.18,2.15,1.38,1
19,130310641634000,-12.37,11.69,-6.66,1
19,130310681673000,-19.23,12.07,2.14,1
19,130310721498000,-17.39,-2.75,0.99,1
19,130310761629000,-5.56,-9.72,-2.91,1
19,130310841493000,0.27,-7.35,-3.91,1
19,130310881471000,2.22,-6.97,-4.63,1
19,130310921541000,2.45,-4.1,-3.34,1
19,130311001802000,-0.95,-3.15,3.98,1
19,130311041841000,-4.67,-2.22,-1.08,1
19,130311081636000,-16.82,-10.11,-6.78,1
19,130311121614000,-19.23,-5.18,-2.03,1
19,130311161653000,-12.03,9.62,-1.92,1
19,130311241640000,-14.63,18.5,4.37,1
19,130311281465000,1.27,15.98,-2.34,1
19,130311321657000,12.53,13.4,4.67,1
19,130311401643000,-11.18,11.41,-6.55,1
19,130311441499000,-19.23,12.18,6.89,1
19,130311481508000,-16.47,0.46,0.57,1
19,130311521669000,-5.86,-4.37,1.65,1
19,130311601472000,-0.19,-5.6,-2.22,1
19,130311641634000,2.72,-5.24,-2.15,1
19,130311681642000,1.73,-2.14,-0.93,1
19,130311721529000,0.69,-1.92,0.08,1
19,130311761507000,-8.2,-7.25,-2.41,1
19,130311841585000,-19.19,-6.7,-0.46,1
19,130311881502000,-19.23,-1.65,-5.18,1
19,130311921724000,-19.23,6.05,-3.95,1
19,130312001710000,-14.52,18.85,4.37,1
19,130312041627000,-5.28,15.55,0.34,1
19,130312081514000,12.79,18.81,10.61,1
19,130312121767000,5.33,4.86,3.53,1
19,130312161531000,-2.07,2.45,-6.4,1
19,130312241640000,-19.23,1.27,6.51,1
19,130312281496000,-11.65,-4.48,3.41,1
19,130312321626000,-3.72,-9.81,4.67,1
19,130312401704000,1.53,-3.91,-2.15,1
19,130312441682000,3.45,-3.21,-2.87,1
19,130312481691000,1.65,-0.61,-0.53,1
19,130312521516000,0.27,-1.73,0.46,1
19,130312561708000,-6.85,-7.63,0.27,1
19,130312641695000,-19.23,-5.79,-4.71,1
19,130312681490000,-19.23,1.92,-4.48,1
19,130312723299000,-19.23,8.81,-6.05,1
19,130312761690000,-16.59,13.99,-2.15,1
19,130312841524000,6.63,19.19,9.72,1
19,130312881471000,6.74,6.05,4.71,1
19,130312923158000,-2.26,0.89,-2.87,1
19,130312961732000,-16.32,14.02,-4.52,1
19,130313041414000,-13.44,0.95,-0.42,1
19,130313081544000,-5.22,-2.79,-2.11,1
19,130313121522000,-6.36,-6.36,-3.02,1
19,130313201540000,3.41,-4.29,-5.37,1
19,130313241518000,2.11,-1.53,-3.21,1
19,130313281679000,1.27,-0.3,-0.42,1
19,130313321687000,-1.57,-3.26,1.27,1
19,130313401735000,-19.11,-7.08,-1.5,1
19,130313441591000,-19.23,0.08,-6.28,1
19,130313481721000,-19.19,5.41,-3.57,1
19,130313521516000,-17.39,13.87,-2.53,1
19,130313561678000,-11.22,18.96,0.3,1
19,130313641664000,9.62,8.66,6.82,1
19,130313681703000,-3.02,0.42,-3.49,1
19,130313730440000,-17.54,14.37,-4.75,1
19,130313771333000,-19.23,2.6,0.27,1
19,130313811342000,-10.53,0.57,-4.44,1
19,130313891481000,-4.71,-7.7,-3.38,1
19,130313931581000,-0.34,-5.79,-3.57,1
19,130313971620000,2.49,-4.94,-5.01,1
19,130314051729000,2.75,-7.44,7.82,1
19,130314091524000,-1.5,-3.76,3.15,1
19,130314131685000,-1.18,-1.53,-3.53,1
19,130314174257000,-17.01,-7.25,-9.28,1
19,130314251588000,-13.53,3.21,-5.24,1
19,130314291475000,-11.41,10.88,2.98,1
19,130314331636000,-12.34,16.17,-0.46,1
19,130314371645000,3.72,17.82,1.08,1
19,130314491426000,-18.39,16.09,-1.31,1
19,130314531526000,-19.23,6.82,-2.26,1
19,130314531526000,-19.23,6.82,-2.26,1
19,130314571809000,-16.04,-3.72,-0.84,1
19,130314651491000,-4.21,-9.08,-4.86,1
19,130314691621000,1.27,-6.59,-6.51,1
19,130314731660000,2.98,-5.13,-8.69,1
19,130314771791000,2.96,-2.03,-3.64,1
19,130314851564000,-2.34,-6.85,8.31,1
19,130314891634000,-0.57,-2.6,-3.99,1
19,130314933046000,-14.41,-8.96,-9.81,1
19,130314971620000,-19.23,-7.27,-0.72,1
19,130315051546000,-13.25,10.38,-1.88,1
19,130315091646000,-16.28,18.39,3.79,1
19,130315139436000,1.23,18.5,-1.12,1
19,130315181673000,9.81,6.66,7.93,1
19,130315221498000,-3.64,2.79,-6.89,1
19,130315262697000,-18.2,15.75,2.11,1
19,130315341524000,-7.63,-0.34,-0.08,1
19,130315381502000,-4.67,-6.13,-1.46,1
19,130315421663000,-4.25,-6.82,-3.53,1
19,130315461671000,2.22,-3.83,-3.76,1
19,130315541536000,1.46,-1.31,-1.12,1
19,130315581483000,0.84,-3.41,-0.53,1
19,130315621522000,-5.63,-5.37,1.04,1
19,130315661745000,-16.47,-6.05,-2.6,1
19,130315741487000,-19.15,2.64,-3.57,1
19,130315781526000,-16.86,6.51,-3.91,1
19,130315821626000,-15.36,17.47,-2.11,1
19,130315903596000,11.73,18.58,6.09,1
19,130315941927000,6.51,3.3,5.63,1
19,130315981508000,-2.91,1.38,-4.52,1
19,130316021638000,-17.82,16.55,-0.27,1
19,130316066469000,-19.23,4.67,0.0,1
19,130316141664000,-5.6,-5.94,-2.3,1
19,130316181673000,-4.14,-7.44,-2.22,1
19,130316221590000,-0.8,-7.21,-2.64,1
19,130316301515000,0.8,-4.18,-0.95,1
19,130316341646000,1.99,-3.06,0.95,1
19,130316381593000,-2.53,-2.14,2.49,1
19,130316421663000,-6.74,-1.65,-0.8,1
19,130316501466000,-19.23,-2.45,-0.5,1
19,130316541536000,-17.35,3.34,-4.14,1
19,130316581514000,-13.44,10.5,-2.87,1
19,130316621614000,-13.82,18.92,3.87,1
19,130316701540000,12.37,9.51,9.58,1
19,130316741609000,-2.34,-0.89,-0.69,1
19,130316781618000,-14.9,10.5,-2.96,1
19,130316821626000,-19.23,11.69,3.68,1
19,130316901521000,-6.82,-2.49,-4.21,1
19,130316946291000,-6.32,-7.31,-3.87,1
19,130316983400000,-1.76,-6.66,-4.18,1
19,130317021486000,0.61,-5.67,-4.9,1
19,130317101595000,-0.23,-5.01,-0.11,1
19,130317141664000,-2.37,-4.14,2.79,1
19,130317181673000,-7.25,-2.03,-1.14,1
19,130317221620000,-18.92,-8.12,-2.18,1
19,130317301485000,-17.35,5.24,-5.41,1
19,130317341676000,-9.96,12.79,-3.17,1
19,130317381654000,-6.55,19.15,3.02,1
19,130317421693000,4.9,19.46,2.96,1
19,130317501497000,-4.82,1.46,-5.13,1
19,130317541627000,-18.58,13.95,0.72,1
19,130317581667000,-19.23,5.63,-2.41,1
19,130317621645000,-14.25,-1.14,-2.76,1
19,130317661623000,-5.43,-4.18,-3.3,1
19,130317741487000,-1.61,-6.89,-3.41,1
19,130317781526000,0.27,-7.25,-3.99,1
19,130317821626000,0.84,-4.02,-1.99,1
19,130317901491000,-2.07,-1.69,2.68,1
19,130317941621000,-6.82,-1.38,-0.76,1
19,130317981660000,-17.92,-7.63,-3.11,1
19,130318021638000,-19.19,0.57,-2.11,1
19,130318061525000,-11.99,3.41,-3.76,1
19,130318141664000,-7.01,19.61,1.73,1
19,130318181551000,7.59,19.42,0.95,1
19,130318221651000,7.44,5.67,6.82,1
19,130318265749000,-6.89,2.49,-6.47,1
19,130318341524000,-19.23,5.43,-1.42,1
19,130318381624000,-12.45,1.76,-3.99,1
19,130318421663000,-8.05,-4.25,-3.11,1
19,130318501466000,-0.53,-6.51,-3.79,1
19,130318541627000,1.46,-4.99,-3.49,1
19,130318581483000,1.65,-2.87,-1.5,1
19,130318621675000,1.88,-3.34,0.27,1
19,130318701479000,-6.36,-2.26,-1.5,1
19,130318741670000,-17.67,-8.5,-4.18,1
19,130318781526000,-19.23,-1.95,-0.84,1
19,130318821474000,-17.86,3.68,-6.13,1
19,130318861909000,-14.14,14.25,-5.13,1
19,130318941469000,3.72,19.76,6.66,1
19,130318981508000,10.5,11.3,10.99,1
19,130319021516000,-1.04,1.5,-3.68,1
19,130319061616000,-15.85,13.63,-6.93,1
19,130319141664000,-13.06,-3.45,2.41,1
19,130319181551000,-4.94,-2.96,-2.56,1
19,130319221498000,-5.52,-8.01,-1.92,1
19,130319301485000,0.99,-5.82,-2.22,1
19,130319341676000,1.69,-3.6,-1.73,1
19,130319381624000,0.95,-3.79,-1.04,1
19,130319421480000,-4.25,-3.72,1.42,1
19,130319461641000,-10.99,-2.96,0.8,1
19,130319503511000,-19.19,-7.55,-2.37,1
19,130319601472000,-14.56,10.08,-4.21,1
19,130319641664000,-10.34,17.97,4.86,1
19,130319681642000,-1.8,17.97,-3.6,1
19,130319721651000,14.44,15.4,5.43,1
19,130319761659000,-11.96,6.55,-7.27,1
19,130319841524000,-19.23,14.41,5.09,1
19,130319881502000,-19.15,1.88,-2.22,1
19,130319921510000,-10.69,-0.76,-4.25,1
19,130319962984000,-7.82,-6.36,-2.98,1
19,130320041475000,0.5,-6.13,-4.37,1
19,130320081514000,0.5,-5.94,-5.13,1
19,130320121522000,1.57,-3.53,-1.42,1
19,130320201692000,-1.88,-1.61,0.76,1
19,130320241640000,-9.11,-3.45,-4.4,1
19,130320281618000,-19.23,-8.27,-2.22,1
19,130320321687000,-18.89,0.72,-3.38,1
19,130320401674000,-15.02,19.23,4.1,1
19,130320441988000,-0.19,19.72,-1.27,1
19,130320482637000,14.25,13.06,10.53,1
19,130320521638000,-0.65,1.65,-2.98,1
19,130320561678000,-15.13,11.26,-5.33,1
19,130320643648000,-15.09,-1.42,-0.93,1
19,130320681642000,-4.82,-3.76,-3.11,1
19,130320721498000,-2.98,-7.12,-3.87,1
19,130320801637000,0.84,-8.2,-7.63,1
19,130320841646000,1.18,-4.06,-3.17,1
19,130320881471000,0.34,-5.71,-0.72,1
19,130320921480000,-1.27,-2.18,1.95,1
19,130320961641000,-6.47,-1.53,0.15,1
19,130321043001000,-19.19,0.23,-3.64,1
19,130321081636000,-15.75,4.63,-7.67,1
19,130321121645000,-12.15,16.28,-1.84,1
19,130321161623000,-6.82,18.96,1.08,1
19,130321241487000,4.44,3.34,5.37,1
19,130321281618000,-9.51,5.63,-8.58,1
19,130321321474000,-19.23,16.86,3.57,1
19,130321401491000,-10.04,-2.87,-3.64,1
19,130321441499000,-6.21,-7.78,-3.76,1
19,130321481508000,-3.38,-8.96,-4.4,1
19,130321521486000,-1.04,-9.3,-5.37,1
19,130321601595000,2.64,-6.24,-2.34,1
19,130321721437000,-3.79,-0.42,-1.46,1
19,130321721437000,-3.79,-0.42,-1.46,1
19,130321721437000,-3.79,-0.42,-1.46,1
19,130321801546000,-19.23,-5.6,0.23,1
19,130321841493000,-16.51,5.63,-8.31,1
19,130321881624000,-12.95,17.88,4.44,1
19,130321921632000,-7.97,19.61,-0.65,1
19,130322001619000,10.38,8.2,8.01,1
19,130322041627000,1.08,0.5,-1.46,1
19,130322091707000,-16.32,15.13,-1.12,1
19,130322134553000,-19.23,7.7,3.11,1
19,130322172945000,-15.6,-3.06,-0.04,1
19,130322251466000,-5.33,-7.78,-3.21,1
19,130322291597000,-0.42,-4.59,-2.64,1
19,130322331514000,2.91,-3.06,-3.45,1
19,130322371614000,2.83,-2.64,-3.68,1
19,130322451509000,1.14,-3.53,0.5,1
19,130322491487000,-2.07,-4.56,1.14,1
19,130322535127000,-12.6,-6.47,-3.02,1
19,130322572084000,-19.23,-9.47,-2.96,1
19,130322651521000,-19.23,6.89,-6.21,1
19,130322691591000,-17.88,14.25,-2.11,1
19,130322731660000,-12.68,19.23,4.18,1
19,130322771669000,12.26,19.23,5.52,1
19,130322851625000,-3.26,0.95,-4.06,1
19,130322891664000,-17.62,14.63,-3.02,1
19,130322931642000,-19.23,3.15,3.02,1
19,130322971620000,-14.71,-0.8,-1.18,1
19,130323051729000,-5.43,-7.12,-2.83,1
19,130323091615000,0.08,-6.05,-3.38,1
19,130323131654000,1.99,-3.53,-2.53,1
19,130323171632000,1.53,-1.31,-0.99,1
19,130323251558000,-4.37,-4.71,0.19,1
19,130323291841000,-13.4,-5.82,-5.28,1
19,130323331667000,-19.23,-8.92,-3.68,1
19,130323371584000,-19.19,1.84,-2.96,1
19,130323411501000,-16.82,15.98,3.76,1
19,130323491640000,-6.02,17.82,-0.5,1
19,130323531618000,11.22,18.01,2.37,1
19,130323571718000,7.08,0.99,7.25,1
19,130323611665000,-4.37,2.34,-7.16,1
19,130323694337000,-19.15,2.03,0.46,1
19,130323731477000,-9.72,-0.57,-2.18,1
19,130323771761000,-5.52,-5.94,-2.11,1
19,130323851595000,1.27,-5.28,-2.3,1
19,130323891603000,1.99,-3.06,-0.95,1
19,130323931520000,1.5,-3.26,0.15,1
19,130323971590000,-1.73,-4.06,2.56,1
19,130324051607000,-15.55,-7.25,-3.26,1
19,130324091493000,-19.23,-4.48,-0.61,1
19,130324131502000,-16.97,3.15,-1.57,1
19,130324171785000,-14.06,8.73,-1.08,1
19,130324211610000,-13.25,16.74,5.43,1
19,130324291475000,13.59,15.13,4.63,1
19,130324331636000,-2.18,0.69,-1.38,1
19,130324371767000,-16.66,9.28,1.23,1
19,130324441896000,-19.08,2.15,-2.64,1
19,130324481752000,-10.73,-1.53,-3.91,1
19,130324521638000,-5.94,-5.94,-2.72,1
19,130324601656000,1.27,-5.28,-5.13,1
19,130324641573000,1.65,-4.48,-3.76,1
19,130324681673000,1.46,-4.75,-1.46,1
19,130324721498000,-0.95,-6.02,2.07,1
19,130324801637000,-11.65,-3.76,-2.76,1
19,130324841646000,-19.23,-8.31,-0.84,1
19,130324881593000,-19.23,0.84,-3.68,1
19,130324925447000,-14.6,6.78,-4.79,1
19,130324961671000,-10.5,19.72,4.21,1
19,130325041505000,8.2,15.79,8.85,1
19,130325081483000,-1.31,2.6,0.38,1
19,130325121675000,-16.32,10.65,-6.74,1
19,130325201509000,-18.2,-1.88,-4.25,1
19,130325241640000,-8.16,-4.14,-4.71,1
19,130325281526000,-3.72,-6.89,-3.26,1
19,130325321474000,-1.92,-7.59,-5.33,1
19,130325361513000,0.34,-4.82,-3.17,1
19,130325443086000,1.88,-5.18,1.8,1
19,130325481630000,-1.31,-2.34,4.48,1
19,130325521516000,-3.3,-1.38,-1.04,1
19,130325561708000,-14.71,-7.35,1.69,1
19,130325641573000,-17.2,0.38,-5.6,1
19,130325681490000,-9.38,6.55,-3.68,1
19,130325721590000,-10.57,17.05,-0.11,1
19,130325801485000,7.78,9.62,9.23,1
19,130325841646000,-3.15,1.46,-2.68,1
19,130325881654000,-17.27,13.4,-2.22,1
19,130325921632000,-19.23,5.67,0.65,1
19,130326001558000,-5.71,-4.56,-4.02,1
19,130326041505000,-4.25,-7.31,-4.56,1
19,130326081575000,-0.34,-5.98,-5.75,1
19,130326121492000,1.42,-3.76,-5.75,1
19,130326201570000,0.95,-3.34,0.04,1
19,130326241487000,0.04,-2.56,2.64,1
19,130326281465000,-5.56,-3.6,-1.65,1
19,130326321687000,-19.08,-7.01,-5.18,1
19,130326401643000,-13.76,4.99,-6.24,1
19,130326441682000,-9.51,14.82,3.11,1
19,130326481630000,-2.64,19.76,-1.8,1
19,130326521699000,11.41,13.53,7.5,1
19,130326601656000,-16.32,11.84,-4.79,1
19,130326641573000,-19.23,5.86,1.99,1
19,130326681703000,-16.78,-1.53,-2.98,1
19,130326731691000,-6.59,-4.9,-3.38,1
19,130326772035000,-5.18,-7.44,-3.38,1
19,130326811555000,-0.34,-5.41,-3.87,1
19,130326891481000,0.8,-2.14,-0.95,1
19,130326931673000,0.34,-8.5,8.62,1
19,130326971773000,-0.89,-3.17,-1.69,1
19,130327051607000,-19.19,-11.22,-3.91,1
19,130327092226000,-18.96,-0.84,-3.76,1
19,130327142488000,-15.4,8.28,-4.44,1
19,130327181673000,-15.75,18.7,4.71,1
19,130327221651000,-3.11,16.32,-1.46,1
19,130327261659000,10.95,19.31,5.98,1
19,130327341524000,-3.68,2.26,-5.01,1
19,130327381715000,-18.54,15.89,1.14,1
19,130327421632000,-19.23,1.69,0.8,1
19,130327501588000,-8.43,-7.59,-4.18,1
19,130327541505000,-5.75,-9.11,-3.76,1
19,130327581483000,-0.5,-7.7,-3.41,1
19,130327621675000,1.95,-8.62,-4.79,1
19,130327701509000,1.14,-4.99,5.86,1
19,130327741670000,-4.06,-0.99,5.94,1
19,130327781679000,-3.45,-2.18,-2.49,1
19,130327821626000,-16.89,-10.88,-5.86,1
19,130327901613000,-13.87,1.38,-4.6,1
19,130327941499000,-11.6,10.27,-1.95,1
19,130327981660000,-14.25,16.44,3.98,1
19,130328021516000,0.5,18.2,-1.38,1
19,130328101656000,-0.72,2.03,-2.64,1
19,130328141634000,-14.44,11.22,-4.48,1
19,130328181551000,-19.23,11.54,5.63,1
19,130328221651000,-12.57,0.99,2.83,1
19,130328301607000,-3.83,-6.74,-3.57,1
19,130328341554000,-0.38,-6.32,-4.48,1
19,130328381563000,1.57,-4.44,-4.1,1
19,130328421510000,0.61,-2.56,-1.8,1
19,130328461641000,0.69,-2.22,-1.14,1
19,130328541627000,-11.54,-4.29,-0.84,1
19,130328581636000,-19.19,-7.59,-3.21,1
19,130328621522000,-19.23,2.22,-0.8,1
19,130328701631000,-17.39,16.55,-0.23,1
19,130328741640000,-8.58,16.74,3.53,1
19,130328781465000,-19.23,11.26,5.05,1
19,130328923097000,-19.23,11.26,5.05,1
19,130328923097000,-19.23,11.26,5.05,1
19,130328923097000,-19.23,11.26,5.05,1
19,130328962007000,-18.16,-5.13,1.38,1
19,130329041475000,-5.63,-7.08,-1.23,1
19,130329081636000,-2.41,-6.28,-2.91,1
19,130329121492000,1.73,-5.18,-3.41,1
19,130329161684000,1.88,-2.26,-1.31,1
19,130329241640000,-4.9,-3.87,6.36,1
19,130329281618000,-5.18,-3.6,-2.56,1
19,130329321657000,-17.47,-10.57,-4.6,1
19,130329401704000,-17.47,3.64,-1.33,1
19,130329441621000,-14.9,9.19,0.46,1
19,130329481752000,-12.64,13.63,4.06,1
19,130329521669000,0.42,13.82,-5.01,1
19,130329601625000,-5.48,1.12,-3.26,1
19,130329641634000,-18.47,12.95,0.5,1
19,130329681734000,-19.23,4.99,-1.92,1
19,130329721590000,-14.41,0.57,-3.45,1
19,130329801515000,-2.45,-6.59,-5.33,1
19,130329841493000,0.42,-7.12,-8.43,1
19,130329881593000,0.5,-4.33,-5.33,1
19,130329921480000,2.18,-3.34,-3.15,1
19,130329961580000,0.91,-4.9,-0.38,1
19,130330014925000,-1.31,-4.67,-6.85,1
19,130330091615000,-19.23,-5.41,-2.72,1
19,130330131502000,-18.39,2.45,-4.67,1
19,130330173494000,-14.02,9.15,-6.74,1
19,130330251497000,3.17,19.76,1.31,1
19,130330291444000,10.31,10.8,8.01,1
19,130330331667000,-0.19,1.65,-2.15,1
19,130330371645000,-15.28,13.76,-5.75,1
19,130330411684000,-19.23,1.14,-1.61,1
19,130330491457000,-4.6,-3.34,-1.12,1
19,130330531435000,-3.45,-5.9,-3.11,1
19,130330571626000,-0.31,-5.2,-3.26,1
19,130330651521000,1.42,-3.64,-2.6,1
19,130330691408000,0.46,-3.91,-0.27,1
19,130330731477000,-3.45,-6.13,0.95,1
19,130330771455000,-6.82,-4.25,-0.61,1
19,130330811708000,-18.31,-7.55,-3.79,1
19,130330891511000,-19.11,5.6,-4.82,1
19,130330931673000,-15.51,13.53,-3.87,1
19,130330971620000,-9.0,19.7,4.14,1
19,130331011537000,8.12,19.76,3.34,1
19,130331101503000,-6.17,2.6,-5.86,1
19,130331141634000,-19.19,15.4,-0.5,1
19,130331181642000,-19.23,1.12,-1.61,1
19,130331221498000,-14.86,-1.65,-4.18,1
19,130331301668000,-3.87,-8.31,-2.6,1
19,130331341920000,0.57,-6.85,-3.15,1
19,130331381593000,1.8,-4.59,-1.92,1
19,130331421510000,1.73,-2.98,-0.46,1
19,130331501436000,-7.55,-3.11,-0.15,1
19,130331541505000,-8.58,-4.1,-2.68,1
19,130331581575000,-18.81,-9.23,-3.87,1
19,130331621675000,-19.23,-1.65,-1.88,1
19,130331701631000,-13.91,14.14,-2.68,1
19,130331741640000,-8.16,19.23,6.28,1
19,130331781557000,5.52,18.77,9.66,1
19,130331821626000,5.43,6.32,4.63,1
19,130331901674000,-18.66,15.51,1.46,1
19,130331941621000,-19.23,2.91,-2.98,1
19,130331981630000,-11.35,0.19,-4.18,1
19,130332022829000,-5.24,-4.37,-3.76,1
19,130332061739000,-2.6,-6.05,-4.06,1
19,130332141481000,1.61,-3.49,-6.85,1
19,130332181612000,1.92,-2.14,-4.6,1
19,130332221651000,1.12,-4.29,-0.93,1
19,130332301485000,-8.05,-3.72,-0.5,1
19,130332341493000,-19.19,-7.35,-4.56,1
19,130332381715000,-19.23,1.38,-3.06,1
19,130332421510000,-18.96,5.41,-7.35,1
19,130332501619000,-5.28,19.5,2.72,1
19,130332541505000,13.48,18.62,6.7,1
19,130332581758000,6.36,4.25,5.05,1
19,130332621645000,-7.08,4.86,-8.92,1
19,130332661684000,-19.23,15.05,2.49,1
19,130332741518000,-6.66,-2.11,2.03,1
19,130332781557000,-1.14,-7.08,-0.38,1
19,130332821474000,-0.23,-5.52,-4.06,1
19,130332861543000,1.84,-4.71,-5.05,1
19,130332941499000,1.99,-1.5,-1.65,1
19,130332981599000,0.34,-4.33,-1.23,1
19,130333021547000,-4.52,-7.93,0.19,1
19,130333101503000,-19.23,-7.7,-4.67,1
19,130333141634000,-19.23,2.64,-4.44,1
19,130333181642000,-18.31,7.31,-6.47,1
19,130333221498000,-12.6,15.75,-4.63,1
19,130333261537000,-4.82,19.7,2.56,1
19,130333341737000,3.76,4.33,2.34,1
19,130333381837000,-9.77,4.71,-8.01,1
19,130333421632000,-19.23,14.63,3.53,1
19,130333461671000,-19.15,-0.69,-0.84,1
19,130333541536000,-6.36,-5.6,-1.92,1
19,130333581605000,-3.49,-7.35,-2.49,1
19,130333621675000,0.65,-6.02,-2.68,1
19,130333701692000,1.42,-2.75,-0.89,1
19,130333744295000,-1.5,-4.14,2.3,1
19,130333781496000,-4.79,-2.79,0.84,1
19,130333823427000,-15.21,-7.01,-3.17,1
19,130333861543000,-19.23,-5.71,-2.6,1
19,130333951479000,-14.9,9.89,-3.26,1
19,130333991426000,-14.37,17.12,5.56,1
19,130334033083000,1.88,16.7,-2.72,1
19,130334073183000,13.67,11.8,9.49,1
19,130334111543000,-0.53,1.65,-1.88,1
19,130334191377000,-19.23,6.51,1.31,1
19,130334231508000,-17.73,-1.61,-2.26,1
19,130334271669000,-7.89,-3.34,-4.94,1
19,130334351503000,-2.45,-7.55,-2.98,1
19,130334391481000,0.3,-6.32,-2.91,1
19,130334431642000,1.18,-5.33,-2.79,1
19,130334471437000,1.46,-5.75,-0.42,1
19,130334551546000,-5.13,-1.08,0.23,1
19,130334591585000,-14.82,-7.5,-3.6,1
19,130334631624000,-19.23,-7.08,-1.14,1
19,130334671632000,-19.04,1.95,-5.79,1
19,130334711549000,-15.55,10.08,-5.13,1
19,130334751588000,2.03,19.76,11.5,1
19,130334841646000,5.43,8.54,12.37,1
19,130334881746000,-3.45,0.65,-2.96,1
19,130334921632000,-17.24,13.59,-4.99,1
19,130335001833000,-18.62,-4.71,-0.99,1
19,130335044221000,-8.43,-5.13,-3.76,1
19,130335081544000,-4.25,-7.01,-3.15,1
19,130335121858000,-0.93,-5.82,-2.45,1
19,130335201692000,1.18,-5.33,-2.41,1
19,130335241640000,1.8,-4.02,-0.95,1
19,130335281587000,-0.89,-2.87,1.76,1
19,130335321504000,-4.82,-1.84,0.57,1
19,130335401704000,-19.23,-9.38,-1.57,1
19,130335449709000,-19.23,1.99,-7.74,1
19,130335491609000,-16.78,17.24,-3.34,1
19,130335531496000,-9.08,19.72,5.52,1
19,130335571596000,3.98,18.2,1.53,1
19,130335611696000,-2.68,2.68,-6.7,1
19,130335691591000,-17.24,15.94,3.3,1
19,130335731630000,-19.23,5.09,-1.08,1
19,130335771577000,-14.33,-3.76,-0.89,1
19,130335851625000,-1.8,-6.09,-2.37,1
19,130335891481000,-0.04,-6.63,-3.6,1
19,130335931490000,0.89,-7.21,-5.24,1
19,130336051363000,-0.84,-2.49,1.18,1
19,130336051363000,-0.84,-2.49,1.18,1
19,130336091524000,-4.94,-3.3,-0.11,1
19,130336133363000,-18.92,-8.69,-1.8,1
19,130336172029000,-19.23,-0.89,-5.33,1
19,130336251680000,-13.95,17.35,4.37,1
19,130336291597000,-2.53,19.27,-4.75,1
19,130336331514000,7.86,16.97,3.26,1
19,130336371645000,3.68,5.33,0.53,1
19,130336451509000,-19.23,13.95,2.6,1
19,130336491609000,-19.19,-1.33,-2.15,1
19,130336531496000,-10.46,-2.3,-3.6,1
19,130336571474000,-5.83,-5.86,-2.87,1
19,130336651979000,-1.04,-7.65,-3.76,1
19,130336691469000,0.04,-8.27,-4.21,1
19,130336731630000,0.61,-4.86,-2.37,1
19,130336771486000,-1.12,-4.94,0.42,1
19,130336851656000,-9.51,-2.68,0.27,1
19,130336893831000,-19.23,-8.35,-3.3,1
19,130336931490000,-19.23,0.99,-4.44,1
19,130336971620000,-13.82,8.5,-5.24,1
19,130337011629000,-7.89,19.23,2.49,1
19,130337092439000,10.19,14.63,8.39,1
19,130337131624000,1.08,2.64,-1.61,1
19,130337171632000,-15.05,12.49,-5.13,1
19,130337251497000,-16.47,-1.5,-1.99,1
19,130337291475000,-5.28,-1.99,-2.64,1
19,130337331636000,-3.99,-6.74,-4.06,1
19,130337371492000,-2.91,-8.66,-5.01,1
19,130337411653000,-0.99,-7.65,-6.13,1
19,130337491457000,3.21,-3.3,-0.11,1
19,130337531618000,-1.69,-1.31,6.09,1
19,130337571596000,-5.43,0.57,2.26,1
19,130337652162000,-19.23,-10.57,1.23,1
19,130337691469000,-18.54,-0.04,-7.01,1
19,130337731630000,-13.25,10.04,-3.11,1
19,130337771608000,-12.72,19.42,5.05,1
19,130337851503000,12.11,12.45,11.18,1
19,130337891481000,1.23,2.3,-1.42,1
19,130337932222000,-13.99,13.91,-7.4,1
19,130337971559000,-19.23,8.77,6.36,1
19,130338011507000,-15.51,-4.21,-0.89,1
19,130338091463000,-3.21,-7.82,-3.45,1
19,130338131715000,-0.84,-7.89,-4.29,1
19,130338171480000,0.19,-9.96,-7.59,1
19,130338251649000,0.95,-2.87,-0.61,1
19,130338291475000,-0.57,-2.49,2.87,1
19,130338331514000,-3.11,-0.72,0.84,1
19,130338371645000,-16.93,-7.46,-4.25,1
19,130338451540000,-15.55,2.76,-5.63,1
19,130338491670000,-7.46,14.98,3.36,1
19,130338531740000,-4.21,19.08,-5.98,1
19,130338571504000,6.21,16.4,0.0,1
19,130338611726000,5.41,5.94,3.21,1
19,130338691530000,-19.23,12.95,4.48,1
19,130338731508000,-18.7,-0.65,-2.79,1
19,130338771486000,-8.66,-1.99,-2.3,1
19,130338811555000,-5.24,-5.48,-3.6,1
19,130338891603000,-1.08,-9.49,-9.66,1
19,130338931520000,2.22,-7.46,-10.08,1
19,130338971468000,2.37,-2.96,-2.79,1
19,130339014253000,-0.95,-4.21,1.57,1
19,130339091646000,-13.21,-4.48,-4.86,1
19,130339132661000,-19.23,-7.31,-2.96,1
19,130339171449000,-18.96,2.22,-4.82,1
19,130339211641000,-13.14,9.51,-7.59,1
19,130339291566000,7.25,19.61,10.46,1
19,130339342256000,4.82,2.83,3.79,1
19,130339381624000,-5.41,5.13,-7.27,1
19,130339421724000,-19.23,15.85,-0.53,1
19,130339501466000,-9.0,-1.95,-2.07,1
19,130339541505000,-5.24,-6.63,-5.09,1
19,130339581758000,-4.37,-9.92,-4.29,1
19,130339621492000,-0.38,-7.08,-3.6,1
19,130339701479000,0.99,-4.82,-1.33,1
19,130339741670000,-1.12,-6.13,2.22,1
19,130339781709000,-2.64,-2.37,1.8,1
19,130339821596000,-10.65,-4.44,-2.68,1
19,130339861665000,-19.23,-11.69,-3.45,1
19,130339941652000,-12.83,9.43,-3.87,1
19,130339981752000,-10.53,18.12,2.53,1
19,130340021516000,-1.84,17.58,-3.53,1
19,130340021516000,-1.84,17.58,-3.53,1
19,130340123140000,1.18,2.07,-1.33,1
19,130340162233000,-12.68,13.76,-7.5,1
19,130340241609000,-10.34,-2.53,4.9,1
19,130340281587000,-2.45,-5.86,6.09,1
19,130340321626000,-2.6,-8.62,0.76,1
19,130340361665000,0.5,-7.7,-3.87,1
19,130340441469000,1.5,-2.96,-2.53,1
19,130340481508000,2.34,-2.83,-1.95,1
19,130340521669000,-2.3,-4.75,0.34,1
19,130340601930000,-18.47,-9.3,-3.45,1
19,130340644380000,-19.23,-0.65,-2.11,1
19,130340681490000,-19.11,6.17,-7.08,1
19,130340721620000,-15.83,17.82,4.02,1
19,130340761751000,-6.21,17.92,-3.95,1
19,130340811311000,8.92,18.28,4.79,1
19,130340891634000,-10.73,6.05,-7.82,1
19,130340931734000,-19.23,14.25,3.41,1
19,130340971620000,-19.23,-1.92,-2.07,1
19,130341051485000,-7.31,-7.74,-2.72,1
19,130341091554000,-2.56,-7.78,-3.06,1
19,130341131502000,1.04,-6.89,-2.98,1
19,130341171510000,0.99,-7.97,-4.44,1
19,130341211732000,2.98,-4.33,-2.6,1
19,130341291475000,-2.18,-1.69,1.76,1
19,130341331667000,-8.24,-3.3,-3.17,1
19,130341371645000,-19.23,-12.49,-3.02,1
19,130341451418000,-16.66,7.74,-7.63,1
19,130341491640000,-14.52,19.42,5.24,1
19,130341536897000,-5.01,19.76,-0.15,1
19,130341582094000,12.76,11.84,12.79,1
19,130341621645000,1.18,1.42,-3.11,1
19,130341701601000,-19.23,11.84,5.24,1
19,130341741670000,-17.54,-2.56,-2.03,1
19,130341781496000,-7.59,-3.72,-1.88,1
19,130341821504000,-4.02,-6.63,-3.6,1
19,130341901613000,-0.46,-10.84,-8.43,1
19,130341941469000,1.73,-6.4,-5.67,1
19,130341981508000,1.53,-4.4,-2.22,1
19,130342021516000,-1.8,-2.75,1.38,1
19,130342061555000,-6.44,-1.88,0.72,1
19,130342141603000,-19.23,0.34,-4.18,1
19,130342181642000,-17.54,10.42,-7.63,1
19,130342221529000,-10.92,19.15,3.6,1
19,130342301515000,5.18,16.89,4.67,1
19,130342341646000,7.93,11.07,4.25,1
19,130342381624000,1.14,2.53,-2.03,1
19,130342421632000,-14.56,15.4,-6.93,1
19,130342461732000,-19.23,8.05,4.37,1
19,130342541658000,-7.27,-4.86,-1.95,1
19,130342581483000,-4.14,-9.58,-3.95,1
19,130342621492000,0.5,-10.31,-4.67,1
19,130342701479000,3.15,-4.37,-3.91,1
19,130342741487000,0.46,-3.64,1.08,1
19,130342781496000,-1.65,-4.02,5.37,1
19,130342821626000,-5.05,-2.26,-2.6,1
19,130342901491000,-19.23,-3.76,1.23,1
19,130342941621000,-16.25,4.9,-9.23,1
19,130342981660000,-9.3,17.08,3.02,1
19,130343021608000,-6.51,19.5,0.19,1
19,130343101472000,8.66,4.52,8.05,1
19,130343221407000,-19.23,1.8,5.37,1
19,130343221407000,-19.23,1.8,5.37,1
19,130343221407000,-19.23,1.8,5.37,1
19,130343301607000,-5.05,-6.85,-2.96,1
19,130343341493000,-0.57,-7.89,-3.21,1
19,130343381715000,3.3,-6.89,-4.94,1
19,130343421602000,3.26,-5.79,-4.99,1
19,130343461549000,3.02,-3.72,-2.22,1
19,130343541597000,-2.3,-3.26,1.38,1
19,130343584779000,-11.56,-5.52,-3.53,1
19,130343621522000,-19.23,-9.43,-3.91,1
19,130343662416000,-19.23,2.11,-5.98,1
19,130343741609000,-13.48,19.46,3.49,1
19,130343781618000,-4.02,19.65,0.08,1
19,130343821504000,11.69,15.09,12.91,1
19,130343861665000,-0.11,11.35,-7.12,1
19,130343941621000,-19.23,11.84,1.38,1
19,130343981630000,-18.81,-5.63,-1.76,1
19,130344021486000,-8.54,-7.21,-4.6,1
19,130344101472000,0.15,-8.43,-4.44,1
19,130344141664000,2.14,-8.85,-6.17,1
19,130344181642000,4.1,-3.95,-3.06,1
19,130344221498000,4.59,-3.17,4.48,1
19,130344261659000,-1.65,-2.37,-2.26,1
19,130344341768000,-13.63,-10.38,-9.72,1
19,130344391634000,-19.23,-6.97,1.18,1
19,130344438051000,-17.69,6.13,-8.81,1
19,130344482210000,-16.86,19.46,5.18,1
19,130344521638000,-6.13,19.0,-1.46,1
19,130344605318000,3.45,2.49,3.26,1
19,130344642427000,-9.15,4.1,-9.72,1
19,130344681673000,-19.23,15.4,2.64,1
19,130344721468000,-18.31,-2.07,-1.95,1
19,130344801515000,-4.63,-8.2,-4.33,1
19,130344841493000,-2.53,-8.43,-3.72,1
19,130344881654000,1.76,-8.24,-7.27,1
19,130344921632000,1.14,-6.13,-6.44,1
19,130344961671000,3.64,-4.14,3.02,1
19,130345041597000,-1.65,-3.17,1.23,1
19,130345081514000,-10.61,-5.52,-6.13,1
19,130345123750000,-19.23,-11.6,-1.14,1
19,130345161317000,-19.23,-0.57,-5.83,1
19,130345241640000,-15.7,19.23,4.82,1
19,130345293459000,-2.34,19.23,-2.26,1
19,130345331605000,12.34,10.88,13.21,1
19,130345371645000,0.53,0.0,-1.95,1
19,130345411775000,-12.87,9.62,-9.04,1
19,130345491487000,-14.86,-4.1,3.95,1
19,130345531465000,-6.17,-4.59,-1.04,1
19,130345571657000,-4.94,-9.7,-1.8,1
19,130345651704000,2.3,-8.27,-4.02,1
19,130345691530000,2.79,-4.21,-3.34,1
19,130345731599000,1.92,-3.6,-0.46,1
19,130345771638000,2.18,-4.29,1.57,1
19,130345851717000,-18.73,-11.26,-3.6,1
19,130345891511000,-19.23,-4.06,-3.26,1
19,130345937074000,-16.28,6.36,-5.05,1
19,130345976289000,-10.61,17.77,3.02,1
19,130346014650000,-1.27,17.27,-4.79,1
19,130346091676000,7.7,8.43,4.18,1
19,130346131868000,-6.21,5.94,-6.89,1
19,130346176149000,-19.23,15.32,4.4,1
19,130346214784000,-19.23,-0.5,-1.5,1
19,130346291475000,-6.05,-6.43,-3.34,1
19,130346331636000,-3.3,-8.2,-2.53,1
19,130346371553000,0.84,-8.01,-3.11,1
19,130346451540000,2.56,-3.87,-1.92,1
19,130346491640000,0.57,-4.44,0.57,1
19,130346531587000,-3.11,-2.91,2.45,1
19,130346571657000,-7.93,-2.91,-2.26,1
19,130346651521000,-19.23,-1.33,-3.38,1
19,130346691652000,-14.71,7.08,-6.32,1
19,130346731630000,-11.6,19.46,3.72,1
19,130346771669000,-0.89,19.76,-2.87,1
19,130346851656000,2.6,0.95,0.11,1
19,130346891664000,-10.27,10.73,-6.85,1
19,130346932252000,-19.23,12.49,7.25,1
19,130346971651000,-15.28,-0.42,2.64,1
19,130347051485000,-4.67,-8.24,-3.76,1
19,130347091524000,0.11,-7.74,-3.68,1
19,130347131593000,2.56,-7.82,-4.6,1
19,130347171510000,2.18,-5.28,-3.64,1
19,130347251649000,-1.84,-7.16,3.3,1
19,130347291475000,-5.05,-2.79,-0.57,1
19,130347331544000,-15.94,-6.28,-6.02,1
19,130347371522000,-19.23,-4.25,0.04,1
19,130347451631000,-11.14,13.1,-3.3,1
19,130347491487000,-10.27,19.76,3.41,1
19,130347531618000,6.55,19.76,6.59,1
19,130347571626000,7.16,8.31,7.89,1
19,130347611787000,-6.97,4.9,-7.97,1
19,130347692964000,-19.23,-1.23,-1.38,1
19,130347731477000,-12.6,-3.64,-2.56,1
19,130347771638000,-5.48,-6.78,-4.1,1
19,130347851442000,-1.46,-9.81,-7.74,1
19,130347891664000,3.17,-9.85,-10.61,1
19,130347931520000,4.25,-2.75,-2.56,1
19,130347971468000,-0.69,-2.37,7.35,1
19,130348051485000,-2.87,-2.75,-3.06,1
19,130348091646000,-17.97,-13.53,-5.05,1
19,130348131410000,-19.23,-5.94,0.19,1
19,130348171632000,-14.94,4.44,-3.95,1
19,130348251436000,-9.89,19.38,0.34,1
19,130348292238000,10.0,18.01,7.16,1
19,130348331667000,3.21,2.76,2.37,1
19,130348372896000,-12.83,8.24,-8.08,1
19,130348451570000,-17.97,-0.38,-0.08,1
19,130348491518000,-8.39,-3.68,-3.91,1
19,130348531587000,-5.24,-7.63,-3.6,1
19,130348571474000,-0.34,-7.35,-5.67,1
19,130348651491000,0.84,-5.09,-6.05,1
19,130348691469000,1.5,-5.63,-1.38,1
19,130348731599000,-0.08,-1.69,5.09,1
19,130348771761000,-4.18,-1.5,-1.23,1
19,130348813478000,-18.05,-6.4,-5.71,1
19,130348891481000,-18.47,5.79,-10.34,1
19,130348931642000,-14.6,16.44,4.4,1
19,130348971895000,-6.21,19.7,-1.76,1
19,130349011598000,12.98,19.08,7.93,1
19,130349094057000,-8.01,3.83,-6.66,1
19,130349131502000,-19.15,15.47,2.45,1
19,130349171449000,-19.23,1.65,-0.8,1
19,130349251527000,-6.93,-6.55,-3.91,1
19,130349291475000,-3.68,-8.58,-3.57,1
19,130349331636000,0.11,-6.66,-3.53,1
19,130349371553000,2.11,-6.4,-3.64,1
19,130349451662000,-0.23,-3.17,7.97,1
19,130349491670000,-1.23,-2.83,0.99,1
19,130349531648000,-4.63,-4.67,-4.67,1
19,130349571657000,-19.23,-13.29,-4.63,1
19,130349651704000,-16.4,5.37,-4.29,1
19,130349691652000,-18.09,13.91,0.5,1
19,130349731630000,-12.37,17.27,3.68,1
19,130349771516000,10.46,19.5,6.32,1
19,130349851472000,-7.01,2.34,-7.16,1
19,130349891634000,-19.08,16.66,0.3,1
19,130349931490000,-19.23,3.79,-3.57,1
19,130349971651000,-14.6,-2.98,-3.38,1
19,130350051515000,-2.87,-8.92,-4.9,1
19,130350091493000,1.84,-6.4,-6.13,1
19,130350131502000,0.69,-4.86,-4.29,1
19,130350171846000,2.72,-3.64,1.88,1
19,130350211793000,1.27,-7.46,3.49,1
19,130350291627000,-7.06,-3.72,-3.83,1
19,130350331636000,-19.19,16.44,1.31,1
19,130350491487000,-10.84,19.76,4.1,1
19,130350491487000,-10.84,19.76,4.1,1
19,130350491487000,-10.84,19.76,4.1,1
19,130350531618000,10.15,18.96,10.8,1
19,130350571626000,1.23,3.64,5.37,1
19,130350651643000,-19.23,15.09,1.61,1
19,130350692079000,-19.23,-3.45,-3.06,1
19,130350731599000,-11.45,-5.75,-4.37,1
19,130350771608000,-3.68,-7.12,-4.99,1
19,130350851625000,0.76,-6.02,-9.89,1
19,130350891511000,3.45,-2.34,-6.66,1
19,130350931490000,4.4,-4.56,5.43,1
19,130350971620000,-0.31,-6.66,10.19,1
19,130351051637000,-7.78,-7.5,-13.95,1
19,130351091646000,-19.23,-8.47,0.69,1
19,130351131593000,-17.54,4.56,-8.12,1
19,130351171846000,-8.96,11.22,3.34,1
19,130351211519000,2.79,19.76,1.46,1
19,130351291597000,5.79,9.85,9.66,1
19,130351331605000,-10.0,4.63,-10.04,1
19,130351371675000,-19.23,15.51,-0.23,1
19,130351451509000,-13.76,-4.59,-4.86,1
19,130351491518000,-5.56,-5.75,-5.98,1
19,130351531435000,-0.04,-5.01,-8.81,1
19,130351571626000,1.27,-1.53,-10.69,1
19,130351651582000,2.91,-1.5,-0.08,1
19,130351691621000,3.41,-8.47,9.47,1
19,130351731477000,0.57,-2.64,1.18,1
19,130351771638000,0.19,-3.79,-4.94,1
19,130351851656000,-19.23,-1.5,-1.95,1
19,130351891511000,-15.6,6.4,-6.63,1
19,130351931642000,-12.49,16.21,2.6,1
19,130351972261000,-9.3,18.85,1.27,1
19,130352011598000,10.53,19.38,7.55,1
19,130352091646000,-9.85,6.17,-11.22,1
19,130352131593000,-19.23,15.05,-0.27,1
19,130352172487000,-19.0,-4.06,-2.79,1
19,130352251466000,-4.67,-7.31,-4.14,1
19,130352291475000,-1.76,-6.97,-5.24,1
19,130352331605000,0.8,-6.05,-10.23,1
19,130352371522000,1.33,-3.02,-8.43,1
19,130352451631000,1.42,-5.09,3.95,1
19,130352491609000,-2.37,-2.98,3.68,1
19,130352531587000,-6.13,-3.68,-5.56,1
19,130352571626000,-19.15,-8.54,-7.08,1
19,130352611787000,-19.23,1.69,-4.6,1
19,130352691621000,-11.26,17.39,4.37,1
19,130352733522000,-3.3,18.89,-3.68,1
19,130352771822000,13.21,15.17,8.01,1
19,130352811739000,0.65,1.04,0.89,1
