user-id,timestamp,accX,accY,accZ,ActivityEncoded
13,0,0.0,0.0,0.0,1
13,0,0.0,0.0,0.0,1
13,1505152232000,2.41,6.28,1.334794,1
13,1505152232000,2.41,6.28,1.334794,1
13,0,0.0,0.0,0.0,1
13,0,0.0,0.0,0.0,1
13,1505322154000,2.56,-1.23,-14.396708,1
13,1505422221000,-0.76,-5.63,-9.915613,1
13,1505472270000,0.34,3.17,-0.9942854,1
13,1505522227000,-1.46,18.16,15.431854,1
13,1505522227000,-1.46,18.16,15.431854,1
13,1505622447000,-10.19,16.51,-6.2108784,1
13,1505622447000,-10.19,16.51,-6.2108784,1
13,1505722240000,-7.89,5.71,7.504812,1
13,1505772258000,8.5,0.5,5.5162406,1
13,1505822154000,0.57,3.26,7.8861814,1
13,1505822154000,0.57,3.26,7.8861814,1
13,1505874492000,-2.91,0.99,3.255263,1
13,0,0.0,0.0,0.0,1
13,1505982768000,-7.27,19.57,10.882658,1
13,1505982768000,-7.27,19.57,10.882658,1
13,0,0.0,0.0,0.0,1
13,1506152202000,1.04,-6.55,-13.211738,1
13,1506202251000,-2.07,-2.34,-6.782933,1
13,1506252269000,1.08,13.4,9.343558,1
13,1506302318000,-1.99,9.66,-2.3426998,1
13,1506352458000,-8.31,11.22,-10.95076,1
13,1506402263000,-3.79,19.57,-2.7921712,1
13,1506452434000,-1.46,18.5,12.026767,1
13,1506502238000,2.68,0.27,4.8216033,1
13,1506552318000,9.19,5.09,2.6014864,1
13,1506602275000,-5.01,-0.34,5.012288,1
13,1506652293000,-0.08,3.64,5.175732,1
13,1506702281000,3.57,14.06,5.325556,1
13,1506752299000,-6.32,19.57,11.604536,1
13,1506802287000,3.6,17.5,-1.525479,1
13,1506852305000,-0.11,-6.21,-13.293459,1
13,1506902263000,-1.73,-8.08,-13.906375,1
13,1506952312000,-1.27,-4.02,-9.112013,1
13,1507002269000,0.93,9.23,3.7864566,1
13,1507052318000,-3.3,18.7,5.053149,1
13,1507102305000,-5.37,-1.84,-14.560152,1
13,1507152293000,-11.45,18.43,-0.27240697,1
13,1507202251000,7.31,18.92,9.656827,1
13,1507252544000,-3.6,1.38,3.9090397,1
13,1507302287000,9.72,5.63,5.5571017,1
13,1507352305000,-4.94,1.27,5.284695,1
13,1507402263000,-0.34,4.56,5.243834,1
13,1507452373000,3.57,14.63,7.7363577,1
13,1507502269000,0.08,19.57,10.732834,1
13,1507552348000,3.57,13.87,-5.012288,1
13,1507602244000,-4.9,-9.47,-14.628253,1
13,1507652293000,-0.69,-6.82,-12.14935,1
13,1507702251000,-1.65,-3.21,-8.267551,1
13,1507752299000,2.6,12.57,6.973618,1
13,1507802287000,-1.27,11.75,0.8036005,1
13,1507852305000,-10.88,5.98,-6.5922484,1
13,1507902263000,-3.98,19.11,-7.3141265,1
13,1507952312000,0.89,19.0,13.0619135,1
13,1508002269000,2.03,-0.38,6.0882955,1
13,1508052318000,8.54,5.6,4.099725,1
13,1508102275000,-2.26,0.15,4.0180025,1
13,1508152263000,-0.11,7.89,4.0588636,1
13,1508212108000,-2.07,19.57,11.985906,1
13,1508265971000,0.31,19.57,2.6423476,1
13,1508265971000,0.31,19.57,2.6423476,1
13,1508322398000,4.71,2.79,-13.102775,1
13,1508372874000,-3.45,-13.33,-14.560152,1
13,1508482127000,1.5,7.46,2.7649305,1
13,1508482127000,1.5,7.46,2.7649305,1
13,1508532268000,1.08,17.62,14.1787815,1
13,1508582347000,-9.47,8.58,-10.95076,1
13,1508632304000,-14.29,14.56,-7.3958488,1
13,1508682353000,10.46,19.57,6.510526,1
13,1508742259000,-0.5,3.95,7.3958488,1
13,1508792247000,7.93,5.86,5.8976107,1
13,1508842296000,-4.33,-1.27,5.597963,1
13,1508892253000,-0.38,3.11,4.440233,1
13,1508942302000,2.41,9.7,2.1111538,1
13,1508992229000,-1.95,19.57,14.246883,1
13,1509042277000,3.34,19.57,4.399372,1
13,1509092265000,2.3,-0.8,-9.915613,1
13,1509142314000,-4.59,-6.4,-12.912089,1
13,1509192241000,-2.53,-5.94,-9.915613,1
13,1509242290000,0.46,0.57,-4.5628166,1
13,1509292247000,0.34,16.21,11.795221,1
13,1509342296000,-4.82,11.65,-13.988097,1
13,1509392253000,-10.31,14.06,-6.3198414,1
13,1509442302000,8.89,19.57,6.238119,1
13,1509492229000,-5.52,9.81,9.193735,1
13,1509542308000,9.15,0.57,6.742072,1
13,1509542308000,9.15,0.57,6.742072,1
13,1509542308000,9.15,0.57,6.742072,1
13,0,0.0,0.0,0.0,1
13,1509732890000,1.04,19.15,11.223166,1
13,1509732890000,1.04,19.15,11.223166,1
13,0,0.0,0.0,0.0,1
13,1509902537000,-4.52,-9.19,-13.756551,1
13,1509902537000,-4.52,-9.19,-13.756551,1
13,1510002238000,-0.38,3.21,-1.0760075,1
13,1510052287000,-1.46,18.66,15.4046135,1
13,1510102275000,-4.52,10.12,-13.293459,1
13,1510152293000,-9.19,9.28,-5.9793324,1
13,1510202251000,9.0,19.57,1.7297841,1
13,1510254588000,-10.08,13.76,12.912089,1
13,1510254588000,-10.08,13.76,12.912089,1
13,1510312968000,6.51,-2.11,4.440233,1
13,1510312968000,6.51,-2.11,4.440233,1
13,0,0.0,0.0,0.0,1
13,1510482371000,2.49,15.64,6.5922484,1
13,1510482371000,2.49,15.64,6.5922484,1
13,0,0.0,0.0,0.0,1
13,1510652232000,-5.37,-10.57,-15.132206,1
13,1510702342000,-1.14,-6.05,-11.304889,1
13,1510752208000,-1.31,0.65,-5.053149,1
13,1510802257000,0.99,18.43,16.698545,1
13,1510852275000,-3.98,7.16,-13.824653,1
13,1510902293000,-9.85,7.25,-10.419566,1
13,1510952251000,4.6,19.57,3.255263,1
13,1511002360000,-6.85,12.6,10.228881,1
13,1511052257000,7.7,-0.57,5.597963,1
13,1511102336000,5.43,6.59,5.434519,1
13,1511152110000,-7.89,-1.18,1.0351465,1
13,1511215312000,3.6,9.11,1.334794,1
13,1511215312000,3.6,9.11,1.334794,1
13,1511215312000,3.6,9.11,1.334794,1
13,1511282786000,-5.28,19.57,10.732834,1
13,0,0.0,0.0,0.0,1
13,1511472148000,0.34,-5.2,-10.038197,1
13,1511472148000,0.34,-5.2,-10.038197,1
13,1511572215000,-2.07,17.16,13.633968,1
13,1511622264000,-8.96,8.35,-10.337844,1
13,1511672649000,-10.42,16.82,-7.8180795,1
13,1511722209000,9.43,19.57,11.686258,1
13,1511772441000,5.33,2.45,6.5513873,1
13,1511822368000,5.33,2.45,6.5513873,1
13,1511882335000,1.57,3.17,8.771504,1
13,1511882335000,1.57,3.17,8.771504,1
13,1511982249000,1.54,12.64,4.5219555,1
13,1512032298000,-6.59,19.57,13.593107,1
13,1512032298000,-6.59,19.57,13.593107,1
13,1512092509000,7.97,17.47,-0.10896278,1
13,1512142284000,-4.4,-9.49,-16.358038,1
13,1512192546000,-0.5,-6.51,-13.824653,1
13,1512242259000,-1.31,-3.57,-9.275456,1
13,1512292613000,2.45,11.56,5.597963,1
13,1512342265000,-2.83,16.78,3.6774938,1
13,1512392619000,-8.16,1.73,-9.80665,1
13,1512442271000,-8.77,19.11,-6.1291566,1
13,1512492625000,5.37,19.38,13.593107,1
13,1512542277000,0.53,1.5,4.8216033,1
13,1512592662000,8.39,5.24,4.2904096,1
13,1512642284000,-4.33,1.08,6.469665,1
13,1512692668000,-0.08,1.14,4.2495484,1
13,1512742259000,2.3,12.64,4.7943625,1
13,1512792674000,-4.94,19.57,14.328606,1
13,1512842265000,5.09,19.53,5.012288,1
13,1512892589000,2.6,-2.83,-10.079058,1
13,1512942271000,-3.15,-2.79,-12.762266,1
13,1512992595000,-1.08,-6.05,-11.264028,1
13,1513042277000,-0.08,3.79,-3.405087,1
13,1513092631000,-2.6,17.88,15.4046135,1
13,1513142284000,-4.25,2.72,-14.437569,1
13,1513192607000,-10.84,17.43,-5.8567495,1
13,1513242259000,8.73,19.57,8.430995,1
13,1513292613000,-4.06,7.08,7.9270425,1
13,1513342265000,9.62,2.15,5.8567495,1
13,1513392833000,-0.23,3.87,9.956474,1
13,1513442119000,-1.88,0.84,2.8330324,1
13,1513502971000,2.96,14.71,4.944186,1
13,1513502971000,2.96,14.71,4.944186,1
13,1513582439000,-2.56,19.57,5.407278,1
13,1513582439000,-2.56,19.57,5.407278,1
13,0,0.0,0.0,0.0,1
13,1513803050000,0.76,9.66,3.173541,1
13,1513803050000,0.76,9.66,3.173541,1
13,1513902293000,-4.99,-2.45,-13.824653,1
13,1513952281000,-10.57,17.31,-3.486809,1
13,1514002238000,3.76,19.11,15.704261,1
13,1514002238000,3.76,19.11,15.704261,1
13,1514102367000,9.81,7.97,4.7535014,1
13,1514152324000,-5.2,-0.61,3.7864566,1
13,1514202251000,-2.53,6.74,5.175732,1
13,1514252299000,4.56,17.2,10.923519,1
13,1514302226000,-3.41,19.57,9.193735,1
13,1514352305000,6.36,6.28,-8.117727,1
13,1514402263000,-5.09,-10.42,-15.472715,1
13,1514452281000,0.11,-5.86,-12.408136,1
13,1514502208000,-2.49,-0.04,-6.428804,1
13,1514552287000,0.23,17.35,9.656827,1
13,1514602244000,-6.24,14.79,-2.982856,1
13,1514652293000,-8.2,4.1,-11.372991,1
13,1514702251000,0.38,19.57,2.5606253,1
13,1514752269000,-5.28,16.78,11.563675,1
13,1514802287000,3.57,-2.56,4.7943625,1
13,1514852305000,9.08,7.63,4.671779,1
13,1514902232000,-6.32,0.08,2.2609777,1
13,1514952281000,0.23,6.05,3.214402,1
13,1515002208000,3.72,17.24,11.114203,1
13,1515052287000,-5.9,19.57,8.076866,1
13,1515102244000,6.36,11.07,-6.66035,1
13,1515152293000,-5.56,-10.11,-14.560152,1
13,1515202220000,-0.38,-5.67,-12.026767,1
13,1515255229000,-1.42,-1.76,-7.5865335,1
13,1515255229000,-1.42,-1.76,-7.5865335,1
13,1515312816000,0.95,14.14,8.689782,1
13,1515362865000,-6.82,13.02,-10.841797,1
13,1515412822000,-10.76,13.14,-9.493382,1
13,1515462840000,9.43,19.57,4.399372,1
13,1515512797000,-8.31,14.56,11.372991,1
13,1515562846000,6.13,-1.42,4.671779,1
13,1515613109000,6.66,6.21,5.5162406,1
13,1515662120000,-5.63,-1.18,-0.0,1
13,1515712169000,2.22,5.79,2.2609777,1
13,1515777202000,2.64,18.81,13.184497,1
13,1515777202000,2.64,18.81,13.184497,1
13,0,0.0,0.0,0.0,1
13,1516022136000,-0.23,-0.46,-5.325556,1
13,1516022136000,-0.23,-0.46,-5.325556,1
13,1516122203000,-6.24,12.83,-12.367276,1
13,1516172313000,-9.08,12.57,-13.633968,1
13,1516222240000,9.77,12.53,12.340035,1
13,1516272288000,-5.98,12.53,12.340035,1
13,1516322490000,2.53,1.27,6.3607025,1
13,1516322490000,2.53,1.27,6.3607025,1
13,1516422252000,-5.18,-2.18,1.1441092,1
13,1516472331000,2.07,4.86,4.099725,1
13,1516472331000,2.07,4.86,4.099725,1
13,1516532847000,3.72,18.12,10.079058,1
13,1516582866000,-7.55,19.57,5.8976107,1
13,1516632854000,7.46,7.31,-8.962189,1
13,1516682902000,-6.4,-9.34,-18.305748,1
13,1516732860000,-1.76,-6.93,-10.56939,1
13,1516782847000,-1.5,-1.14,-4.2086873,1
13,1516832866000,-0.89,16.63,14.941522,1
13,1516882884000,-5.37,8.58,-7.014479,1
13,1516932811000,-7.46,12.6,-15.595298,1
13,1516982890000,7.82,19.57,5.2165933,1
13,1517032817000,-9.58,14.75,11.876944,1
13,1517082896000,4.9,-1.14,4.2904096,1
13,1517132976000,8.69,6.36,5.325556,1
13,1517182109000,-7.82,-1.31,1.7978859,1
13,1517232158000,2.22,6.4,3.5276701,1
13,1517298381000,3.34,18.28,11.073342,1
13,1517298381000,3.34,18.28,11.073342,1
13,1517352336000,-2.07,19.57,1.0760075,1
13,0,0.0,0.0,0.0,1
13,1517522227000,-0.69,-1.76,-7.8589406,1
13,1517572246000,0.69,11.73,9.997335,1
13,1517622325000,-3.95,9.0,-3.0237172,1
13,1517672313000,-10.65,14.82,-14.328606,1
13,1517722362000,2.15,19.57,1.4982382,1
13,1517772258000,-4.59,17.24,10.419566,1
13,1517822307000,3.17,-0.23,4.3312707,1
13,1517822307000,3.17,-0.23,4.3312707,1
13,0,0.0,0.0,0.0,1
13,1518012157000,2.56,13.18,4.944186,1
13,1518012157000,2.56,13.18,4.944186,1
13,0,0.0,0.0,0.0,1
13,0,0.0,0.0,0.0,1
13,1518182231000,-6.51,-10.08,-17.924377,1
13,1518232219000,0.04,-5.86,-12.299174,1
13,1518282359000,-1.04,-1.57,-5.284695,1
13,1518332286000,0.65,15.47,13.402422,1
13,1518382335000,-4.63,10.73,-6.851035,1
13,1518442241000,-10.84,12.6,-11.223166,1
13,1518492198000,11.73,19.57,2.8330324,1
13,1518542277000,-9.96,12.11,11.141444,1
13,1518592235000,8.35,-1.73,8.008764,1
13,1518592235000,8.35,-1.73,8.008764,1
13,1518692149000,-3.79,-0.38,0.9942854,1
13,1518692149000,-3.79,-0.38,0.9942854,1
13,1518752147000,3.11,8.31,1.920469,1
13,0,0.0,0.0,0.0,1
13,0,0.0,0.0,0.0,1
13,0,0.0,0.0,0.0,1
13,0,0.0,0.0,0.0,1
13,0,0.0,0.0,0.0,1
13,1519012187000,-0.15,-5.01,-9.193735,1
13,1519112224000,-3.15,17.58,11.563675,1
13,1519112224000,-3.15,17.58,11.563675,1
13,1519212749000,-9.7,17.2,-7.6273947,1
13,1519262370000,8.62,19.57,11.304889,1
13,1519312297000,-3.6,4.44,7.6954966,1
13,1519362254000,11.96,1.54,5.5571017,1
13,1519362254000,11.96,1.54,5.5571017,1
13,1519432902000,-7.44,-1.92,3.990762,1
13,1519432902000,-7.44,-1.92,3.990762,1
13,1519432902000,-7.44,-1.92,3.990762,1
13,1519432902000,-7.44,-1.92,3.990762,1
13,0,0.0,0.0,0.0,1
13,1519732310000,-2.14,-7.25,-15.241169,1
13,1519782786000,-0.8,-5.33,-8.499097,1
13,1519782786000,-0.8,-5.33,-8.499097,1
13,1519882396000,-3.26,19.04,8.19945,1
13,1519932201000,-5.82,0.61,-11.3321295,1
13,1519982310000,-9.47,17.43,-6.2789803,1
13,1520032237000,4.44,19.46,13.143636,1
13,1520082316000,-1.53,0.19,6.0882955,1
13,1520132213000,10.19,5.83,5.09401,1
13,1520182262000,-7.21,-0.69,5.706926,1
13,1520232249000,0.61,4.37,5.9793324,1
13,1520282268000,2.53,12.49,4.372132,1
13,1520332225000,-6.89,19.57,13.184497,1
13,1520382274000,3.38,18.96,-1.3075534,1
13,1520432231000,-0.8,-6.36,-14.750836,1
13,1520482310000,-0.04,-7.7,-13.783792,1
13,1520532237000,-0.65,-5.28,-9.234595,1
13,1520582316000,0.53,7.63,2.7649305,1
13,1520632243000,-2.45,17.2,11.114203,1
13,1520682262000,-6.89,6.7,-12.5579605,1
13,1520732219000,-8.16,18.81,-7.5456724,1
13,1520782298000,4.75,19.57,12.721405,1
13,1520832255000,-2.11,4.56,7.3958488,1
13,1520882274000,9.85,3.49,5.243834,1
13,1520932201000,-1.14,0.23,6.5513873,1
13,1520984386000,0.99,2.6,5.09401,1
13,1520984386000,0.99,2.6,5.09401,1
13,1520984386000,0.99,2.6,5.09401,1
13,0,0.0,0.0,0.0,1
13,0,0.0,0.0,0.0,1
13,1521212169000,-5.9,-9.08,-13.906375,1
13,1521263042000,-0.65,-4.71,-11.413852,1
13,1521312205000,-0.65,1.23,-5.134871,1
13,1521362254000,1.08,18.01,14.7916975,1
13,1521412425000,-7.16,9.08,-12.639683,1
13,1521472270000,-9.19,18.12,-3.9499009,1
13,1521532237000,1.31,18.96,13.715691,1
13,1521582225000,2.68,0.11,6.2789803,1
13,1521632274000,9.15,5.63,3.255263,1
13,1521682201000,-5.94,-0.11,1.4982382,1
13,1521732341000,-1.42,5.05,6.1291566,1
13,1521782207000,2.87,17.69,10.18802,1
13,1521832316000,-7.16,19.57,7.43671,1
13,1521882213000,5.22,13.8,-3.445948,1
13,1521932262000,-4.25,-9.81,-13.443283,1
13,1521982249000,0.65,-7.5,-12.912089,1
13,1522032268000,-1.18,-0.65,-6.238119,1
13,1522082286000,-0.23,15.51,11.182305,1
13,1522132304000,-4.25,8.16,-3.255263,1
13,1522182201000,-5.63,5.01,-11.536434,1
13,1522232280000,-0.84,19.57,-3.568531,1
13,1522282207000,-3.49,18.28,11.645397,1
13,1522332316000,2.76,0.42,4.372132,1
13,1522382213000,9.77,4.37,5.09401,1
13,1522432262000,-7.01,-0.8,3.759216,1
13,1522482249000,0.0,5.63,4.099725,1
13,1522532298000,2.45,17.47,8.430995,1
13,1522582255000,-5.28,19.57,8.771504,1
13,1522582255000,-5.28,19.57,8.771504,1
13,1522692210000,-3.6,-7.82,-13.293459,1
13,1522742259000,-1.53,-5.33,-9.765789,1
13,1522742259000,-1.53,-5.33,-9.765789,1
13,1522802318000,-0.69,0.15,-5.706926,1
13,1522852275000,0.95,18.31,14.818938,1
13,1522902263000,-5.75,3.87,-12.217452,1
13,1522952281000,-12.3,12.26,-10.106298,1
13,1523002299000,10.0,19.57,4.099725,1
13,1523052287000,-9.04,14.71,11.917805,1
13,1523102305000,4.82,-0.65,4.3312707,1
13,1523152202000,6.51,4.71,2.7649305,1
13,1523202556000,-6.66,-1.23,1.9477097,1
13,0,0.0,0.0,0.0,1
13,1523312877000,0.89,19.57,11.795221,1
13,1523312877000,0.89,19.57,11.795221,1
13,1523312877000,0.89,19.57,11.795221,1
13,1523312877000,0.89,19.57,11.795221,1
13,0,0.0,0.0,0.0,1
13,0,0.0,0.0,0.0,1
13,1523532390000,-2.22,-4.75,-10.378705,1
13,1523632213000,0.93,15.6,12.980191,1
13,1523682292000,-8.85,4.94,-11.836082,1
13,1523732188000,-11.03,16.36,-6.701211,1
13,1523782237000,9.51,19.57,11.223166,1
13,1523832286000,-4.75,7.55,7.7363577,1
13,1523882243000,7.27,0.65,4.862464,1
13,1523882243000,7.27,0.65,4.862464,1
13,1523882243000,7.27,0.65,4.862464,1
13,0,0.0,0.0,0.0,1
13,0,0.0,0.0,0.0,1
13,1524062144000,0.65,18.96,11.413852,1
13,1524132213000,-0.89,19.57,5.325556,1
13,0,0.0,0.0,0.0,1
13,1524242534000,-2.3,-7.82,-14.628253,1
13,1524292155000,-1.14,-4.52,-9.697687,1
13,1524342357000,2.07,9.43,3.486809,1
13,1524392314000,-3.41,19.19,11.34575,1
13,1524442210000,-6.66,-2.83,-10.760075,1
13,1524492290000,-10.92,14.33,-8.853226,1
13,1524542216000,7.35,19.57,3.7864566,1
13,1524592296000,-0.72,6.66,7.8589406,1
13,1524642253000,8.47,3.87,6.742072,1
13,1524692271000,-0.3,2.91,10.841797,1
13,1524742229000,-0.46,2.07,2.7921712,1
13,1524792277000,1.95,11.99,3.0645783,1
13,1524842235000,-5.01,19.57,13.797412,1
13,1524892314000,2.72,19.46,3.405087,1
13,1524942210000,2.96,-3.36,-11.223166,1
13,1524992259000,-0.46,-8.27,-13.443283,1
13,1525042247000,-1.18,-4.75,-9.615966,1
13,1525092296000,0.46,4.9,-1.0351465,1
13,1525142253000,-0.69,18.09,14.709975,1
13,1525192302000,-7.5,6.89,-13.484144,1
13,1525242229000,-12.41,13.44,-8.240311,1
13,1525292308000,11.88,19.57,3.405087,1
13,1525342235000,-5.63,14.82,9.656827,1
13,1525392314000,2.11,-0.99,4.2495484,1
13,1525442271000,6.7,5.43,4.4810944,1
13,1525495158000,-5.79,-1.23,1.8387469,1
13,1525495158000,-5.79,-1.23,1.8387469,1
13,1525572398000,3.91,14.67,2.4516625,1
13,1525572398000,3.91,14.67,2.4516625,1
13,0,0.0,0.0,0.0,1
13,0,0.0,0.0,0.0,1
13,1525842998000,-1.46,0.99,-3.8681788,1
13,1525842998000,-1.46,0.99,-3.8681788,1
13,1525942271000,-4.4,10.92,-6.5513873,1
13,1525992320000,-9.77,7.46,-10.923519,1
13,1526042216000,6.59,19.57,1.1849703,1
13,1526092296000,-8.2,14.63,8.730643,1
13,1526142222000,4.86,-0.69,3.8681788,1
13,1526142222000,4.86,-0.69,3.8681788,1
13,1526142222000,4.86,-0.69,3.8681788,1
13,1526213786000,5.13,4.33,4.2904096,1
13,0,0.0,0.0,0.0,1
13,0,0.0,0.0,0.0,1
13,1526382823000,-8.73,19.57,9.152874,1
13,1526382823000,-8.73,19.57,9.152874,1
13,0,0.0,0.0,0.0,1
13,1526562541000,-2.07,-6.47,-12.217452,1
13,1526562541000,-2.07,-6.47,-12.217452,1
13,1526662334000,1.54,18.28,15.431854,1
13,1526662334000,1.54,18.28,15.431854,1
13,1526662334000,1.54,18.28,15.431854,1
13,1526812358000,6.02,19.57,-3.5957718,1
13,1526812358000,6.02,19.57,-3.5957718,1
13,1526862285000,-9.49,12.57,9.656827,1
13,1526962413000,4.6,5.63,6.1700177,1
13,1526962413000,4.6,5.63,6.1700177,1
13,1527012187000,-7.04,1.04,1.2666923,1
13,1527062785000,0.08,10.53,1.4982382,1
13,0,0.0,0.0,0.0,1
13,0,0.0,0.0,0.0,1
13,0,0.0,0.0,0.0,1
13,0,0.0,0.0,0.0,1
13,1527303752000,1.46,-4.14,-10.269742,1
13,1527352336000,-0.46,-0.76,-6.2108784,1
13,1527402293000,0.76,13.67,4.9850473,1
13,1527452342000,-0.34,14.25,0.08172209,1
13,1527502360000,-12.41,6.66,-9.302697,1
13,1527552257000,-1.76,18.73,-4.4810944,1
13,1527602275000,-3.06,19.04,14.2877445,1
13,1527652293000,1.18,1.84,5.8976107,1
13,1527702281000,10.19,3.87,4.944186,1
13,1527702281000,10.19,3.87,4.944186,1
13,0,0.0,0.0,0.0,1
13,1527872874000,2.98,19.27,13.102775,1
13,1527872874000,2.98,19.27,13.102775,1
13,1527942210000,2.96,19.42,1.4165162,1
13,0,0.0,0.0,0.0,1
13,1528042247000,-2.75,-7.93,-12.067628,1
13,1528042247000,-2.75,-7.93,-12.067628,1
13,1528142436000,0.95,8.69,1.56634,1
13,1528192210000,-0.38,13.44,5.8976107,1
13,1528192210000,-0.38,13.44,5.8976107,1
13,1528292247000,-10.92,18.73,-4.903325,1
13,1528342357000,6.36,19.53,11.073342,1
13,1528342357000,6.36,19.53,11.073342,1
13,1528402232000,-0.19,1.95,8.281172,1
13,1528452281000,6.44,3.02,4.2086873,1
13,1528502238000,-0.42,1.31,6.701211,1
13,1528553691000,1.18,1.5,2.9556155,1
13,1528602244000,2.45,12.26,2.070293,1
13,1528652232000,-5.71,19.57,13.443283,1
13,1528702220000,4.56,19.57,3.0645783,1
13,1528752299000,5.09,-2.6,-13.252599,1
13,1528802257000,-3.98,-8.88,-14.9006605,1
13,1528852244000,-0.84,-6.05,-10.501288,1
13,1528902232000,-0.84,2.64,-3.0645783,1
13,1528952251000,0.34,19.27,15.472715,1
13,1529002269000,-5.33,2.03,-11.563675,1
13,1529053630000,-11.3,15.94,-9.615966,1
13,1529102305000,4.56,19.57,8.349273,1
13,1529152232000,-3.26,7.46,8.499097,1
13,1529202251000,5.67,1.14,8.117727,1
13,1529252269000,4.4,4.33,3.8273177,1
13,1529302226000,-4.59,-0.57,1.4573772,1
13,1529352214000,3.57,6.63,1.4982382,1
13,1529402232000,0.11,19.53,11.141444,1
13,1529452251000,-3.17,19.57,5.829509,1
13,1529502238000,7.21,3.68,-12.258313,1
13,1529552257000,-6.28,-10.92,-15.622539,1
13,1529602214000,-1.8,-5.41,-12.108489,1
13,1529652263000,-0.23,0.57,-4.4810944,1
13,1529702251000,-0.19,13.8,9.384419,1
13,1529752238000,-1.92,16.32,-6.2108784,1
13,1529802257000,-10.8,8.62,-9.765789,1
13,1529852244000,5.67,19.57,2.1792557,1
13,1529902263000,-8.12,15.98,10.651112,1
13,1529952281000,3.87,-1.12,4.440233,1
13,1530002299000,8.24,5.52,3.1054392,1
13,1530052165000,-6.82,-1.95,3.759216,1
13,1530112407000,1.38,6.4,3.568531,1
13,0,0.0,0.0,0.0,1
13,0,0.0,0.0,0.0,1
13,0,0.0,0.0,0.0,1
13,0,0.0,0.0,0.0,1
13,0,0.0,0.0,0.0,1
13,0,0.0,0.0,0.0,1
13,0,0.0,0.0,0.0,1
13,1530452220000,1.14,13.48,7.8861814,1
13,1530552348000,-13.38,11.56,-9.343558,1
13,1530552348000,-13.38,11.56,-9.343558,1
13,1530652354000,-7.16,18.58,12.176591,1
13,1530702312000,5.41,0.19,4.7126403,1
13,1530702312000,5.41,0.19,4.7126403,1
13,0,0.0,0.0,0.0,1
13,0,0.0,0.0,0.0,1
13,1530852244000,-0.23,3.3,5.597963,1
13,1530852244000,-0.23,3.3,5.597963,1
13,1530852244000,-0.23,3.3,5.597963,1
13,0,0.0,0.0,0.0,1
13,0,0.0,0.0,0.0,1
13,1531112681000,-2.3,-5.24,-11.917805,1
13,1531162212000,-3.45,-3.45,-10.691973,1
13,1531212352000,0.31,12.49,7.6273947,1
13,1531262309000,-0.57,8.31,-1.7297841,1
13,1531312236000,-9.81,12.07,-12.5579605,1
13,1531372264000,9.43,19.57,3.6774938,1
13,1531372264000,9.43,19.57,3.6774938,1
13,1531432689000,-4.44,13.21,11.114203,1
13,1531482432000,4.52,0.23,6.3198414,1
13,1531532756000,6.44,4.33,8.499097,1
13,1531582133000,-4.14,1.18,0.19068487,1
13,1531632823000,4.99,11.18,1.2666923,1
13,1531632823000,4.99,11.18,1.2666923,1
13,1531632823000,4.99,11.18,1.2666923,1
13,0,0.0,0.0,0.0,1
13,0,0.0,0.0,0.0,1
13,1531953868000,-0.8,6.47,1.1441092,1
13,1532002330000,5.67,7.27,-2.6832085,1
13,1532052226000,-14.14,15.02,-1.920469,1
13,1532103618000,3.34,19.57,-2.8330324,1
13,1532152202000,-8.35,18.73,12.026767,1
13,1532202342000,3.6,2.96,6.510526,1
13,1532252971000,7.01,6.51,4.4810944,1
13,1532303386000,-1.65,0.38,4.2904096,1
13,1532352916000,1.08,3.57,3.1463003,1
13,1532403300000,7.74,18.5,6.1291566,1
13,1532452830000,-8.58,19.57,7.9679036,1
13,1532503245000,5.71,14.82,-0.040861044,1
13,1532553660000,-0.95,-11.07,-14.056199,1
13,1532603160000,-1.61,-6.09,-12.762266,1
13,1532653636000,-2.53,-1.92,-9.234595,1
13,1532703044000,1.99,12.26,7.9270425,1
13,1532753520000,-1.69,11.18,2.5333846,1
13,1532803020000,-9.04,8.08,-9.466142,1
13,1532853435000,-5.43,19.53,-6.5922484,1
13,1532902904000,2.22,19.31,15.28203,1
13,1532953319000,-0.69,0.19,5.325556,1
13,1533002818000,10.53,4.37,4.0180025,1
13,1533053294000,-5.75,0.69,5.366417,1
13,1533102122000,0.08,2.56,5.366417,1
13,1533152354000,6.4,13.67,1.7978859,1
13,0,0.0,0.0,0.0,1
13,0,0.0,0.0,0.0,1
13,1533342540000,-4.21,-7.63,-14.750836,1
13,1533392192000,-4.48,-4.79,-11.413852,1
13,1533442363000,0.5,-1.23,-5.6252036,1
13,1533492259000,2.72,11.14,6.782933,1
13,1533492259000,2.72,11.14,6.782933,1
13,1533492259000,2.72,11.14,6.782933,1
13,1533652110000,8.62,19.57,6.1291566,1
13,1533702403000,-9.34,12.26,11.032481,1
13,1533752238000,6.85,-1.57,3.214402,1
13,1533752238000,6.85,-1.57,3.214402,1
13,1533752238000,6.85,-1.57,3.214402,1
13,0,0.0,0.0,0.0,1
13,1533942241000,5.41,16.66,4.5628166,1
13,1533942241000,5.41,16.66,4.5628166,1
13,0,0.0,0.0,0.0,1
13,1534112224000,-2.34,-6.66,-15.472715,1
13,1534162639000,-2.22,-8.05,-11.454713,1
13,1534212260000,-1.12,-0.57,-6.510526,1
13,1534262279000,-0.27,14.52,10.269742,1
13,1534312266000,-1.31,10.42,-4.9850473,1
13,1534362437000,-9.0,11.22,-11.141444,1
13,1534412364000,1.42,19.57,3.1054392,1
13,1534462352000,-6.17,16.47,8.894087,1
13,1534512218000,2.34,-0.38,2.9147544,1
13,1534562297000,9.58,4.75,4.1814466,1
13,1534612132000,-4.79,-1.18,2.3699405,1
13,1534676616000,1.95,4.67,4.099725,1
13,1534676616000,1.95,4.67,4.099725,1
13,1534676616000,1.95,4.67,4.099725,1
13,1534742412000,-0.34,19.57,12.9529505,1
13,0,0.0,0.0,0.0,1
13,1534922252000,-1.95,-9.0,-14.056199,1
13,1534972331000,-0.19,-0.57,-5.5162406,1
13,1535022197000,0.08,14.06,10.732834,1
13,1535072307000,0.72,5.41,-2.1792557,1
13,1535122233000,-12.41,14.41,-7.5865335,1
13,1535172282000,-3.15,19.53,-4.372132,1
13,1535222240000,-1.84,18.77,13.633968,1
13,1535272288000,4.18,3.11,3.1054392,1
13,1535322276000,10.38,3.49,4.671779,1
13,1535322276000,10.38,3.49,4.671779,1
13,1535322276000,10.38,3.49,4.671779,1
13,0,0.0,0.0,0.0,1
13,0,0.0,0.0,0.0,1
13,1535492137000,0.89,19.23,10.56939,1
13,1535492137000,0.89,19.23,10.56939,1
13,0,0.0,0.0,0.0,1
13,1535692149000,-0.84,-8.12,-12.299174,1
13,1535742290000,-0.3,-1.84,-7.8861814,1
13,1535792216000,-0.23,14.75,8.308413,1
13,1535842235000,-2.26,11.88,-0.9942854,1
13,1535892436000,-9.15,11.41,-8.117727,1
13,1535952312000,5.22,19.57,4.944186,1
13,1536012309000,-7.78,12.79,8.308413,1
13,1536062236000,5.56,0.65,6.1291566,1
13,1536062236000,5.56,0.65,6.1291566,1
13,1536162120000,-2.75,-0.08,-1.879608,1
13,1536212504000,2.18,9.43,1.4982382,1
13,1536263469000,-1.14,19.57,13.402422,1
13,1536263469000,-1.14,19.57,13.402422,1
13,0,0.0,0.0,0.0,1
13,1536553233000,-1.76,15.7,9.534244,1
13,1536553233000,-1.76,15.7,9.534244,1
13,1536652324000,-6.66,7.59,-10.460427,1
13,1536702251000,4.25,19.5,6.3607025,1
13,1536752269000,-9.28,14.9,8.771504,1
13,1536802226000,6.05,-0.46,3.3778462,1
13,1536802226000,6.05,-0.46,3.3778462,1
13,1536802226000,6.05,-0.46,3.3778462,1
13,1536874278000,2.49,5.52,9.615966,1
13,0,0.0,0.0,0.0,1
13,1536993114000,2.79,15.13,7.668256,1
13,1536993114000,2.79,15.13,7.668256,1
13,0,0.0,0.0,0.0,1
13,0,0.0,0.0,0.0,1
13,1537213115000,-1.42,-6.32,-10.56939,1
13,1537213115000,-1.42,-6.32,-10.56939,1
13,1537312205000,1.42,18.31,15.132206,1
13,1537362224000,-4.99,7.55,-13.484144,1
13,1537412273000,-11.22,11.35,-8.049625,1
13,1537462260000,5.6,19.57,4.399372,1
13,1537512309000,-7.63,12.37,11.34575,1
13,1537562236000,6.97,-0.42,4.0588636,1
13,1537562236000,6.97,-0.42,4.0588636,1
13,1537662120000,-5.2,-1.5,0.42223078,1
13,1537712504000,2.37,5.94,2.2201166,1
13,1537763011000,2.37,18.66,10.841797,1
13,0,0.0,0.0,0.0,1
13,0,0.0,0.0,0.0,1
13,0,0.0,0.0,0.0,1
13,1537922221000,-4.79,-8.77,-14.519291,1
13,1537982158000,-2.49,-5.98,-11.141444,1
13,1538033519000,0.53,2.91,-1.7297841,1
13,1538082835000,2.15,18.54,14.941522,1
13,1538082835000,2.15,18.54,14.941522,1
13,1538182262000,-11.84,14.29,-6.1291566,1
13,1538232371000,8.77,19.57,5.284695,1
13,1538282237000,-8.66,14.29,10.228881,1
13,1538332316000,5.83,-0.61,4.8216033,1
13,1538332316000,5.83,-0.61,4.8216033,1
13,1538332316000,5.83,-0.61,4.8216033,1
13,0,0.0,0.0,0.0,1
13,0,0.0,0.0,0.0,1
13,1538553020000,-3.98,19.57,10.882658,1
13,1538553020000,-3.98,19.57,10.882658,1
13,0,0.0,0.0,0.0,1
13,1538722789000,-2.37,-6.28,-13.565866,1
13,1538722789000,-2.37,-6.28,-13.565866,1
13,1538822246000,1.76,10.95,5.8976107,1
13,1538872233000,-2.18,9.53,2.1792557,1
13,1538922282000,-9.77,13.38,-9.152874,1
13,1538972240000,-5.79,19.46,-2.3018389,1
13,1539022258000,3.95,19.19,13.443283,1
13,1539072246000,-0.27,1.84,3.336985,1
13,1539122295000,8.39,5.56,6.2108784,1
13,1539172252000,-2.53,0.38,6.4015636,1
13,1539222270000,0.15,1.99,3.5957718,1
13,1539272258000,4.86,13.95,3.636633,1
13,1539322276000,-7.35,19.57,11.563675,1
13,1539372233000,8.12,19.53,3.445948,1
13,1539422252000,3.68,-2.45,-12.367276,1
13,1539472270000,-4.71,-8.54,-14.437569,1
13,1539522288000,-0.19,5.94,-0.7218784,1
13,1539572154000,1.14,5.94,-0.7218784,1
13,1539622325000,-4.33,17.16,10.528529,1
13,1539622325000,-4.33,17.16,10.528529,1
13,1539722301000,-7.65,16.63,-4.1814466,1
13,1539772319000,5.52,19.57,6.238119,1
13,1539772319000,5.52,19.57,6.238119,1
13,1539832225000,-0.8,3.87,6.238119,1
13,1539882213000,9.0,4.29,6.0201936,1
13,1539932231000,-2.18,1.46,6.8237944,1
13,1539982280000,-1.61,2.3,5.5162406,1
13,1540032237000,3.41,15.64,6.5513873,1
13,1540082316000,-9.15,19.57,10.528529,1
13,1540132243000,8.05,17.69,-0.38136974,1
13,1540183665000,2.22,-7.82,-16.017529,1
13,1540232249000,-3.06,-7.63,-14.396708,1
13,1540282268000,0.95,-3.17,-8.308413,1
13,1540332286000,1.46,7.06,3.759216,1
13,1540382243000,-3.79,16.89,5.938472,1
13,1540432262000,-7.31,10.73,-8.662541,1
13,1540482280000,-7.04,18.43,-5.012288,1
13,1540533702000,6.89,19.53,11.645397,1
13,1540582255000,-0.15,3.26,2.982856,1
13,1540632274000,8.31,2.07,6.66035,1
13,1540682201000,-3.91,0.04,6.66035,1
13,1540739055000,2.3,2.11,4.7943625,1
13,1540739055000,2.3,2.11,4.7943625,1
13,1540739055000,2.3,2.11,4.7943625,1
13,1540800212000,2.91,13.91,4.399372,1
13,1540872356000,-0.23,19.57,6.0201936,1
13,0,0.0,0.0,0.0,1
13,1541052226000,-1.53,-3.72,-7.7772183,1
13,1541052226000,-1.53,-3.72,-7.7772183,1
13,1541162425000,-2.3,16.93,2.5333846,1
13,1541212321000,-8.16,6.44,-9.615966,1
13,1541262218000,-9.19,19.04,-4.2904096,1
13,1541312205000,6.24,19.42,13.565866,1
13,1541362254000,0.5,1.08,4.372132,1
13,1541412242000,10.73,4.4,5.2165933,1
13,1541412242000,10.73,4.4,5.2165933,1
13,1541412242000,10.73,4.4,5.2165933,1
13,0,0.0,0.0,0.0,1
13,1541592174000,-1.69,19.57,12.108489,1
13,1541592174000,-1.69,19.57,12.108489,1
13,1541592174000,-1.69,19.57,12.108489,1
13,0,0.0,0.0,0.0,1
13,1541812572000,-0.91,-5.82,-10.378705,1
13,1541812572000,-0.91,-5.82,-10.378705,1
13,1541912211000,-0.89,18.7,16.167353,1
13,1541962260000,-6.32,11.18,-11.563675,1
13,1542012279000,-7.59,11.84,-8.390134,1
13,1542062266000,9.66,19.57,4.7126403,1
13,1542112285000,-6.09,10.84,7.246025,1
13,1542162273000,6.89,0.57,7.0553403,1
13,1542212199000,4.52,5.28,6.3607025,1
13,1542212199000,4.52,5.28,6.3607025,1
13,1542265575000,-4.67,-0.08,-0.38136974,1
13,1542265575000,-4.67,-0.08,-0.38136974,1
13,1542322337000,3.11,8.05,1.3075534,1
13,1542372783000,-1.73,19.57,13.293459,1
13,0,0.0,0.0,0.0,1
13,1542552135000,-1.08,-7.04,-11.141444,1
13,1542612224000,-1.76,0.0,-7.8861814,1
13,1542662273000,0.5,18.01,15.28203,1
13,1542662273000,0.5,18.01,15.28203,1
13,1542762370000,-13.33,11.92,-5.053149,1
13,1542812358000,8.01,19.57,7.082581,1
13,1542862376000,-6.13,7.97,7.9679036,1
13,1542912273000,8.69,2.76,7.504812,1
13,1542962260000,3.72,5.09,6.1700177,1
13,1543062144000,2.98,5.01,0.95342433,1
13,1543062144000,2.98,5.01,0.95342433,1
13,1543112254000,2.6,19.42,12.598822,1
13,1543162334000,-4.14,19.57,4.440233,1
13,1543212260000,5.67,8.47,-7.3549876,1
13,1543262340000,-4.94,-12.03,-15.213928,1
13,1543322276000,-0.76,-5.37,-9.915613,1
13,1543382243000,0.65,3.79,-1.525479,1
13,1543432231000,-1.92,19.0,15.935807,1
13,1543482280000,-5.94,9.62,-11.727119,1
13,1543532237000,-10.31,14.98,-7.1234417,1
13,1543532237000,-10.31,14.98,-7.1234417,1
13,1543632243000,-7.65,10.88,9.575105,1
13,1543632243000,-7.65,10.88,9.575105,1
13,1543732158000,6.7,4.48,4.440233,1
13,1543732158000,6.7,4.48,4.440233,1
13,1543784129000,-4.99,-0.38,-0.14982383,1
13,0,0.0,0.0,0.0,1
13,1543893260000,-1.12,19.57,12.4489975,1
13,1543893260000,-1.12,19.57,12.4489975,1
13,1543942149000,3.21,19.57,4.0180025,1
13,0,0.0,0.0,0.0,1
13,1544122935000,-0.42,-3.17,-8.049625,1
13,1544122935000,-0.42,-3.17,-8.049625,1
13,1544222209000,0.27,8.31,-3.0237172,1
13,1544272380000,-13.17,14.48,-8.499097,1
13,1544322215000,-1.14,19.11,-2.6832085,1
13,1544372295000,-1.8,18.39,9.234595,1
13,1544372295000,-1.8,18.39,9.234595,1
13,1544372295000,-1.8,18.39,9.234595,1
13,1544484813000,8.5,6.63,3.445948,1
13,0,0.0,0.0,0.0,1
13,0,0.0,0.0,0.0,1
13,1544592296000,1.31,8.77,1.0760075,1
13,1544642222000,1.84,19.57,11.413852,1
13,0,0.0,0.0,0.0,1
13,0,0.0,0.0,0.0,1
13,1544842937000,-0.23,-6.89,-10.923519,1
13,1544892253000,0.11,1.69,-5.366417,1
13,1544942393000,-2.18,17.77,13.402422,1
13,1544992290000,-0.61,4.48,-10.378705,1
13,1545042308000,-9.04,12.3,-7.3958488,1
13,1545102275000,10.76,19.57,1.607201,1
13,1545102275000,10.76,19.57,1.607201,1
13,1545162669000,-5.6,9.38,9.575105,1
13,1545212260000,7.25,1.92,7.8861814,1
13,1545262523000,4.48,3.68,4.7943625,1
13,1545312266000,-3.06,0.31,-0.040861044,1
13,1545362437000,1.18,7.46,0.27240697,1
13,1545412273000,-3.15,19.57,14.137921,1
13,1545462413000,6.32,19.57,3.336985,1
13,1545512279000,1.95,-1.46,-11.645397,1
13,1545562419000,-2.91,-8.58,-14.015338,1
13,1545612285000,-2.56,-5.6,-9.997335,1
13,1545662303000,0.93,3.83,-3.5276701,1
13,1545712749000,1.76,18.47,17.24336,1
13,1545762309000,-6.05,5.6,-13.211738,1
13,1545812663000,-12.15,15.66,-8.308413,1
13,1545862315000,10.57,19.57,5.47538,1
13,1545912517000,-8.58,9.89,8.812365,1
13,1545962291000,8.81,0.76,6.4015636,1
13,1546012218000,5.52,4.63,6.1291566,1
13,1546064708000,-3.91,0.15,0.3405087,1
13,1546064708000,-3.91,0.15,0.3405087,1
13,0,0.0,0.0,0.0,1
13,0,0.0,0.0,0.0,1
13,0,0.0,0.0,0.0,1
13,0,0.0,0.0,0.0,1
13,1546312175000,-4.71,-7.93,-12.408136,1
13,1546412242000,1.27,3.53,-2.4108016,1
13,1546462321000,-2.49,19.23,13.443283,1
13,1546512248000,-8.96,5.67,-10.882658,1
13,1546562236000,1.69,0.61,5.434519,1
13,1546682292000,1.69,0.61,5.434519,1
13,1546682292000,1.69,0.61,5.434519,1
13,1546682292000,1.69,0.61,5.434519,1
13,1546732463000,11.03,5.05,4.7126403,1
13,1546782268000,-4.02,-0.84,2.1792557,1
13,1546832255000,-1.08,3.95,3.8273177,1
13,1546882304000,2.41,17.05,7.8180795,1
13,1546932231000,-9.0,19.57,10.269742,1
13,1546982310000,7.97,15.13,-2.9147544,1
13,1547032237000,-3.41,-7.86,-15.091345,1
13,1547082316000,-0.46,-8.31,-12.176591,1
13,1547132243000,-0.84,-2.49,-8.962189,1
13,1547182292000,1.04,13.29,8.308413,1
13,1547232249000,-0.15,11.75,-1.56634,1
13,1547282298000,-11.95,11.26,-6.6331096,1
13,1547332225000,0.69,19.15,-1.3075534,1
13,1547382304000,-2.72,18.01,9.575105,1
13,1547432231000,2.98,0.31,4.9850473,1
13,1547482341000,10.27,5.52,2.8330324,1
13,1547532237000,-4.9,1.18,2.4108016,1
13,1547582286000,-0.08,6.24,4.8216033,1
13,1547632243000,2.87,18.7,9.575105,1
13,1547682353000,-2.53,19.57,8.662541,1
13,1547732249000,1.8,12.68,-5.325556,1
13,1547782298000,-3.41,-9.53,-13.525005,1
13,1547832255000,-1.42,-7.7,-13.375181,1
13,1547882304000,0.04,-1.57,-7.8861814,1
13,1547932231000,0.23,16.21,11.985906,1
13,1547982310000,-3.68,9.85,-4.1814466,1
13,1548032268000,-12.76,10.27,-9.765789,1
13,1548082316000,-0.38,19.5,-4.671779,1
13,1548132274000,-2.83,16.74,13.824653,1
13,1548182323000,7.21,-1.65,4.2086873,1
13,1548232158000,8.35,7.06,5.012288,1
13,1548283061000,-6.63,-2.64,2.9556155,1
13,1548283061000,-6.63,-2.64,2.9556155,1
13,0,0.0,0.0,0.0,1
13,0,0.0,0.0,0.0,1
13,1548452190000,-4.48,19.57,3.718355,1
13,1548452190000,-4.48,19.57,3.718355,1
13,1548452190000,-4.48,19.57,3.718355,1
13,0,0.0,0.0,0.0,1
13,1548672404000,0.53,4.9,-0.95342433,1
13,1548722545000,-3.36,19.34,15.785983,1
13,1548722545000,-3.36,19.34,15.785983,1
13,1548822398000,-13.33,16.55,-6.66035,1
13,1548872417000,11.54,19.57,9.152874,1
13,1548922374000,-4.21,5.83,7.3141265,1
13,1548972270000,8.81,2.83,6.851035,1
13,1549022288000,1.84,2.53,5.012288,1
13,1549072307000,-5.52,-0.8,2.8330324,1
13,1549122295000,2.96,6.93,2.7649305,1
13,1549172282000,1.73,19.31,12.571581,1
13,1549222301000,-2.6,19.57,4.944186,1
13,1549272258000,6.55,9.3,-9.275456,1
13,1549322307000,-5.41,-8.58,-17.161638,1
13,1549372264000,-1.42,-8.39,-8.580819,1
13,1549422282000,-0.08,-1.53,-6.6331096,1
13,1549472240000,-0.08,16.32,9.302697,1
13,1549522258000,1.65,5.01,-6.2108784,1
13,1549572276000,-15.79,18.28,-9.384419,1
13,1549622295000,0.27,19.57,3.0645783,1
13,1549672282000,-3.49,17.54,10.528529,1
13,1549722301000,4.67,-1.42,4.399372,1
13,1549772197000,6.7,7.12,5.284695,1
13,1549822887000,-5.82,-0.99,3.990762,1
13,0,0.0,0.0,0.0,1
13,1549942241000,3.06,17.69,11.958665,1
13,1549942241000,3.06,17.69,11.958665,1
13,0,0.0,0.0,0.0,1
13,1550102580000,-4.1,-10.27,-14.369467,1
13,1550152110000,-0.04,-6.21,-9.656827,1
13,1550202312000,-0.38,0.0,-5.5162406,1
13,1550252482000,-0.38,17.88,16.3989,1
13,1550302287000,-4.4,4.06,-6.1291566,1
13,1550352367000,-10.0,14.75,-12.176591,1
13,1550402263000,8.96,19.57,4.2904096,1
13,1550452312000,-9.81,14.02,8.771504,1
13,1550502269000,7.01,-0.8,5.706926,1
13,1550502269000,7.01,-0.8,5.706926,1
13,1550573680000,3.95,4.86,10.079058,1
13,0,0.0,0.0,0.0,1
13,1550782298000,7.35,17.5,-2.3018389,1
13,0,0.0,0.0,0.0,1
13,1550883067000,-0.84,-7.82,-14.09706,1
13,1550942271000,-0.34,-3.98,-8.117727,1
13,1550942271000,-0.34,-3.98,-8.117727,1
13,1551042155000,-1.61,9.89,2.3699405,1
13,1551042155000,-1.61,9.89,2.3699405,1
13,1551142222000,-2.49,18.85,-5.9793324,1
13,1551142222000,-2.49,18.85,-5.9793324,1
13,1551202312000,-3.83,18.5,13.633968,1
13,1551252330000,5.41,0.0,4.2904096,1
13,1551302287000,8.66,6.09,2.3018389,1
13,1551352122000,-3.6,-0.3,2.6423476,1
13,1551412761000,-0.34,5.56,4.5219555,1
13,1551412761000,-0.34,5.56,4.5219555,1
13,1551412761000,-0.34,5.56,4.5219555,1
13,1551502116000,-6.7,19.57,9.847511,1
13,0,0.0,0.0,0.0,1
13,1551682201000,-0.27,-6.02,-10.310603,1
13,1551682201000,-0.27,-6.02,-10.310603,1
13,1551782359000,-2.03,17.69,15.213928,1
13,1551832378000,-6.85,8.62,-9.084772,1
13,1551882243000,-8.24,14.21,-6.932757,1
13,1551932292000,11.35,19.57,8.390134,1
13,1551982249000,-7.93,8.96,8.281172,1
13,1552032237000,8.28,0.0,5.6660647,1
13,1552032237000,8.28,0.0,5.6660647,1
13,1552032237000,8.28,0.0,5.6660647,1
13,0,0.0,0.0,0.0,1
13,0,0.0,0.0,0.0,1
13,1552222118000,1.57,19.57,13.211738,1
13,1552222118000,1.57,19.57,13.211738,1
13,0,0.0,0.0,0.0,1
13,1552412181000,0.93,-8.73,-11.495573,1
13,1552412181000,0.93,-8.73,-11.495573,1
13,1552512218000,-0.46,16.25,11.304889,1
13,1552562327000,-2.79,9.96,-9.084772,1
13,1552612254000,-11.88,9.19,-6.701211,1
13,1552662273000,5.98,19.5,-1.3756552,1
13,1552712230000,-7.5,14.33,12.871228,1
13,1552762279000,4.82,0.8,5.829509,1
13,1552812266000,8.31,5.71,3.9090397,1
13,1552862285000,-3.91,-0.61,-1.525479,1
13,1552912242000,2.87,4.99,1.9477097,1
13,1552962260000,2.76,19.27,12.258313,1
13,1553012248000,-6.32,19.57,9.084772,1
13,1553062266000,4.67,9.19,-7.3958488,1
13,1553112254000,-4.79,-12.76,-13.402422,1
13,1553162273000,1.12,-6.36,-10.269742,1
13,1553212230000,-0.15,-0.69,-6.510526,1
13,1553262309000,0.93,17.54,12.721405,1
13,1553312205000,-2.91,7.35,-5.7886477,1
13,1553362315000,-12.37,9.08,-10.269742,1
13,1553412242000,-1.99,19.53,-1.879608,1
13,1553462260000,-1.88,18.62,10.419566,1
13,1553512218000,1.54,-1.92,4.7126403,1
13,1553562297000,8.66,6.47,4.671779,1
13,1553612224000,-4.56,0.31,5.2165933,1
13,1553662273000,2.53,2.41,5.2165933,1
13,1553712230000,6.24,14.18,3.8681788,1
13,1553762279000,-9.19,19.57,11.836082,1
13,1553812205000,5.6,19.42,2.9556155,1
13,1553862315000,7.27,-5.2,-13.865514,1
13,1553912211000,-4.48,-7.12,-14.206022,1
13,1553962291000,2.22,-6.63,-9.80665,1
13,1554012248000,1.73,5.18,2.0294318,1
13,1554062266000,-5.52,15.83,13.0619135,1
13,1554112254000,-6.59,10.23,-9.234595,1
13,1554162273000,-7.27,16.21,-11.032481,1
13,1554212230000,8.85,19.57,10.841797,1
13,1554262279000,-3.53,7.46,7.5865335,1
13,1554312236000,5.6,2.53,5.9793324,1
13,1554362285000,2.26,4.06,8.812365,1
13,1554412364000,-0.61,0.08,-0.08172209,1
13,1554462291000,4.1,11.18,2.7240696,1
13,1554512187000,-6.78,19.57,13.33432,1
13,1554512187000,-6.78,19.57,13.33432,1
13,1554512187000,-6.78,19.57,13.33432,1
13,1554672282000,0.31,-8.77,-15.050485,1
13,1554722331000,-1.31,-4.02,-8.921328,1
13,1554772227000,-1.27,9.7,2.4516625,1
13,1554822276000,-1.73,15.89,9.575105,1
13,1554872264000,-6.32,7.55,-10.501288,1
13,1554922282000,-6.74,18.16,-6.6331096,1
13,1554972270000,2.53,19.57,13.593107,1
13,1555022258000,-2.53,5.94,7.668256,1
13,1555072215000,9.66,3.64,5.434519,1
13,1555122264000,-4.71,2.68,5.6252036,1
13,1555172252000,-1.57,5.09,7.0553403,1
13,1555222270000,4.6,16.47,8.240311,1
13,1555272227000,-8.08,19.57,7.9679036,1
13,1555322276000,6.17,16.04,-2.7921712,1
13,1555372264000,-1.23,-11.03,-15.173067,1
13,1555422252000,1.27,-7.46,-11.985906,1
13,1555472240000,-1.33,-2.56,-10.18802,1
13,1555522227000,-0.61,14.79,12.067628,1
13,1555572215000,-2.37,12.79,-4.2086873,1
13,1555622264000,-6.36,2.6,-10.501288,1
13,1555672343000,-2.83,19.5,-0.46309182,1
13,1555672343000,-2.83,19.5,-0.46309182,1
13,1555732371000,-4.71,15.32,11.264028,1
13,1555782115000,5.94,-1.08,5.407278,1
13,1555782115000,5.94,-1.08,5.407278,1
13,0,0.0,0.0,0.0,1
13,1555902171000,-3.57,2.72,5.012288,1
13,1555952251000,6.78,15.24,4.1814466,1
13,1555952251000,6.78,15.24,4.1814466,1
13,1556042247000,6.02,19.57,3.5276701,1
13,0,0.0,0.0,0.0,1
13,1556142161000,-3.41,-7.44,-16.589584,1
13,1556142161000,-3.41,-7.44,-16.589584,1
13,1556242198000,-2.98,4.67,-0.3405087,1
13,1556292308000,-2.64,18.05,15.6634,1
13,1556342235000,-1.53,11.22,-12.4489975,1
13,1556392284000,-9.62,14.56,-4.2495484,1
13,1556442241000,7.82,19.57,6.742072,1
13,1556492259000,-4.29,9.77,9.302697,1
13,1556542277000,7.67,0.38,5.407278,1
13,1556542277000,7.67,0.38,5.407278,1
13,1556613597000,-6.21,1.92,4.0588636,1
13,0,0.0,0.0,0.0,1
13,0,0.0,0.0,0.0,1
13,0,0.0,0.0,0.0,1
13,1556822826000,3.06,10.34,-4.671779,1
13,1556872111000,-0.95,-8.66,-13.783792,1
13,1556922313000,-1.42,-6.55,-12.408136,1
13,1556972240000,-2.68,-0.5,-8.390134,1
13,1557022288000,-1.14,15.09,14.09706,1
13,1557072154000,-2.6,13.44,-11.917805,1
13,1557122264000,-8.31,6.32,-5.407278,1
13,1557172282000,4.37,19.46,2.4516625,1
13,1557222270000,-7.46,14.48,11.985906,1
13,1557272258000,5.94,-1.12,5.134871,1
13,1557322276000,7.82,6.17,4.5219555,1
13,1557372111000,-6.36,1.08,1.2258313,1
13,1557422282000,2.03,10.42,0.8036005,1
13,0,0.0,0.0,0.0,1
13,1557532298000,0.99,19.57,5.366417,1
13,1557532298000,0.99,19.57,5.366417,1
13,0,0.0,0.0,0.0,1
13,1557692943000,-2.64,-4.25,-11.032481,1
13,1557692943000,-2.64,-4.25,-11.032481,1
13,1557802257000,1.65,8.66,-4.1814466,1
13,1557852244000,-9.0,9.0,-8.117727,1
13,1557902568000,-0.69,19.53,4.3312707,1
13,0,0.0,0.0,0.0,1
13,0,0.0,0.0,0.0,1
13,0,0.0,0.0,0.0,1
13,0,0.0,0.0,0.0,1
13,1558362376000,-4.29,-12.3,-16.88923,1
13,1558412273000,-0.57,-6.51,-10.923519,1
13,1558462169000,-3.64,-0.27,-7.8180795,1
13,1558512279000,-1.27,16.7,11.536434,1
13,1558562419000,3.6,0.8,-7.6546354,1
13,1558622233000,-16.59,18.54,-2.1792557,1
13,1558682262000,12.64,19.57,4.8216033,1
13,1558732219000,-9.58,13.38,8.349273,1
13,1558732219000,-9.58,13.38,8.349273,1
13,1558832164000,6.78,5.18,2.6832085,1
13,1558832164000,6.78,5.18,2.6832085,1
13,1558888652000,-5.6,-2.68,-0.14982383,1
13,0,0.0,0.0,0.0,1
13,1559002513000,2.56,19.57,13.947236,1
13,1559002513000,2.56,19.57,13.947236,1
13,0,0.0,0.0,0.0,1
13,0,0.0,0.0,0.0,1
13,1559175609000,-1.73,-6.78,-14.328606,1
13,1559232310000,-1.27,-5.67,-9.534244,1
13,1559282329000,-1.76,13.25,10.038197,1
13,1559332347000,0.95,9.11,-4.0180025,1
13,1559382365000,-9.92,13.14,-9.534244,1
13,1559432262000,0.8,19.57,1.1441092,1
13,1559482280000,-5.98,16.7,11.836082,1
13,1559532268000,4.21,-0.08,4.8216033,1
13,1559532268000,4.21,-0.08,4.8216033,1
13,0,0.0,0.0,0.0,1
13,0,0.0,0.0,0.0,1
13,1559712199000,2.53,10.99,1.607201,1
13,1559792277000,-7.78,19.57,9.112013,1
13,0,0.0,0.0,0.0,1
13,1559892222000,1.46,-6.47,-17.583868,1
13,1559953075000,-2.98,-7.31,-15.009624,1
13,1560002208000,-0.11,-4.14,-6.3607025,1
13,1560052318000,-0.34,13.91,12.217452,1
13,1560102244000,-2.49,7.97,-4.440233,1
13,1560152324000,-6.09,9.04,-14.709975,1
13,1560212230000,3.79,19.57,1.607201,1
13,1560262279000,-9.15,15.02,11.264028,1
13,1560312266000,5.56,-1.8,3.255263,1
13,1560362224000,6.74,7.16,4.0588636,1
13,1560419383000,-5.86,-1.88,1.4982382,1
13,1560419383000,-5.86,-1.88,1.4982382,1
13,0,0.0,0.0,0.0,1
13,0,0.0,0.0,0.0,1
13,0,0.0,0.0,0.0,1
13,1560572154000,-7.78,19.57,6.66035,1
13,1560572154000,-7.78,19.57,6.66035,1
13,1560572154000,-7.78,19.57,6.66035,1
13,0,0.0,0.0,0.0,1
13,0,0.0,0.0,0.0,1
13,1560882243000,0.38,6.02,-16.43976,1
13,1560882243000,0.38,6.02,-16.43976,1
13,1560982646000,-1.95,19.57,5.175732,1
13,1561032329000,-8.77,10.34,11.264028,1
13,1561032329000,-8.77,10.34,11.264028,1
13,1561082378000,11.69,-0.15,2.8330324,1
13,1561082378000,11.69,-0.15,2.8330324,1
13,0,0.0,0.0,0.0,1
13,1561222179000,1.76,7.31,2.982856,1
13,1561272594000,4.06,19.04,8.921328,1
13,1561272594000,4.06,19.04,8.921328,1
13,0,0.0,0.0,0.0,1
13,1561452220000,0.93,-4.37,-15.6634,1
13,1561452220000,0.93,-4.37,-15.6634,1
13,1561552440000,-0.69,5.75,-1.3075534,1
13,1561602214000,-2.91,18.12,10.800936,1
13,1561652324000,-5.67,11.65,-8.812365,1
13,1561702220000,-8.73,17.69,-3.9771416,1
13,1561752330000,7.89,19.57,10.337844,1
13,1561812236000,1.92,0.0,4.7126403,1
13,1561862224000,7.82,7.4,5.5162406,1
13,1561912242000,-5.94,-0.91,5.175732,1
13,1561962199000,1.99,4.75,4.862464,1
13,1562012248000,5.6,15.85,4.944186,1
13,1562062205000,-10.69,19.57,10.337844,1
13,1562112254000,4.67,17.69,-0.95342433,1
13,1562162242000,1.95,-9.04,-14.2877445,1
13,1562212260000,-1.33,-7.21,-14.9006605,1
13,1562262248000,-0.57,-4.4,-11.454713,1
13,1562312266000,0.8,9.3,7.6273947,1
13,1562362254000,-2.56,12.98,8.662541,1
13,1562412303000,-7.01,11.69,-8.689782,1
13,1562462199000,-7.65,18.31,-8.267551,1
13,1562512279000,7.35,19.57,13.252599,1
13,1562562266000,-3.02,6.78,6.4424243,1
13,1562612285000,6.21,1.04,7.8861814,1
13,1562662242000,1.61,3.6,8.076866,1
13,1562712260000,-3.11,0.61,1.3756552,1
13,1562762248000,2.49,8.81,0.88532263,1
13,1562812236000,-0.61,19.57,14.1787815,1
13,1562862224000,0.0,19.57,3.405087,1
13,1562912273000,4.37,2.53,-6.6331096,1
13,1562962230000,-3.72,-5.75,-13.633968,1
13,1563012279000,-1.23,-7.5,-11.604536,1
13,1563062205000,-0.46,1.08,-5.8567495,1
13,1563112285000,-0.91,17.27,16.970953,1
13,1563162242000,-3.41,7.74,-11.536434,1
13,1563212260000,-9.53,12.18,-7.3549876,1
13,1563262248000,7.93,19.57,2.1792557,1
13,1563312266000,-8.96,13.53,10.038197,1
13,1563362224000,9.23,0.31,4.8216033,1
13,1563362224000,9.23,0.31,4.8216033,1
13,1563462108000,-5.01,-1.18,-0.040861044,1
13,1563462108000,-5.01,-1.18,-0.040861044,1
13,1563522288000,2.87,10.92,0.50395286,1
13,1563522288000,2.87,10.92,0.50395286,1
13,0,0.0,0.0,0.0,1
13,1563632762000,5.6,19.53,2.7649305,1
13,1563632762000,5.6,19.53,2.7649305,1
13,0,0.0,0.0,0.0,1
13,1563812205000,-0.08,1.61,-6.701211,1
13,1563862559000,-0.72,17.5,15.28203,1
13,1563862559000,-0.72,17.5,15.28203,1
13,1563962321000,-4.1,10.73,-10.56939,1
13,1564012279000,7.89,19.57,6.4015636,1
13,1564062358000,-10.19,9.66,8.894087,1
13,1564112285000,8.43,1.76,8.499097,1
13,1564162303000,4.63,4.1,4.399372,1
13,1564212230000,-4.94,0.84,-0.040861044,1
13,1564262279000,2.79,12.53,2.1792557,1
13,1564312266000,-5.71,19.57,12.762266,1
13,1564362285000,5.98,19.57,4.4810944,1
13,1564412211000,2.6,-1.76,-10.841797,1
13,1564462260000,-2.22,-8.35,-14.750836,1
13,1564512218000,0.34,-5.52,-10.337844,1
13,1564562297000,-1.18,5.67,-2.5333846,1
13,1564612254000,-3.11,17.5,14.47843,1
13,1564662303000,-6.59,7.08,-7.3958488,1
13,1564712230000,-5.01,13.72,-7.205164,1
13,1564762340000,8.31,19.57,5.243834,1
13,1564812205000,-10.23,10.38,8.349273,1
13,1564862315000,9.92,-0.95,5.938472,1
13,1564912211000,1.8,5.05,7.3141265,1
13,1564912211000,1.8,5.05,7.3141265,1
13,1564912211000,1.8,5.05,7.3141265,1
13,1564912211000,1.8,5.05,7.3141265,1
13,1564963817000,-4.21,0.53,0.5720546,1
13,1565082957000,-7.08,19.57,11.536434,1
13,0,0.0,0.0,0.0,1
13,0,0.0,0.0,0.0,1
13,1565305308000,0.53,1.04,-5.366417,1
13,1565305308000,0.53,1.04,-5.366417,1
13,1565305308000,0.53,1.04,-5.366417,1
13,1565413005000,-6.89,12.98,-13.525005,1
13,1565462413000,-7.46,8.01,-10.7192135,1
13,1565513072000,7.46,19.57,6.0474343,1
13,1565563579000,-7.5,11.22,8.430995,1
13,1565613048000,11.5,2.22,6.0474343,1
13,1565613048000,11.5,2.22,6.0474343,1
13,0,0.0,0.0,0.0,1
13,0,0.0,0.0,0.0,1
13,1565792186000,4.48,17.27,8.921328,1
13,1565792186000,4.48,17.27,8.921328,1
13,0,0.0,0.0,0.0,1
13,1565982158000,-0.89,-5.94,-12.367276,1
13,1566033397000,-0.72,-3.91,-10.923519,1
13,1566082225000,1.95,12.41,8.921328,1
13,1566132335000,1.69,13.91,-2.9147544,1
13,1566182231000,-9.43,5.67,-5.012288,1
13,1566232341000,-7.46,18.12,-5.202973,1
13,1566292277000,3.11,17.31,10.991621,1
13,1566342265000,3.87,0.57,5.7886477,1
13,1566392284000,10.04,5.67,3.568531,1
13,1566442210000,-6.13,0.61,-0.14982383,1
13,1566442210000,-6.13,0.61,-0.14982383,1
13,1566542247000,1.61,19.57,12.9529505,1
13,1566542247000,1.61,19.57,12.9529505,1
13,1566642284000,4.86,6.59,-8.19945,1
13,1566692332000,-4.14,-8.85,-11.985906,1
13,1566692332000,-4.14,-8.85,-11.985906,1
13,1566753245000,0.89,-7.4,-10.56939,1
13,1566803660000,1.04,1.95,-5.434519,1
13,1566853099000,-3.06,18.62,16.86199,1
13,1566903545000,-8.12,11.5,-13.402422,1
13,1566953014000,-7.12,9.89,-8.812365,1
13,1567003490000,7.93,19.57,5.134871,1
13,1567053020000,-6.47,10.92,8.921328,1
13,1567103404000,7.59,-0.5,6.4424243,1
13,1567152110000,5.83,6.89,4.440233,1
13,1567206676000,-4.67,-0.3,-1.3075534,1
13,1567206676000,-4.67,-0.3,-1.3075534,1
13,0,0.0,0.0,0.0,1
13,0,0.0,0.0,0.0,1
13,1567452159000,-5.2,-10.34,-13.525005,1
13,1567452159000,-5.2,-10.34,-13.525005,1
13,1567552379000,-1.99,-0.61,-7.9270425,1
13,1567552379000,-1.99,-0.61,-7.9270425,1
13,1567652202000,-4.71,12.34,-10.337844,1
13,1567652202000,-4.71,12.34,-10.337844,1
13,1567712291000,-8.24,10.0,-10.882658,1
13,1567762279000,11.65,19.57,5.6252036,1
13,1567812266000,-7.97,12.03,9.575105,1
13,1567862285000,5.48,1.5,5.6252036,1
13,1567912273000,7.46,6.82,5.6252036,1
13,1567962260000,-5.01,-1.76,-0.8036005,1
13,1568012309000,3.68,6.85,1.7978859,1
13,1568062266000,2.07,19.19,12.108489,1
13,1568112315000,-8.16,19.57,5.938472,1
13,1568162273000,8.08,10.61,-6.1700177,1
13,1568212291000,-3.57,-8.5,-14.601013,1
13,1568262279000,1.46,-7.44,-11.604536,1
13,1568262279000,1.46,-7.44,-11.604536,1
13,1568362132000,-2.26,14.9,8.662541,1
13,1568412303000,-0.91,8.35,-3.8681788,1
13,1568462260000,-10.61,11.96,-7.273266,1
13,1568512279000,3.76,19.23,-4.2904096,1
13,1568562297000,-4.67,18.47,14.410328,1
13,1568612285000,0.69,2.22,4.0588636,1
13,1568662303000,10.23,5.22,5.012288,1
13,1568712260000,-4.99,-0.08,4.0588636,1
13,1568762309000,0.99,4.1,3.5276701,1
13,1568812266000,1.65,18.92,8.921328,1
13,1568862346000,-9.58,19.57,8.580819,1
13,1568912273000,6.97,15.85,-0.5720546,1
13,1568962321000,0.57,-10.19,-14.941522,1
13,1569012279000,-1.8,-6.93,-12.912089,1
13,1569062297000,0.57,-1.61,-9.302697,1
13,1569112285000,0.19,14.25,8.049625,1
13,1569162273000,-1.31,11.54,-2.1111538,1
13,1569212260000,-11.03,7.44,-8.880466,1
13,1569262279000,-3.36,17.67,-4.440233,1
13,1569312266000,1.8,18.89,14.015338,1
13,1569362315000,-0.89,0.15,4.440233,1
13,1569412273000,9.19,7.82,2.7921712,1
13,1569462321000,-3.49,-0.11,6.0201936,1
13,1569512157000,0.31,2.76,6.3198414,1
13,1569562572000,3.49,13.8,4.7535014,1
13,1569612285000,-8.85,19.57,11.985906,1
13,1569662334000,6.24,18.77,3.445948,1
13,1569722270000,0.19,-8.24,-12.408136,1
13,1569782237000,-0.38,-4.67,-13.33432,1
13,1569832255000,-0.91,-1.69,-9.847511,1
13,1569882335000,-0.57,14.1,8.771504,1
13,1569932262000,-2.49,10.19,-6.973618,1
13,1569982310000,-11.26,11.56,-6.469665,1
13,1570032268000,3.15,18.85,0.3405087,1
13,1570082316000,-3.98,17.62,11.727119,1
13,1570132243000,5.63,1.23,5.8567495,1
13,1570182292000,8.28,5.86,2.8330324,1
13,1570232219000,-5.33,0.8,-0.46309182,1
13,1570282298000,0.61,6.36,4.944186,1
13,1570332255000,4.67,19.38,11.304889,1
13,1570382304000,-7.4,19.57,5.8976107,1
13,1570432231000,7.12,11.18,-6.6331096,1
13,1570482310000,-5.18,-11.3,-13.6748295,1
13,1570532268000,2.07,-7.12,-11.917805,1
13,1570582316000,-0.5,0.84,-7.5865335,1
13,1570632274000,-3.34,18.31,15.704261,1
13,1570682292000,-6.85,12.37,-13.715691,1
13,1570742808000,-3.26,3.3,-9.575105,1
13,1570792216000,10.69,19.57,8.117727,1
13,1570842296000,-7.97,11.35,10.18802,1
13,1570842296000,-7.97,11.35,10.18802,1
13,1570842296000,-7.97,11.35,10.18802,1
13,1570962382000,-2.37,3.06,8.962189,1
13,0,0.0,0.0,0.0,1
13,0,0.0,0.0,0.0,1
13,1571072124000,3.64,17.86,8.894087,1
13,1571072124000,3.64,17.86,8.894087,1
13,0,0.0,0.0,0.0,1
13,1571273418000,0.42,-6.82,-12.176591,1
13,1571273418000,0.42,-6.82,-12.176591,1
13,1571372203000,0.38,14.75,10.841797,1
13,1571422374000,-3.36,12.72,-6.3607025,1
13,1571472240000,-7.55,4.21,-7.164303,1
13,1571522288000,-0.38,19.34,-0.23154591,1
13,1571572276000,-3.45,17.54,13.211738,1
13,1571622264000,0.8,-2.75,3.636633,1
13,1571672252000,12.76,7.06,4.671779,1
13,1571722270000,-7.89,-1.5,2.6423476,1
13,1571772227000,-1.5,8.5,4.8216033,1
13,1571822276000,4.02,19.15,10.841797,1
13,1571872203000,-8.54,19.57,6.2108784,1
13,1571922282000,8.35,10.5,-6.1700177,1
13,1571972240000,-4.44,-10.92,-14.709975,1
13,1572022258000,2.3,-6.93,-12.026767,1
13,1572072246000,-0.76,-1.38,-7.3549876,1
13,1572122264000,-1.12,16.51,9.615966,1
13,1572172221000,-1.31,12.26,-6.932757,1
13,1572222270000,-8.5,5.94,-6.5922484,1
13,1572272197000,-0.19,18.73,1.0351465,1
13,1572322276000,-4.02,17.47,11.413852,1
13,1572372203000,3.91,-1.04,3.2961242,1
13,1572422343000,11.14,5.56,6.1700177,1
13,1572472118000,-5.13,-0.5,1.7570249,1
13,1572472118000,-5.13,-0.5,1.7570249,1
13,1572533122000,0.99,5.98,3.568531,1
13,1572533122000,0.99,5.98,3.568531,1
13,1572533122000,0.99,5.98,3.568531,1
13,0,0.0,0.0,0.0,1
13,1572715312000,2.26,-7.04,-13.565866,1
13,1572772166000,-0.99,-6.82,-14.560152,1
13,1572822276000,-0.38,-2.03,-8.539958,1
13,1572872233000,-1.23,12.45,7.504812,1
13,1572922435000,-2.6,8.01,1.1441092,1
13,1572982280000,-10.42,13.18,-9.043911,1
13,1573042247000,10.27,19.57,5.7477865,1
13,1573092235000,-11.65,14.02,9.343558,1
13,1573142314000,5.01,-0.99,6.469665,1
13,1573142314000,5.01,-0.99,6.469665,1
13,1573142314000,5.01,-0.99,6.469665,1
13,1573142314000,5.01,-0.99,6.469665,1
13,1573142314000,5.01,-0.99,6.469665,1
13,0,0.0,0.0,0.0,1
13,0,0.0,0.0,0.0,1
13,1573492107000,-6.24,-9.66,-14.1787815,1
13,1573492107000,-6.24,-9.66,-14.1787815,1
13,1573592174000,-0.69,-0.11,-7.082581,1
13,1573642284000,-1.42,16.66,13.143636,1
13,1573692241000,-3.11,10.99,-5.938472,1
13,1573742290000,-9.15,9.04,-7.6954966,1
13,1573792247000,2.03,19.46,2.7921712,1
13,1573842265000,-2.96,16.63,9.534244,1
13,1573892253000,4.37,1.99,4.862464,1
13,1573942302000,7.44,6.89,3.5276701,1
13,1573992229000,-5.6,-1.23,1.6480621,1
13,1574042308000,1.88,7.59,4.372132,1
13,1574092235000,2.79,19.04,9.697687,1
13,1574142314000,-4.82,19.57,6.469665,1
13,1574192241000,2.64,10.76,-4.372132,1
13,1574242290000,-1.95,-10.69,-14.056199,1
13,1574292247000,0.19,-7.5,-11.223166,1
13,1574342265000,-1.33,-0.42,-6.932757,1
13,1574392222000,-1.84,17.47,14.206022,1
13,1574442271000,-2.34,7.74,-9.00305,1
13,1574492229000,-7.86,6.78,-9.384419,1
13,1574542277000,0.11,19.57,-1.6889231,1
13,1574592235000,-6.36,16.89,12.721405,1
13,1574642314000,6.4,-0.89,5.012288,1
13,1574692210000,8.54,6.28,1.9477097,1
13,1574744029000,-6.85,-0.46,0.5720546,1
13,1574744029000,-6.85,-0.46,0.5720546,1
13,0,0.0,0.0,0.0,1
13,1574852244000,0.31,19.57,12.53072,1
13,1574852244000,0.31,19.57,12.53072,1
13,0,0.0,0.0,0.0,1
13,0,0.0,0.0,0.0,1
13,1575082316000,0.53,-4.21,-9.302697,1
13,1575082316000,0.53,-4.21,-9.302697,1
13,1575182567000,-5.63,17.58,4.099725,1
13,1575232555000,-7.82,2.49,-7.3141265,1
13,1575282207000,-6.43,16.51,-5.597963,1
13,1575332225000,6.21,19.57,8.853226,1
13,1575382274000,-5.6,4.06,7.8180795,1
13,1575432262000,11.45,2.41,5.829509,1
13,1575432262000,11.45,2.41,5.829509,1
13,1575432262000,11.45,2.41,5.829509,1
13,0,0.0,0.0,0.0,1
13,0,0.0,0.0,0.0,1
13,1575622142000,-2.45,19.57,13.021052,1
13,1575622142000,-2.45,19.57,13.021052,1
13,0,0.0,0.0,0.0,1
13,1575812205000,-0.95,-5.13,-12.367276,1
13,1575862437000,1.46,0.23,-4.2904096,1
13,1575912242000,-0.8,19.08,16.630445,1
13,1575962230000,-9.47,8.5,-10.147159,1
13,1576012279000,-7.4,9.7,-9.043911,1
13,1576062327000,9.81,19.57,2.070293,1
13,1576112254000,-8.81,10.69,9.615966,1
13,1576162273000,6.09,0.76,4.671779,1
13,1576212138000,6.13,6.28,8.008764,1
13,1576212138000,6.13,6.28,8.008764,1
13,1576270030000,-4.82,0.31,0.040861044,1
13,1576270030000,-4.82,0.31,0.040861044,1
13,1576270030000,-4.82,0.31,0.040861044,1
13,1576270030000,-4.82,0.31,0.040861044,1
13,0,0.0,0.0,0.0,1
13,1576532176000,-4.48,-12.15,-13.021052,1
13,1576582652000,2.26,-6.24,-10.337844,1
13,1576632304000,0.69,8.2,4.1814466,1
13,1576682292000,-4.44,13.53,13.947236,1
13,1576732310000,-9.38,9.28,-9.847511,1
13,1576782664000,-7.5,14.56,-10.56939,1
13,1576832286000,10.15,19.57,7.164303,1
13,1576882243000,-8.24,6.85,8.580819,1
13,1576932231000,8.43,-0.3,6.2108784,1
13,1576932231000,8.43,-0.3,6.2108784,1
13,0,0.0,0.0,0.0,1
13,0,0.0,0.0,0.0,1
13,1577102305000,1.18,12.57,2.3018389,1
13,1577102305000,1.18,12.57,2.3018389,1
13,0,0.0,0.0,0.0,1
13,1577293468000,-4.21,-8.85,-15.5135765,1
13,1577293468000,-4.21,-8.85,-15.5135765,1
13,1577393230000,0.31,1.95,-4.8216033,1
13,1577442210000,-1.73,18.58,18.155924,1
13,1577492290000,-5.9,10.27,-13.715691,1
13,1577542216000,-12.15,15.05,-6.66035,1
13,1577592326000,11.69,19.57,6.782933,1
13,1577652232000,-1.65,9.23,9.302697,1
13,1577702220000,8.85,1.69,6.6331096,1
13,1577702220000,8.85,1.69,6.6331096,1
13,1577802165000,-4.79,0.5,2.5333846,1
13,1577802165000,-4.79,0.5,2.5333846,1
13,1577872264000,6.4,16.59,8.281172,1
13,1577872264000,6.4,16.59,8.281172,1
13,0,0.0,0.0,0.0,1
13,1578122233000,-1.08,-3.87,-8.390134,1
13,1578122233000,-1.08,-3.87,-8.390134,1
13,1578222209000,-3.95,16.82,8.117727,1
13,1578272258000,-8.81,10.19,-8.471856,1
13,1578322398000,-7.46,18.24,-5.7477865,1
13,1578372233000,8.24,19.53,14.206022,1
13,1578422313000,-3.91,3.64,6.8237944,1
13,1578472240000,7.25,0.93,6.238119,1
13,1578472240000,7.25,0.93,6.238119,1
13,1578472240000,7.25,0.93,6.238119,1
13,0,0.0,0.0,0.0,1
13,0,0.0,0.0,0.0,1
13,0,0.0,0.0,0.0,1
13,0,0.0,0.0,0.0,1
13,1578812205000,-3.17,-5.79,-12.980191,1
13,1578812205000,-3.17,-5.79,-12.980191,1
13,1578912242000,0.99,-1.76,-8.349273,1
13,1578962352000,-0.53,12.57,9.152874,1
13,1579012279000,-2.26,9.28,-2.8738933,1
13,1579062297000,-8.5,11.14,-10.337844,1
13,1579112254000,1.38,19.57,-1.4165162,1
13,1579162273000,-5.71,1.12,4.0180025,1
13,1579212230000,4.25,1.12,4.0180025,1
13,1579262309000,8.12,6.13,5.012288,1
13,1579262309000,8.12,6.13,5.012288,1
13,1579362285000,-1.04,4.67,6.469665,1
13,1579412334000,1.92,18.66,9.724928,1
13,1579472240000,-1.95,19.57,5.366417,1
13,1579522197000,5.6,9.58,-6.891896,1
13,1579572276000,-4.29,-10.69,-13.1708765,1
13,1579622233000,1.27,-4.71,-9.765789,1
13,1579672252000,0.31,-0.53,-7.9679036,1
13,1579722240000,-1.23,16.74,11.985906,1
13,1579772227000,-6.85,14.94,-1.7978859,1
13,1579822246000,-2.3,4.06,-14.246883,1
13,1579872233000,3.21,19.57,3.9090397,1
13,1579922221000,-3.79,15.75,9.80665,1
13,1579972270000,3.57,0.42,4.140586,1
13,1580022166000,9.15,5.98,4.8216033,1
13,1580022166000,9.15,5.98,4.8216033,1
13,1580080028000,-6.89,-0.46,1.1849703,1
13,1580080028000,-6.89,-0.46,1.1849703,1
13,0,0.0,0.0,0.0,1
13,0,0.0,0.0,0.0,1
13,1580252238000,6.13,17.5,-1.525479,1
13,1580252238000,6.13,17.5,-1.525479,1
13,1580302714000,1.54,-11.6,-13.6748295,1
13,0,0.0,0.0,0.0,1
13,0,0.0,0.0,0.0,1
13,1580462138000,0.84,12.49,8.771504,1
13,1580562236000,-2.3,7.01,-14.709975,1
13,1580562236000,-2.3,7.01,-14.709975,1
13,1580662150000,-2.87,18.62,13.525005,1
13,1580712230000,-2.37,-0.99,4.399372,1
13,1580762248000,9.72,5.37,5.09401,1
13,1580812266000,-3.83,0.19,4.3312707,1
13,1580862285000,-0.3,4.63,5.7886477,1
13,1580912211000,3.11,14.71,5.6660647,1
13,1580962291000,-5.94,19.57,10.038197,1
13,1581012248000,7.59,16.09,-2.1111538,1
13,1581062266000,-0.72,-6.09,-14.2877445,1
13,1581112224000,-2.07,-6.93,-13.565866,1
13,1581162303000,-1.08,-4.75,-10.56939,1
13,1581212230000,2.3,11.99,9.888372,1
13,1581262248000,-2.03,8.08,0.6537767,1
13,1581312236000,-10.38,13.21,-9.575105,1
13,1581362285000,-0.53,19.19,-6.510526,1
13,1581412242000,-0.76,19.31,13.375181,1
13,1581462260000,3.45,2.03,8.308413,1
13,1581512279000,6.7,4.1,4.8216033,1
13,1581562297000,-3.64,1.14,5.2165933,1
13,1581612285000,0.89,1.31,4.8216033,1
13,1581662303000,5.05,13.53,3.1054392,1
13,1581712260000,-10.31,19.57,12.721405,1
13,1581762340000,8.12,19.5,0.9942854,1
13,1581812236000,3.38,-3.91,-12.980191,1
13,1581862315000,-1.5,-9.49,-15.241169,1
13,1581912273000,0.76,-5.43,-10.923519,1
13,1581962291000,0.53,5.71,0.27240697,1
13,1582012279000,-2.72,19.57,16.630445,1
13,1582062266000,-4.86,7.55,-13.0619135,1
13,1582112285000,-8.5,11.8,-6.0474343,1
13,1582162303000,11.18,19.57,9.534244,1
13,1582212230000,-7.35,9.62,8.471856,1
13,1582262279000,7.4,0.57,6.2789803,1
13,1582322154000,4.29,4.99,8.390134,1
13,1582372111000,-2.26,2.15,4.1814466,1
13,1582372111000,-2.26,2.15,4.1814466,1
13,1582372111000,-2.26,2.15,4.1814466,1
13,0,0.0,0.0,0.0,1
13,0,0.0,0.0,0.0,1
13,0,0.0,0.0,0.0,1
13,1582603953000,-2.53,-7.63,-13.715691,1
13,1582662334000,0.93,-6.32,-11.032481,1
13,1582712321000,1.27,3.3,-3.8681788,1
13,1582762340000,-4.86,19.42,16.358038,1
13,1582812236000,-6.47,8.01,-11.536434,1
13,1582862346000,-7.65,14.29,-8.880466,1
13,1582922313000,11.14,19.57,8.19945,1
13,1582972240000,-3.72,4.21,6.891896,1
13,1583022288000,8.39,4.79,7.205164,1
13,1583072215000,1.14,1.46,7.6273947,1
13,1583122295000,-1.95,1.38,4.399372,1
13,1583172282000,2.79,13.82,4.2904096,1
13,1583222270000,-4.21,19.57,12.067628,1
13,1583272227000,5.79,19.57,3.336985,1
13,1583322276000,1.31,-2.49,-11.304889,1
13,1583322276000,1.31,-2.49,-11.304889,1
13,1583432262000,-0.61,-5.13,-10.691973,1
13,1583432262000,-0.61,-5.13,-10.691973,1
13,1583532237000,-4.21,13.21,-1.2666923,1
13,1583582347000,-9.53,5.63,-11.032481,1
13,1583582347000,-9.53,5.63,-11.032481,1
13,1583582347000,-9.53,5.63,-11.032481,1
13,1583692363000,-4.37,16.21,10.228881,1
13,1583742259000,2.41,2.26,4.944186,1
13,1583792277000,9.0,6.05,4.3312707,1
13,1583842235000,-2.37,-0.5,3.173541,1
13,1583893687000,4.25,5.71,2.8330324,1
13,1583942241000,-0.23,19.53,10.038197,1
13,1583992229000,-5.2,19.57,5.2165933,1
13,1584042247000,3.53,14.37,-3.214402,1
13,1584092296000,-1.33,-7.97,-13.6748295,1
13,1584142284000,-0.11,-10.57,-11.795221,1
13,1584192241000,-1.31,0.31,-7.014479,1
13,1584242229000,-2.53,17.82,13.102775,1
13,1584292247000,-6.63,10.69,-7.7363577,1
13,1584343700000,-5.94,5.83,-10.310603,1
13,1584392253000,2.03,19.57,1.1441092,1
13,1584442241000,-2.45,15.47,10.691973,1
13,1584492229000,6.89,-0.04,4.3312707,1
13,1584592113000,-4.71,2.15,-0.53119355,1
13,1584592113000,-4.71,2.15,-0.53119355,1
13,1584643779000,-0.19,8.77,1.879608,1
13,1584643779000,-0.19,8.77,1.879608,1
13,1584732493000,-9.38,19.57,8.19945,1
13,1584732493000,-9.38,19.57,8.19945,1
13,0,0.0,0.0,0.0,1
13,0,0.0,0.0,0.0,1
13,1584962199000,0.53,5.79,-0.9125633,1
13,1585012340000,-2.07,14.33,7.205164,1
13,1585112285000,-7.55,15.85,-5.366417,1
13,1585112285000,-7.55,15.85,-5.366417,1
13,1585212230000,-3.11,6.4,5.6660647,1
13,1585212230000,-3.11,6.4,5.6660647,1
13,1585212230000,-3.11,6.4,5.6660647,1
13,1585262309000,8.28,2.11,6.5922484,1
13,0,0.0,0.0,0.0,1
13,0,0.0,0.0,0.0,1
13,0,0.0,0.0,0.0,1
13,0,0.0,0.0,0.0,1
13,0,0.0,0.0,0.0,1
13,1585622142000,-2.64,-7.12,-12.639683,1
13,1585682170000,-1.18,-1.08,-8.880466,1
13,1585732371000,-0.72,14.21,12.299174,1
13,1585782298000,-3.72,10.65,-5.053149,1
13,1585832347000,-4.59,7.06,-11.536434,1
13,1585892284000,5.01,19.57,1.4982382,1
13,1585942241000,-8.73,13.14,8.471856,1
13,1585992259000,4.63,0.72,5.2165933,1
13,1586042216000,9.43,5.18,3.214402,1
13,1586094096000,-3.45,-0.53,1.0351465,1
13,1586094096000,-3.45,-0.53,1.0351465,1
13,1586094096000,-3.45,-0.53,1.0351465,1
13,1586152293000,3.34,13.06,0.6537767,1
13,1586203380000,-9.3,19.57,10.56939,1
13,0,0.0,0.0,0.0,1
13,1586383189000,1.31,-7.12,-11.073342,1
13,1586383189000,1.31,-7.12,-11.073342,1
13,1586482249000,-1.73,15.6,12.026767,1
13,1586532390000,-5.43,10.23,-3.336985,1
13,1586582286000,-4.67,4.4,-14.056199,1
13,1586632243000,3.45,19.57,-1.525479,1
13,1586682506000,-7.97,16.32,11.876944,1
13,1586732341000,3.76,-0.91,4.0588636,1
13,1586732341000,3.76,-0.91,4.0588636,1
13,1586732341000,3.76,-0.91,4.0588636,1
13,1586732341000,3.76,-0.91,4.0588636,1
13,1586732341000,3.76,-0.91,4.0588636,1
13,1586732341000,3.76,-0.91,4.0588636,1
13,0,0.0,0.0,0.0,1
13,0,0.0,0.0,0.0,1
13,1587062114000,3.45,-0.34,-11.985906,1
13,1587112529000,-2.68,-14.06,-15.363752,1
13,1587162212000,1.76,-3.53,-9.956474,1
13,1587212230000,-0.72,8.24,2.982856,1
13,1587262279000,-4.33,16.25,13.824653,1
13,1587312389000,-7.31,10.8,-12.680544,1
13,1587362315000,-8.16,15.64,-7.04172,1
13,1587412273000,13.14,19.57,8.62168,1
13,1587462260000,-7.4,5.67,6.851035,1
13,1587512279000,6.4,1.5,7.7363577,1
13,1587562266000,2.87,4.86,9.425281,1
13,1587612285000,-3.45,1.23,-0.6946377,1
13,1587662273000,2.34,11.75,3.2961242,1
13,1587712260000,-5.01,19.57,12.639683,1
13,1587762279000,6.82,19.5,1.879608,1
13,1587812266000,4.02,-1.38,-12.762266,1
13,1587862285000,-3.06,-10.65,-13.0619135,1
13,1587912303000,0.89,-4.82,-10.882658,1
13,1587962230000,0.23,5.43,-0.9942854,1
13,1588012309000,-5.18,19.23,17.66559,1
13,1588062266000,-5.09,10.08,-12.9529505,1
13,1588112315000,-5.98,8.81,-7.8180795,1
13,1588162273000,8.47,19.57,7.205164,1
13,1588212260000,-6.09,12.68,10.269742,1
13,1588262279000,9.34,-0.23,5.325556,1
13,1588312297000,2.49,6.13,8.158588,1
13,1588362132000,-4.9,-1.31,-1.0351465,1
13,1588413097000,1.27,9.11,2.4108016,1
13,1588476543000,2.87,19.57,14.7916975,1
13,0,0.0,0.0,0.0,1
13,0,0.0,0.0,0.0,1
13,0,0.0,0.0,0.0,1
13,1588682902000,-0.76,-4.79,-10.378705,1
13,1588682902000,-0.76,-4.79,-10.378705,1
13,1588782298000,-1.5,13.25,2.982856,1
13,1588832255000,-7.65,8.39,-9.656827,1
13,1588882243000,-7.12,17.86,-4.630918,1
13,1588882243000,-7.12,17.86,-4.630918,1
13,1588982249000,-0.53,3.57,3.8273177,1
13,1588982249000,-0.53,3.57,3.8273177,1
13,1589082255000,-3.95,-0.15,2.8330324,1
13,1589132274000,0.34,4.6,5.7886477,1
13,1589182231000,4.06,18.39,9.615966,1
13,1589232280000,-6.17,19.57,9.724928,1
13,1589282268000,5.28,15.21,-2.4925237,1
13,1589282268000,5.28,15.21,-2.4925237,1
13,1589382213000,1.12,-7.04,-10.760075,1
13,1589432231000,-2.07,-3.57,-11.495573,1
13,1589482249000,-1.8,13.99,8.158588,1
13,1589532268000,-1.12,9.43,-7.9679036,1
13,1589582255000,-9.15,11.99,-9.697687,1
13,1589632243000,8.43,18.96,3.8681788,1
13,1589682201000,-10.57,15.98,12.067628,1
13,1589682201000,-10.57,15.98,12.067628,1
13,1589782237000,8.66,4.21,4.0180025,1
13,1589832255000,-3.11,1.04,-1.4165162,1
13,1589882243000,2.3,5.71,1.920469,1
13,1589882243000,2.3,5.71,1.920469,1
13,1589982280000,-8.12,19.57,6.1700177,1
13,1590032237000,5.94,8.24,-6.782933,1
13,1590082255000,-5.37,-9.23,-14.1787815,1
13,1590132243000,0.15,-7.21,-11.536434,1
13,1590182231000,-2.14,-0.11,-7.04172,1
13,1590232280000,-2.18,17.58,17.311462,1
13,1590282329000,-0.27,3.49,-11.141444,1
13,1590282329000,-0.27,3.49,-11.141444,1
13,1590382243000,7.93,19.57,1.1168685,1
13,1590382243000,7.93,19.57,1.1168685,1
13,1590482616000,6.32,-1.38,7.0553403,1
13,1590482616000,6.32,-1.38,7.0553403,1
13,1590582591000,-6.51,1.38,0.53119355,1
13,1590582591000,-6.51,1.38,0.53119355,1
13,1590632609000,5.13,14.94,0.8036005,1
13,0,0.0,0.0,0.0,1
13,0,0.0,0.0,0.0,1
13,1590952190000,-1.99,13.57,11.686258,1
13,1590952190000,-1.99,13.57,11.686258,1
13,1591052348000,-3.26,-0.46,-6.0474343,1
13,1591052348000,-3.26,-0.46,-6.0474343,1
13,1591152354000,-11.37,17.43,17.583868,1
13,1591202312000,4.79,-1.38,3.8681788,1
13,1591202312000,4.79,-1.38,3.8681788,1
13,0,0.0,0.0,0.0,1
13,0,0.0,0.0,0.0,1
13,1591362224000,3.45,16.28,4.099725,1
13,1591362224000,3.45,16.28,4.099725,1
13,0,0.0,0.0,0.0,1
13,1591482799000,8.5,6.82,-9.575105,1
13,1591532146000,-6.82,-11.11,-15.976667,1
13,1591582316000,0.84,-3.68,-11.141444,1
13,1591632670000,-2.45,-1.31,-7.3141265,1
13,1591683330000,-0.38,18.2,13.484144,1
13,1591732890000,-2.07,1.92,-8.812365,1
13,1591783336000,-11.69,17.69,-8.662541,1
13,1591832774000,9.38,19.57,6.3607025,1
13,1591883311000,-9.19,9.58,13.211738,1
13,1591932780000,8.35,1.31,3.568531,1
13,1591983348000,-0.76,3.06,9.043911,1
13,1592032146000,3.34,1.33,1.56634,1
13,1592092784000,5.56,12.6,1.6889231,1
13,0,0.0,0.0,0.0,1
13,1592202251000,9.43,17.39,0.46309182,1
13,1592202251000,9.43,17.39,0.46309182,1
13,0,0.0,0.0,0.0,1
13,0,0.0,0.0,0.0,1
13,1592422618000,-0.46,17.16,11.75436,1
13,1592422618000,-0.46,17.16,11.75436,1
13,1592522349000,-12.37,15.89,-13.715691,1
13,1592572246000,5.67,19.5,4.630918,1
13,1592622264000,-10.23,17.88,12.340035,1
13,1592672252000,4.67,-0.57,6.1700177,1
13,1592672252000,4.67,-0.57,6.1700177,1
13,1592733134000,10.19,5.05,1.7570249,1
13,0,0.0,0.0,0.0,1
13,0,0.0,0.0,0.0,1
13,1592832225000,2.64,4.33,2.9556155,1
13,1592832225000,2.64,4.33,2.9556155,1
13,0,0.0,0.0,0.0,1
13,1593042247000,-2.49,-6.85,-16.208214,1
13,1593092509000,-1.46,-7.63,-10.106298,1
13,1593142284000,-1.38,-2.22,-7.082581,1
13,1593192241000,-1.99,16.59,10.501288,1
13,1593242412000,-3.95,11.18,-10.691973,1
13,1593302318000,-7.86,12.37,-5.8567495,1
13,1593302318000,-7.86,12.37,-5.8567495,1
13,1593362254000,7.35,19.57,9.084772,1
13,1593412242000,-5.63,5.09,8.771504,1
13,1593462230000,6.78,3.72,6.6331096,1
13,1593512248000,1.14,1.65,8.471856,1
13,1593563640000,0.72,1.12,2.6423476,1
13,1593612224000,3.79,9.0,0.7218784,1
13,1593662242000,0.15,19.57,12.912089,1
13,1593712199000,-1.5,19.57,1.7978859,1
13,1593762248000,6.93,2.26,-10.147159,1
13,1593813670000,-5.82,-8.85,-15.132206,1
13,1593862224000,0.65,-8.81,-11.686258,1
13,1593912242000,-0.34,3.15,-4.8216033,1
13,1593962230000,-3.87,17.73,17.692831,1
13,1594012248000,0.27,2.98,-12.067628,1
13,1594063670000,-10.8,19.57,12.108489,1
13,1594162334000,-10.8,12.98,12.108489,1
13,1594162334000,-10.8,12.98,12.108489,1
13,1594222331000,11.5,-0.84,7.8589406,1
13,1594272166000,-0.69,3.34,7.8180795,1
13,1594325999000,-1.99,0.08,0.19068487,1
13,1594325999000,-1.99,0.08,0.19068487,1
13,0,0.0,0.0,0.0,1
13,0,0.0,0.0,0.0,1
13,1594502177000,7.59,7.89,-5.284695,1
13,0,0.0,0.0,0.0,1
13,1594602153000,-0.15,-6.05,-11.495573,1
13,1594662150000,-0.57,0.11,-7.5865335,1
13,1594712199000,0.15,18.5,17.502148,1
13,1594762218000,-2.64,4.99,-13.402422,1
13,1594812297000,-10.8,15.32,-6.1291566,1
13,1594862163000,11.3,19.57,8.240311,1
13,1594912211000,-7.27,14.21,9.765789,1
13,1594962230000,4.48,-0.72,7.3141265,1
13,1594962230000,4.48,-0.72,7.3141265,1
13,1594962230000,4.48,-0.72,7.3141265,1
13,0,0.0,0.0,0.0,1
13,0,0.0,0.0,0.0,1
13,1595132152000,4.21,14.37,6.891896,1
13,1595132152000,4.21,14.37,6.891896,1
13,0,0.0,0.0,0.0,1
13,1595342204000,2.18,-5.67,-11.604536,1
13,1595393626000,-1.42,-5.01,-8.771504,1
13,1595393626000,-1.42,-5.01,-8.771504,1
13,1595492320000,-2.07,12.03,5.7886477,1
13,1595542399000,-10.92,13.87,-9.384419,1
13,1595592265000,-6.21,18.66,-0.50395286,1
13,1595642406000,-1.5,19.42,10.228881,1
13,1595692241000,0.53,1.88,6.510526,1
13,1595742290000,10.12,5.48,5.6252036,1
13,1595792247000,-3.83,0.53,5.47538,1
13,1595842265000,-1.73,0.31,5.134871,1
13,1595892284000,3.99,10.0,2.982856,1
13,1595942332000,-0.04,19.57,16.507862,1
13,1595992229000,3.15,19.57,1.56634,1
13,1595992229000,3.15,19.57,1.56634,1
13,1596102214000,-1.95,-6.85,-14.015338,1
13,1596152324000,-0.04,-7.31,-9.724928,1
13,1596152324000,-0.04,-7.31,-9.724928,1
13,1596262218000,-1.65,8.31,3.405087,1
13,1596312266000,-8.58,11.73,-9.00305,1
13,1596362224000,-5.18,19.38,-6.1291566,1
13,1596412242000,0.04,19.04,15.023244,1
13,1596462260000,1.92,5.79,5.2165933,1
13,1596462260000,1.92,5.79,5.2165933,1
13,1596562175000,-1.61,2.53,7.6954966,1
13,1596562175000,-1.61,2.53,7.6954966,1
13,1596617900000,-1.76,1.54,5.053149,1
13,0,0.0,0.0,0.0,1
13,0,0.0,0.0,0.0,1
13,0,0.0,0.0,0.0,1
13,1596816051000,5.98,1.23,-12.176591,1
13,1596872325000,-1.69,-8.58,-16.08563,1
13,1596922282000,0.53,-4.18,-8.19945,1
13,1596972331000,-1.31,7.7,3.9499009,1
13,1597022258000,-5.6,16.78,8.771504,1
13,1597072337000,-3.87,7.74,-8.076866,1
13,1597132274000,-2.03,19.04,-9.234595,1
13,1597182231000,-7.01,18.47,13.525005,1
13,1597232310000,4.99,-1.57,2.0294318,1
13,1597232310000,4.99,-1.57,2.0294318,1
13,1597232310000,4.99,-1.57,2.0294318,1
13,1597232310000,4.99,-1.57,2.0294318,1
13,1597232310000,4.99,-1.57,2.0294318,1
13,0,0.0,0.0,0.0,1
13,0,0.0,0.0,0.0,1
13,1597542277000,6.21,18.58,-0.3405087,1
13,1597593120000,-1.33,-10.38,-15.976667,1
13,1597642253000,-1.88,-6.74,-13.33432,1
13,1597692363000,-0.5,-4.37,-9.724928,1
13,1597742381000,0.61,11.22,6.932757,1
13,1597792277000,-3.95,17.97,4.399372,1
13,1597842692000,-2.6,-5.01,-11.727119,1
13,1597892314000,-12.49,17.39,-3.7864566,1
13,1597942302000,6.78,19.08,10.56939,1
13,1597992259000,-1.88,-2.45,4.2495484,1
13,1598042308000,9.7,7.27,5.243834,1
13,1598092265000,-5.13,-0.5,5.434519,1
13,1598142314000,0.93,3.49,6.238119,1
13,1598192271000,1.61,11.69,2.8330324,1
13,1598242290000,-1.14,19.57,14.328606,1
13,1598292247000,3.68,19.57,0.7627395,1
13,1598342296000,3.79,-3.26,-13.484144,1
13,1598392284000,-2.72,-5.56,-13.593107,1
13,1598442271000,-0.11,-7.01,-10.651112,1
13,1598492259000,1.46,3.11,-2.7240696,1
13,1598542308000,-3.36,19.46,16.821129,1
13,1598592265000,-6.97,8.58,-12.067628,1
13,1598642284000,-5.48,14.37,-8.962189,1
13,1598692271000,6.47,19.57,9.343558,1
13,1598742290000,-6.32,4.79,7.5456724,1
13,1598792277000,9.7,1.5,5.829509,1
13,1598842296000,-1.08,2.79,9.425281,1
13,1598892161000,0.04,1.18,3.2961242,1
13,1598953654000,4.14,13.67,3.0645783,1
13,1598953654000,4.14,13.67,3.0645783,1
13,1599042186000,0.08,19.57,3.636633,1
13,1599042186000,0.08,19.57,3.636633,1
13,1599042186000,0.08,19.57,3.636633,1
13,0,0.0,0.0,0.0,1
13,1599243266000,0.34,2.03,-4.2086873,1
13,1599243266000,0.34,2.03,-4.2086873,1
13,1599342265000,-8.39,8.01,-12.14935,1
13,1599392314000,-9.58,16.04,-6.742072,1
13,1599442149000,10.34,19.57,7.668256,1
13,1599492412000,-6.36,10.04,9.507003,1
13,1599542644000,7.44,-0.46,7.205164,1
13,1599542644000,7.44,-0.46,7.205164,1
13,1599542644000,7.44,-0.46,7.205164,1
13,0,0.0,0.0,0.0,1
13,1599732738000,1.42,19.57,15.023244,1
13,1599732738000,1.42,19.57,15.023244,1
13,1599732738000,1.42,19.57,15.023244,1
13,0,0.0,0.0,0.0,1
13,1599912974000,3.17,-6.05,-12.340035,1
13,1599912974000,3.17,-6.05,-12.340035,1
13,1600012218000,-1.08,15.4,12.026767,1
13,1600062389000,-1.46,5.83,-3.2961242,1
13,1600112224000,-12.3,13.48,-10.691973,1
13,1600162273000,-2.49,19.53,-1.334794,1
13,1600212230000,0.34,18.66,7.668256,1
13,1600262309000,0.53,-0.53,4.862464,1
13,1600312205000,10.92,4.99,5.134871,1
13,1600362285000,-2.11,-0.3,2.3699405,1
13,1600412242000,0.27,5.28,6.3198414,1
13,1600462291000,5.13,17.88,9.275456,1
13,1600512218000,-9.89,19.57,8.62168,1
13,1600562266000,6.59,13.87,-3.3642259,1
13,1600612254000,-1.95,-8.81,-15.472715,1
13,1600662303000,-0.91,-7.74,-13.375181,1
13,1600712199000,-1.53,-0.8,-9.343558,1
13,1600762309000,1.27,15.66,10.61025,1
13,1600812205000,-1.61,5.9,-2.5606253,1
13,1600862315000,-8.92,11.65,-9.275456,1
13,1600912211000,3.99,18.85,-1.0351465,1
13,1600962291000,-7.46,17.86,10.528529,1
13,1601012218000,5.86,0.72,4.862464,1
13,1601062297000,7.82,6.63,1.4573772,1
13,1601112132000,-7.86,-0.23,0.84446156,1
13,1601162547000,1.23,5.67,2.5333846,1
13,1601162547000,1.23,5.67,2.5333846,1
13,0,0.0,0.0,0.0,1
13,1601273143000,3.02,19.57,7.082581,1
13,1601273143000,3.02,19.57,7.082581,1
13,1601273143000,3.02,19.57,7.082581,1
13,0,0.0,0.0,0.0,1
13,1601492137000,1.54,8.28,0.61291564,1
13,1601542216000,-2.34,14.9,6.973618,1
13,1601593272000,-6.59,9.08,-11.372991,1
13,1601642314000,-0.8,19.31,-1.9477097,1
13,1601642314000,-0.8,19.31,-1.9477097,1
13,1601742351000,2.6,0.23,4.1814466,1
13,1601792277000,10.5,7.44,6.0201936,1
13,1601842326000,-4.25,-1.46,3.3778462,1
13,1601892284000,1.18,4.9,4.2495484,1
13,1601942271000,3.76,18.47,8.894087,1
13,1601992229000,-8.01,19.57,8.730643,1
13,1602042277000,5.63,16.21,-2.982856,1
13,1602092235000,0.8,-10.38,-16.167353,1
13,1602142314000,-1.14,-7.59,-15.28203,1
13,1602192241000,-0.34,-1.42,-9.043911,1
13,1602242259000,-0.27,15.51,13.797412,1
13,1602292247000,-5.01,10.8,-3.405087,1
13,1602342265000,-4.9,7.74,-14.437569,1
13,1602392253000,-1.18,19.57,-1.9885708,1
13,1602442302000,-1.33,18.05,10.991621,1
13,1602492229000,2.79,0.42,4.5219555,1
13,1602542308000,9.51,6.36,3.8681788,1
13,1602592235000,-2.79,-0.3,1.7570249,1
13,1602642345000,0.27,4.02,3.336985,1
13,1602692241000,4.6,17.62,7.9270425,1
13,1602742259000,-5.28,19.57,10.310603,1
13,1602792247000,4.71,16.51,-2.9147544,1
13,1602842265000,-2.22,-8.39,-16.3989,1
13,1602892253000,-2.22,-8.62,-14.9006605,1
13,1602942271000,-1.57,-1.92,-10.760075,1
13,1602992229000,0.84,16.28,12.489859,1
13,1603042277000,1.18,2.79,-6.3607025,1
13,1603092265000,-14.29,14.82,-9.152874,1
13,1603142314000,2.45,19.53,0.53119355,1
13,1603192271000,-3.57,17.73,9.888372,1
13,1603242290000,6.21,-0.89,4.399372,1
13,1603292277000,8.85,7.89,3.990762,1
13,1603344432000,-4.67,0.15,1.4982382,1
13,1603344432000,-4.67,0.15,1.4982382,1
13,0,0.0,0.0,0.0,1
13,1603462443000,2.22,19.57,14.941522,1
13,1603462443000,2.22,19.57,14.941522,1
13,1603612315000,-3.41,-7.01,-12.912089,1
13,1603612315000,-3.41,-7.01,-12.912089,1
13,1603662730000,0.04,-5.71,-11.032481,1
13,1603712230000,0.72,3.41,-4.440233,1
13,1603762340000,-4.29,19.19,17.352324,1
13,1603812266000,-5.09,5.79,-15.213928,1
13,1603862437000,-6.13,12.87,-8.158588,1
13,1603912334000,9.77,19.57,9.997335,1
13,1603962291000,-5.18,11.03,7.6273947,1
13,1604012279000,7.4,1.38,6.3607025,1
13,1604012279000,7.4,1.38,6.3607025,1
13,0,0.0,0.0,0.0,1
13,1604182323000,2.98,15.32,8.049625,1
13,1604182323000,2.98,15.32,8.049625,1
13,0,0.0,0.0,0.0,1
13,1604352580000,-4.21,-8.47,-14.09706,1
13,1604352580000,-4.21,-8.47,-14.09706,1
13,1604452281000,0.0,4.71,-2.2201166,1
13,1604502238000,0.15,17.16,14.328606,1
13,1604552318000,-7.08,10.46,-10.991621,1
13,1604602336000,-6.85,14.18,-4.4810944,1
13,1604652232000,8.2,19.57,6.742072,1
13,1604702312000,-5.75,11.41,9.112013,1
13,1604752208000,7.25,1.08,8.240311,1
13,1604752208000,7.25,1.08,8.240311,1
13,1604852122000,-3.15,1.18,-0.61291564,1
13,1604852122000,-3.15,1.18,-0.61291564,1
13,1604916057000,3.3,14.25,3.568531,1
13,1604916057000,3.3,14.25,3.568531,1
13,1604992198000,-5.56,19.57,5.706926,1
13,1604992198000,-5.56,19.57,5.706926,1
13,1604992198000,-5.56,19.57,5.706926,1
13,0,0.0,0.0,0.0,1
13,1605222118000,0.61,12.76,10.18802,1
13,1605282115000,-1.65,5.18,-4.9850473,1
13,1605282115000,-1.65,5.18,-4.9850473,1
13,1605382274000,3.45,19.0,-1.334794,1
13,1605432323000,-6.13,17.58,11.182305,1
13,1605482219000,1.33,0.38,4.440233,1
13,1605532268000,9.96,5.63,4.0588636,1
13,1605582255000,-4.59,0.08,3.9499009,1
13,1605632304000,-1.8,5.79,4.9850473,1
13,1605682231000,3.76,18.77,9.193735,1
13,1605682231000,3.76,18.77,9.193735,1
13,1605742351000,-3.34,19.57,5.8976107,1
13,1605792247000,6.21,9.23,-7.4639506,1
13,1605842296000,-5.79,-11.99,-15.976667,1
13,1605892284000,-0.61,-4.44,-10.923519,1
13,1605943675000,-0.72,-0.65,-5.8567495,1
13,1605992198000,0.57,16.32,12.789507,1
13,1606042308000,-5.82,13.72,-7.6273947,1
13,1606092235000,-8.81,7.4,-8.539958,1
13,1606142284000,7.63,19.57,0.313268,1
13,1606193675000,-5.37,14.9,11.372991,1
13,1606242198000,3.15,-1.88,5.012288,1
13,1606342113000,-5.2,-3.17,0.7218784,1
13,1606342113000,-5.2,-3.17,0.7218784,1
13,1606396525000,2.83,4.99,2.1792557,1
13,1606396525000,2.83,4.99,2.1792557,1
13,0,0.0,0.0,0.0,1
13,1606583629000,2.49,-6.32,-16.208214,1
13,1606632152000,-4.63,-7.01,-14.859799,1
13,1606682109000,-1.12,-5.09,-9.697687,1
13,1606732249000,1.88,5.18,0.7218784,1
13,1606782359000,-1.99,19.5,10.460427,1
13,1606832286000,-8.24,2.34,-9.00305,1
13,1606882365000,-8.2,16.32,-6.891896,1
13,1606942271000,2.34,18.73,12.258313,1
13,1606992229000,-0.53,-0.91,4.7535014,1
13,1607042308000,9.51,6.7,5.012288,1
13,1607092296000,-4.71,-2.87,3.0645783,1
13,1607142345000,0.04,3.49,5.5162406,1
13,1607192241000,2.49,15.43,4.7535014,1
13,1607242290000,-8.92,19.57,12.871228,1
13,1607292247000,4.56,19.5,-0.6537767,1
13,1607342296000,1.46,-5.79,-13.824653,1
13,1607392253000,-2.18,-8.85,-13.484144,1
13,1607442302000,-0.91,-5.43,-9.193735,1
13,1607492229000,0.53,3.95,-1.1441092,1
13,1607542308000,-2.53,17.97,16.317177,1
13,1607592235000,-7.46,9.53,-13.143636,1
13,1607642314000,-7.5,15.89,-8.880466,1
13,1607692241000,6.74,19.57,11.114203,1
13,1607742290000,-2.03,11.11,9.112013,1
13,1607792247000,5.75,-0.46,7.504812,1
13,1607842296000,4.56,4.67,8.430995,1
13,1607892131000,-3.11,0.65,-0.46309182,1
13,1607943034000,0.8,10.46,1.5390993,1
13,1607943034000,0.8,10.46,1.5390993,1
13,1607943034000,0.8,10.46,1.5390993,1
13,1608032481000,-9.3,19.57,8.730643,1
13,0,0.0,0.0,0.0,1
13,1608212169000,-2.14,-4.44,-9.956474,1
13,1608262309000,2.34,11.69,4.862464,1
13,1608312205000,-4.14,16.13,4.862464,1
13,1608362407000,-6.55,2.22,-10.800936,1
13,1608412211000,-6.55,18.7,-6.1700177,1
13,1608462260000,3.11,19.46,10.732834,1
13,1608512248000,-3.36,1.69,4.5628166,1
13,1608562297000,9.7,3.45,5.7886477,1
13,1608612254000,-3.45,2.11,8.580819,1
13,1608662303000,-0.08,4.52,5.6252036,1
13,1608712230000,4.44,14.44,4.440233,1
13,1608762279000,-7.5,19.57,11.304889,1
13,1608812236000,4.4,18.89,2.0294318,1
13,1608862285000,2.07,-6.82,-11.495573,1
13,1608912273000,-1.04,-7.25,-12.53072,1
13,1608962291000,-1.69,-4.37,-11.223166,1
13,1609012248000,1.84,10.23,3.636633,1
13,1609062297000,-3.83,11.56,8.008764,1
13,1609112254000,-6.85,6.97,-8.730643,1
13,1609112254000,-6.85,6.97,-8.730643,1
13,1609212138000,4.71,19.53,12.367276,1
13,1609262309000,-3.87,4.14,6.0474343,1
13,1609312297000,9.72,3.17,5.012288,1
13,1609362437000,-0.15,2.18,9.765789,1
13,1609412120000,-1.57,2.45,3.5276701,1
13,1609463298000,3.3,12.22,2.7240696,1
13,1609463298000,3.3,12.22,2.7240696,1
13,1609463298000,3.3,12.22,2.7240696,1
13,1609463298000,3.3,12.22,2.7240696,1
13,1609596599000,3.68,7.31,-7.7772183,1
13,0,0.0,0.0,0.0,1
13,1609752177000,-0.5,2.45,-3.6774938,1
13,1609752177000,-0.5,2.45,-3.6774938,1
13,1609862254000,-8.43,7.97,-12.5579605,1
13,1609912273000,-7.74,16.93,-6.0882955,1
13,1609962199000,9.81,19.57,9.615966,1
13,1610012248000,-4.1,11.3,7.3141265,1
13,1610062205000,9.7,-0.11,6.3607025,1
13,1610062205000,9.7,-0.11,6.3607025,1
13,1610062205000,9.7,-0.11,6.3607025,1
13,0,0.0,0.0,0.0,1
13,0,0.0,0.0,0.0,1
13,1610373118000,-1.38,-6.7,-15.009624,1
13,1610422313000,-1.76,-7.65,-11.727119,1
13,1610472331000,-2.56,-3.49,-10.106298,1
13,1610522197000,2.3,10.5,4.372132,1
13,1610572307000,-1.92,16.02,6.1700177,1
13,1610622233000,-6.05,4.99,-10.18802,1
13,1610672282000,-5.48,18.85,0.10896278,1
13,1610722240000,4.75,19.5,3.6774938,1
13,1610772288000,-1.27,5.48,7.43671,1
13,1610822246000,8.31,4.02,6.851035,1
13,1610872325000,-0.19,1.46,7.7363577,1
13,1610922252000,-1.27,2.96,4.372132,1
13,1610972301000,2.6,16.51,6.0474343,1
13,1611022258000,-9.23,19.57,10.651112,1
13,1611072307000,4.67,18.62,2.4516625,1
13,1611122203000,3.17,-8.43,-13.484144,1
13,1611172313000,-0.89,-5.43,-12.598822,1
13,1611222209000,-1.46,-6.21,-11.372991,1
13,1611272288000,2.91,10.08,6.1291566,1
13,1611322215000,-4.29,13.38,7.9679036,1
13,1611372295000,-7.93,7.97,-8.076866,1
13,1611422282000,-6.13,18.24,-8.240311,1
13,1611472301000,3.53,19.57,13.252599,1
13,1611522258000,-2.11,4.44,7.6273947,1
13,1611572307000,11.18,3.02,7.3958488,1
13,1611622203000,-0.11,2.72,9.507003,1
13,1611675181000,-2.37,2.98,2.7921712,1
13,1611675181000,-2.37,2.98,2.7921712,1
13,0,0.0,0.0,0.0,1
13,1611782115000,-8.92,19.57,9.534244,1
13,1611782115000,-8.92,19.57,9.534244,1
13,0,0.0,0.0,0.0,1
13,1611962108000,0.04,-5.33,-10.7192135,1
13,1612012523000,0.42,6.13,-1.6889231,1
13,1612012523000,0.42,6.13,-1.6889231,1
13,1612112315000,-3.91,-2.72,-15.595298,1
13,1612162303000,-8.54,7.4,-5.6252036,1
13,1612212169000,9.81,19.57,0.50395286,1
13,1612262218000,-5.52,7.82,10.079058,1
13,1612312236000,9.51,2.07,6.5513873,1
13,1612312236000,9.51,2.07,6.5513873,1
13,1612312236000,9.51,2.07,6.5513873,1
13,1612312236000,9.51,2.07,6.5513873,1
13,1612312236000,9.51,2.07,6.5513873,1
13,0,0.0,0.0,0.0,1
13,1612652263000,-0.42,-6.43,-12.912089,1
13,1612702342000,-2.37,-4.56,-9.765789,1
13,1612752208000,1.57,4.86,0.3405087,1
13,1612802287000,0.0,16.66,12.830367,1
13,1612852244000,-9.72,7.25,-8.499097,1
13,1612902263000,-7.74,15.4,-9.493382,1
13,1612952220000,9.85,19.57,8.580819,1
13,1613002330000,-6.78,10.73,8.008764,1
13,1613052226000,8.12,-1.61,5.284695,1
13,1613102275000,4.18,4.71,8.689782,1
13,1613152110000,-3.87,2.34,0.19068487,1
13,1613202617000,5.83,12.76,2.070293,1
13,1613254130000,-6.93,19.57,11.536434,1
13,1613254130000,-6.93,19.57,11.536434,1
13,1613303325000,6.09,19.57,3.1463003,1
13,0,0.0,0.0,0.0,1
13,1613472148000,-0.53,-1.76,-8.430995,1
13,1613472148000,-0.53,-1.76,-8.430995,1
13,1613572307000,-4.25,7.78,3.8273177,1
13,1613572307000,-4.25,7.78,3.8273177,1
13,1613672313000,-1.99,19.34,-2.7921712,1
13,1613722240000,-1.23,19.34,7.43671,1
13,1613772288000,-3.64,-1.8,4.0588636,1
13,1613822215000,10.92,4.25,5.175732,1
13,1613822215000,10.92,4.25,5.175732,1
13,1613822215000,10.92,4.25,5.175732,1
13,0,0.0,0.0,0.0,1
13,0,0.0,0.0,0.0,1
13,1614042522000,-2.14,19.57,9.575105,1
13,1614042522000,-2.14,19.57,9.575105,1
13,0,0.0,0.0,0.0,1
13,0,0.0,0.0,0.0,1
13,1614220256000,-2.41,-6.4,-10.419566,1
13,1614272319000,2.64,6.47,-0.61291564,1
13,1614322398000,0.57,15.51,15.935807,1
13,1614372386000,-7.44,7.01,-10.882658,1
13,1614422282000,-9.53,17.47,-6.4015636,1
13,1614472270000,9.53,19.57,10.841797,1
13,1614522288000,-3.21,10.84,6.4424243,1
13,1614572276000,6.28,0.0,5.243834,1
13,1614622233000,3.57,3.3,7.6273947,1
13,1614676219000,-3.3,0.23,0.19068487,1
13,1614676219000,-3.3,0.23,0.19068487,1
13,0,0.0,0.0,0.0,1
13,1614792216000,-4.9,19.57,13.633968,1
13,1614792216000,-4.9,19.57,13.633968,1
13,0,0.0,0.0,0.0,1
13,0,0.0,0.0,0.0,1
13,1615022868000,0.72,3.26,-3.3642259,1
13,1615022868000,0.72,3.26,-3.3642259,1
13,1615022868000,0.72,3.26,-3.3642259,1
13,1615022868000,0.72,3.26,-3.3642259,1
13,1615182139000,-4.9,12.37,-10.079058,1
13,1615232280000,7.89,19.57,8.390134,1
13,1615282359000,-5.86,12.49,9.043911,1
13,1615332286000,6.21,-1.31,5.7886477,1
13,1615332286000,6.21,-1.31,5.7886477,1
13,1615402293000,-2.96,2.3,5.829509,1
13,1615402293000,-2.96,2.3,5.829509,1
13,0,0.0,0.0,0.0,1
13,1615662181000,-4.94,-12.03,-15.009624,1
13,1615662181000,-4.94,-12.03,-15.009624,1
13,1615762187000,-0.65,-0.69,-6.469665,1
13,1615812358000,-0.99,17.54,16.276316,1
13,1615862315000,-7.55,9.72,-10.800936,1
13,1615912211000,-3.91,2.41,-10.106298,1
13,1615962260000,3.64,19.57,-0.42223078,1
13,1616012248000,-9.23,12.53,9.724928,1
13,1616062297000,6.66,-0.76,4.7943625,1
13,1616112254000,7.12,4.6,5.134871,1
13,1616169444000,-5.75,-1.23,1.4573772,1
13,1616169444000,-5.75,-1.23,1.4573772,1
13,0,0.0,0.0,0.0,1
13,0,0.0,0.0,0.0,1
13,1616332286000,0.0,19.57,3.1463003,1
13,1616332286000,0.0,19.57,3.1463003,1
13,1616332286000,0.0,19.57,3.1463003,1
13,0,0.0,0.0,0.0,1
13,1616542125000,0.65,3.68,-3.3642259,1
13,1616542125000,0.65,3.68,-3.3642259,1
13,1616642222000,-5.75,6.74,-13.143636,1
13,1616692363000,-10.0,14.94,-6.6331096,1
13,1616742259000,9.19,19.57,9.302697,1
13,1616792277000,-4.37,8.62,7.3958488,1
13,1616842235000,7.01,1.14,6.851035,1
13,1616842235000,7.01,1.14,6.851035,1
13,1616913646000,-2.79,1.18,6.891896,1
13,0,0.0,0.0,0.0,1
13,0,0.0,0.0,0.0,1
13,1617082316000,-7.44,19.57,7.0553403,1
13,1617082316000,-7.44,19.57,7.0553403,1
13,0,0.0,0.0,0.0,1
13,1617232493000,1.5,-7.46,-10.61025,1
13,1617282237000,-0.42,1.12,-5.938472,1
13,1617332408000,0.65,18.35,11.264028,1
13,1617382274000,-5.05,1.65,-6.851035,1
13,1617432231000,-9.92,13.99,-14.818938,1
13,1617482310000,6.66,19.57,-1.607201,1
13,1617532237000,-5.56,15.98,12.217452,1
13,1617582316000,5.63,-1.53,5.09401,1
13,1617632213000,9.0,5.52,1.0760075,1
13,1617689830000,-5.67,1.27,2.3426998,1
13,1617689830000,-5.67,1.27,2.3426998,1
13,1617752666000,3.95,10.57,1.334794,1
13,1617752666000,3.95,10.57,1.334794,1
13,0,0.0,0.0,0.0,1
13,1618012187000,-1.95,-4.59,-11.032481,1
13,1618062389000,0.72,7.44,2.1792557,1
13,1618112285000,-2.96,15.36,7.164303,1
13,1618162242000,-5.13,5.98,-7.9679036,1
13,1618212260000,-6.82,16.63,-6.510526,1
13,1618262370000,6.93,19.57,10.147159,1
13,1618312266000,-5.33,5.41,8.240311,1
13,1618362346000,9.34,1.99,4.7943625,1
13,1618362346000,9.34,1.99,4.7943625,1
13,1618362346000,9.34,1.99,4.7943625,1
13,0,0.0,0.0,0.0,1
13,0,0.0,0.0,0.0,1
13,1618542186000,1.69,19.53,13.988097,1
13,1618542186000,1.69,19.53,13.988097,1
13,0,0.0,0.0,0.0,1
13,0,0.0,0.0,0.0,1
13,1618803020000,-1.73,-0.5,-5.366417,1
13,1618852214000,2.18,16.66,7.504812,1
13,1618852214000,2.18,16.66,7.504812,1
13,1618952281000,-12.6,11.41,-9.997335,1
13,1618952281000,-12.6,11.41,-9.997335,1
13,1619062236000,-9.49,16.74,11.032481,1
13,1619062236000,-9.49,16.74,11.032481,1
13,1619122295000,3.95,-4.63,4.6036777,1
13,1619172282000,7.82,6.74,6.2108784,1
13,1619222270000,-5.01,-0.04,-1.0351465,1
13,1619272258000,3.53,6.32,1.56634,1
13,1619322307000,5.28,19.57,11.264028,1
13,1619372233000,-0.27,19.57,3.3778462,1
13,1619422313000,5.75,6.74,-7.7363577,1
13,1619472270000,-7.4,-8.31,-15.472715,1
13,1619522258000,-1.18,-4.25,-11.114203,1
13,1619572276000,-2.72,-2.45,-5.6252036,1
13,1619622295000,1.5,14.14,6.5513873,1
13,1619672282000,-3.83,12.72,-2.1111538,1
13,1619722301000,-7.44,8.89,-14.9006605,1
13,1619772258000,8.96,19.57,4.2904096,1
13,1619822307000,-14.25,15.85,12.980191,1
13,1619872264000,6.47,-2.56,3.9090397,1
13,1619922343000,11.35,5.37,1.7978859,1
13,1619972118000,-7.12,0.08,2.4925237,1
13,1620022563000,2.34,4.82,4.5628166,1
13,1620073161000,9.43,18.31,5.6252036,1
13,1620073161000,9.43,18.31,5.6252036,1
13,1620122203000,-8.05,19.57,7.9679036,1
13,0,0.0,0.0,0.0,1
13,1620302165000,-4.02,-5.2,-12.299174,1
13,1620352702000,-1.12,2.41,-2.070293,1
13,1620402263000,4.52,17.12,12.53072,1
13,1620452312000,-9.23,12.26,-7.8589406,1
13,1620502269000,-6.93,16.86,-7.7363577,1
13,1620552348000,2.6,19.57,9.615966,1
13,1620612254000,4.29,4.21,6.851035,1
13,1620662212000,7.06,6.32,6.8237944,1
13,1620712260000,-2.45,-1.12,3.2961242,1
13,1620762248000,0.69,3.83,3.8273177,1
13,1620812266000,7.86,17.47,5.8976107,1
13,1620862254000,-9.96,19.57,10.732834,1
13,1620912273000,7.7,16.63,-1.8387469,1
13,1620962199000,-3.95,-8.2,-15.6634,1
13,1621012340000,-1.46,-5.71,-14.560152,1
13,1621062205000,-2.6,-4.06,-10.269742,1
13,1621112285000,2.87,12.3,8.008764,1
13,1621162212000,0.0,9.66,-2.4516625,1
13,1621212291000,-10.42,11.11,-7.1234417,1
13,1621262248000,0.69,19.46,-1.920469,1
13,1621312266000,-4.56,17.67,9.575105,1
13,1621362224000,1.99,3.11,5.5571017,1
13,1621412303000,10.04,2.6,7.504812,1
13,1621462230000,-0.15,2.41,5.366417,1
13,1621513591000,-1.65,3.76,4.0180025,1
13,1621513591000,-1.65,3.76,4.0180025,1
13,0,0.0,0.0,0.0,1
13,0,0.0,0.0,0.0,1
13,0,0.0,0.0,0.0,1
13,0,0.0,0.0,0.0,1
13,0,0.0,0.0,0.0,1
13,1621842174000,-0.91,0.04,-7.8589406,1
13,1621902141000,-4.82,18.05,17.2025,1
13,1621952861000,-1.38,3.26,-15.554437,1
13,1622012279000,-8.39,15.36,-8.008764,1
13,1622062236000,2.79,19.5,9.425281,1
13,1622112407000,0.15,7.5,6.851035,1
13,1622172282000,9.28,5.56,6.2108784,1
13,1622232249000,-6.7,0.08,3.7864566,1
13,1622282268000,2.22,5.9,4.903325,1
13,1622332316000,4.75,18.92,11.032481,1
13,1622382213000,-7.12,19.57,7.9679036,1
13,1622432262000,6.05,11.26,-4.8216033,1
13,1622482249000,-3.95,-10.53,-14.2877445,1
13,1622532298000,-0.23,-5.28,-12.489859,1
13,1622582255000,-3.34,-0.95,-8.880466,1
13,1622632304000,1.38,15.66,10.337844,1
13,1622682231000,-1.73,10.53,-6.510526,1
13,1622732371000,-10.57,9.72,-7.7363577,1
13,1622782237000,5.09,19.57,4.944186,1
13,1622832316000,-5.41,15.89,9.084772,1
13,1622882243000,4.94,-0.61,5.5162406,1
13,1622882243000,4.94,-0.61,5.5162406,1
13,1622982158000,-3.91,0.69,1.2258313,1
13,1623032359000,-0.08,5.24,2.6014864,1
13,1623083629000,3.11,19.38,11.686258,1
13,1623083629000,3.11,19.38,11.686258,1
13,1623083629000,3.11,19.38,11.686258,1
13,0,0.0,0.0,0.0,1
13,1623242473000,-1.88,-7.4,-12.299174,1
13,1623292522000,0.8,-5.01,-10.460427,1
13,1623342235000,-1.14,-1.42,-7.43671,1
13,1623392375000,0.11,16.13,8.240311,1
13,1623442241000,-5.94,10.95,-5.325556,1
13,1623492351000,-4.29,4.99,-9.915613,1
13,1623552287000,8.2,19.57,4.5219555,1
13,1623602275000,-6.63,12.6,11.264028,1
13,1623652293000,6.51,-0.89,6.701211,1
13,1623652293000,6.51,-0.89,6.701211,1
13,1623652293000,6.51,-0.89,6.701211,1
13,0,0.0,0.0,0.0,1
13,0,0.0,0.0,0.0,1
13,0,0.0,0.0,0.0,1
13,0,0.0,0.0,0.0,1
13,1624063335000,-1.73,-4.1,-12.108489,1
13,1624063335000,-1.73,-4.1,-12.108489,1
13,1624162242000,-1.18,19.15,14.9006605,1
13,1624212321000,-4.48,3.68,-13.0619135,1
13,1624262340000,-10.92,16.02,-4.8216033,1
13,1624312236000,8.16,19.57,10.923519,1
13,1624362224000,-4.18,5.67,7.246025,1
13,1624412242000,6.59,3.34,7.3549876,1
13,1624462260000,3.45,3.41,10.038197,1
13,1624512218000,-2.53,0.5,0.38136974,1
13,1624562236000,3.76,10.65,2.152015,1
13,1624612224000,0.34,19.57,14.818938,1
13,1624662242000,-2.11,19.57,4.2904096,1
13,1624712199000,8.05,2.87,-11.604536,1
13,1624762309000,-4.67,-7.89,-14.601013,1
13,1624812236000,-0.11,-6.05,-11.563675,1
13,1624862254000,-1.18,1.46,-4.399372,1
13,1624912242000,-1.53,18.09,17.352324,1
13,1624962230000,-5.09,5.9,-9.112013,1
13,1625012401000,-9.04,14.86,-10.800936,1
13,1625062266000,12.6,19.57,4.8216033,1
13,1625112224000,-7.27,11.99,9.615966,1
13,1625162242000,4.29,-0.46,6.5922484,1
13,1625212138000,7.01,5.18,5.7886477,1
13,1625262157000,-5.82,-0.65,-0.10896278,1
13,1625262157000,-5.82,-0.65,-0.10896278,1
13,1625316264000,2.83,8.89,1.9477097,1
13,1625316264000,2.83,8.89,1.9477097,1
13,1625384807000,0.19,19.57,15.241169,1
13,1625384807000,0.19,19.57,15.241169,1
13,0,0.0,0.0,0.0,1
13,0,0.0,0.0,0.0,1
13,1625642161000,0.08,12.11,7.164303,1
13,1625642161000,0.08,12.11,7.164303,1
13,1625742320000,-9.23,8.96,-9.615966,1
13,1625792338000,-2.91,18.43,-5.5571017,1
13,1625842235000,-0.57,19.46,11.876944,1
13,1625892314000,0.93,2.15,6.973618,1
13,1625942241000,9.38,3.91,4.9850473,1
13,1625992259000,-0.72,0.53,6.742072,1
13,1626042247000,-3.3,2.45,5.706926,1
13,1626092265000,3.3,14.44,4.4810944,1
13,1626142222000,-6.17,19.57,13.375181,1
13,1626192271000,3.91,19.57,0.88532263,1
13,1626242198000,4.56,-3.64,-15.431854,1
13,1626292522000,-1.84,-9.66,-13.252599,1
13,1626342265000,-0.69,-5.75,-9.534244,1
13,1626392375000,-0.23,3.76,-2.7240696,1
13,1626442241000,-1.46,18.89,17.011814,1
13,1626492320000,-7.25,9.81,-11.645397,1
13,1626542277000,-7.7,13.06,-7.04172,1
13,1626592265000,10.88,19.57,7.205164,1
13,1626642253000,-7.74,11.65,8.662541,1
13,1626692302000,2.72,-0.8,4.2495484,1
13,1626742198000,6.89,5.41,5.134871,1
13,1626793162000,-6.09,-2.6,0.8036005,1
13,1626793162000,-6.09,-2.6,0.8036005,1
13,0,0.0,0.0,0.0,1
13,1626922496000,-4.67,19.57,14.328606,1
13,1626922496000,-4.67,19.57,14.328606,1
13,0,0.0,0.0,0.0,1
13,1627092204000,0.8,-5.24,-11.836082,1
13,1627152873000,0.11,-1.5,-8.62168,1
13,1627152873000,0.11,-1.5,-8.62168,1
13,1627252360000,-2.26,11.6,-3.568531,1
13,1627302287000,-10.31,8.39,-11.795221,1
13,1627352367000,1.8,19.57,7.0553403,1
13,1627402263000,-5.37,17.39,9.302697,1
13,1627452281000,3.3,-0.65,6.238119,1
13,1627452281000,3.3,-0.65,6.238119,1
13,1627452281000,3.3,-0.65,6.238119,1
13,0,0.0,0.0,0.0,1
13,0,0.0,0.0,0.0,1
13,1627632152000,3.26,12.53,2.7240696,1
13,1627702251000,-9.92,19.57,12.721405,1
13,1627702251000,-9.92,19.57,12.721405,1
13,0,0.0,0.0,0.0,1
13,1627812419000,-5.71,-9.49,-14.246883,1
13,1627862407000,1.88,-6.66,-11.114203,1
13,1627912547000,1.46,-1.8,-6.1700177,1
13,1627962566000,0.27,17.01,12.176591,1
13,1628012675000,-4.99,9.77,-3.9499009,1
13,1628063212000,-9.19,7.16,-11.413852,1
13,1628113689000,-0.11,19.42,0.6946377,1
13,1628162303000,-2.49,17.58,8.281172,1
13,1628213603000,2.68,1.08,5.09401,1
13,1628263042000,11.56,5.86,3.7864566,1
13,1628313457000,-5.86,0.69,3.9499009,1
13,1628362987000,-1.33,5.43,6.238119,1
13,1628413432000,3.99,16.82,9.343558,1
13,1628462901000,-8.12,19.57,10.95076,1
13,1628513316000,6.82,13.21,-4.1814466,1
13,1628562816000,-3.49,-9.04,-13.783792,1
13,1628613231000,0.8,-5.48,-12.53072,1
13,1628663615000,-0.08,-3.02,-8.771504,1
13,1628713145000,2.22,13.48,8.308413,1
13,1628763560000,-3.45,11.54,-1.4982382,1
13,1628813029000,-12.53,9.34,-6.742072,1
13,1628863444000,-0.27,18.85,-4.1814466,1
13,1628913005000,0.19,17.82,11.876944,1
13,1628963451000,1.14,-0.42,5.284695,1
13,1629012920000,8.35,6.36,4.0180025,1
13,1629063365000,-1.73,0.15,5.284695,1
13,1629112834000,-0.34,4.29,5.7477865,1
13,1629163310000,3.83,13.44,4.7126403,1
13,1629212779000,-8.43,19.57,13.947236,1
13,1629263255000,9.51,17.47,-1.9477097,1
13,1629313640000,-1.88,-6.59,-14.628253,1
13,1629363170000,-1.14,-7.27,-12.721405,1
13,1629413554000,-2.56,-4.67,-10.337844,1
13,1629463023000,0.23,9.3,2.7921712,1
13,1629513469000,-1.08,17.39,8.471856,1
13,1629562144000,-7.04,6.44,-10.378705,1
13,1629612285000,-8.58,18.54,-6.742072,1
13,1629663615000,6.13,19.57,8.430995,1
13,1629713115000,0.23,5.33,7.3141265,1
13,1629763591000,6.7,3.34,6.973618,1
13,1629813090000,-0.65,2.72,9.343558,1
13,1629872356000,-1.46,1.54,4.671779,1
13,1629922252000,2.96,13.29,4.372132,1
13,1629972301000,-6.74,19.57,14.369467,1
13,1630022258000,6.05,19.38,1.920469,1
13,1630072337000,-0.91,-3.02,-14.206022,1
13,1630122264000,0.0,-9.0,-13.211738,1
13,1630182231000,-0.95,-4.48,-9.80665,1
13,1630232219000,1.84,12.11,5.434519,1
13,1630282268000,-1.92,13.59,0.92618364,1
13,1630332255000,-11.33,7.12,-6.0882955,1
13,1630382304000,-3.68,18.5,-2.5333846,1
13,1630432201000,0.95,19.31,8.008764,1
13,1630482310000,0.8,1.84,5.8976107,1
13,1630532237000,8.43,5.43,5.8567495,1
13,1630582316000,1.27,2.3,7.164303,1
13,1630632213000,-2.37,4.75,4.372132,1
13,1630682292000,0.89,18.47,10.079058,1
13,1630732219000,-9.08,19.57,9.112013,1
13,1630782298000,7.44,17.08,-1.920469,1
13,1630832225000,-2.91,-9.96,-14.601013,1
13,1630882335000,1.38,-6.43,-11.686258,1
13,1630932201000,-0.46,-2.91,-9.234595,1
13,1630982310000,1.69,14.56,7.8589406,1
13,1631032207000,-1.31,7.86,-1.4165162,1
13,1631082378000,-9.77,10.0,-7.6546354,1
13,1631132213000,1.23,17.73,-3.1463003,1
13,1631182292000,-3.6,18.2,9.575105,1
13,1631232219000,2.56,0.69,5.47538,1
13,1631282298000,7.46,8.73,4.5219555,1
13,1631332255000,-3.02,1.38,3.636633,1
13,1631382304000,-2.34,4.37,5.5162406,1
13,1631432201000,5.86,18.31,10.147159,1
13,1631482310000,-9.11,19.57,9.275456,1
13,1631532329000,8.5,12.18,-5.8567495,1
13,1631582316000,-6.17,-11.22,-13.593107,1
13,1631632243000,2.87,-6.55,-11.114203,1
13,1631682262000,-1.61,-1.5,-8.499097,1
13,1631732219000,0.0,15.94,8.689782,1
13,1631782298000,-2.53,9.66,-2.8738933,1
13,1631832225000,-9.3,9.15,-10.038197,1
13,1631882274000,-0.84,19.53,-0.29964766,1
13,1631932201000,1.12,17.73,6.1291566,1
13,1631982310000,1.65,-0.57,3.8681788,1
13,1632032207000,11.56,7.31,4.2086873,1
13,1632082316000,-4.29,0.31,4.1814466,1
13,1632132243000,-3.98,4.82,5.5162406,1
13,1632182292000,5.01,17.31,9.193735,1
13,1632232219000,-6.55,19.57,8.308413,1
13,1632282268000,7.67,14.06,-2.9556155,1
13,1632332225000,-5.82,-9.19,-15.241169,1
13,1632382274000,-0.42,-6.82,-12.408136,1
13,1632432201000,-1.46,-1.95,-8.117727,1
13,1632482310000,1.04,12.11,6.1700177,1
13,1632532207000,-6.09,17.16,1.7297841,1
13,1632582316000,-5.09,2.53,-13.715691,1
13,1632632213000,-0.3,19.57,-2.1792557,1
13,1632682292000,-1.08,18.28,7.668256,1
13,1632732219000,0.04,-0.5,3.336985,1
13,1632782298000,9.51,6.24,5.012288,1
13,1632832225000,-5.24,0.23,6.782933,1
13,1632882274000,0.23,4.1,7.164303,1
13,1632932201000,3.68,15.17,5.243834,1
13,1632982310000,-9.04,19.57,11.032481,1
13,1633032207000,6.78,18.58,0.7218784,1
13,1633082286000,-2.6,-8.24,-14.396708,1
13,1633132243000,0.19,-6.93,-12.830367,1
13,1633182262000,-2.18,-4.56,-9.302697,1
13,1633232219000,1.12,7.97,0.5720546,1
13,1633282268000,-0.84,18.5,9.343558,1
13,1633332225000,-9.11,5.6,-8.430995,1
13,1633382274000,-9.66,17.54,-5.7886477,1
13,1633432201000,7.97,19.57,9.656827,1
13,1633482280000,-2.87,4.4,6.932757,1
13,1633532237000,6.05,1.61,5.6252036,1
13,1633582286000,0.61,1.95,8.308413,1
13,1633632213000,0.61,-0.08,1.7297841,1
13,1633682262000,0.69,7.46,2.6423476,1
13,1633732280000,1.23,19.53,14.015338,1
13,1633782268000,-5.98,19.57,4.4810944,1
13,1633832225000,7.82,7.82,-9.00305,1
13,1633882335000,-4.79,-10.11,-15.826844,1
13,1633932231000,-2.3,-5.6,-11.114203,1
13,1633982310000,-0.46,-1.92,-5.9793324,1
13,1634032207000,1.23,12.68,5.6660647,1
13,1634082378000,-1.84,14.1,3.2961242,1
13,1634132243000,-9.77,9.62,-9.615966,1
13,1634182262000,-3.95,19.5,-1.4982382,1
13,1634232249000,-2.6,19.04,11.073342,1
13,1634282268000,1.88,-1.53,4.6036777,1
13,1634332225000,9.47,6.28,4.5219555,1
13,1634382274000,-6.05,0.53,6.973618,1
13,1634432201000,0.89,3.17,6.5513873,1
13,1634482310000,4.06,13.82,3.255263,1
13,1634532237000,-9.28,19.57,11.34575,1
13,1634592296000,4.33,19.57,1.9477097,1
13,1634642345000,-0.91,-9.77,-16.43976,1
13,1634692241000,-0.57,-6.89,-13.375181,1
13,1634742259000,-0.61,-3.98,-9.112013,1
13,1634792277000,2.18,8.16,2.152015,1
13,1634842265000,-0.61,15.47,10.310603,1
13,1634892253000,-9.53,10.57,-5.5571017,1
13,1634942271000,-6.97,17.47,-6.8237944,1
13,1634992137000,4.82,19.57,12.408136,1
13,1635042247000,-3.49,5.83,7.205164,1
13,1635042247000,-3.49,5.83,7.205164,1
13,1635042247000,-3.49,5.83,7.205164,1
13,1635092296000,7.12,1.54,5.7886477,1
13,0,0.0,0.0,0.0,1
13,0,0.0,0.0,0.0,1
13,1635342509000,-5.98,19.57,3.445948,1
13,1635342509000,-5.98,19.57,3.445948,1
13,1635342509000,-5.98,19.57,3.445948,1
13,0,0.0,0.0,0.0,1
13,0,0.0,0.0,0.0,1
13,1635553294000,-0.91,2.91,-4.7943625,1
13,1635612468000,-1.38,18.73,14.818938,1
13,1635712291000,-8.77,12.91,-7.273266,1
13,1635762218000,9.04,19.57,8.921328,1
13,1635762218000,9.04,19.57,8.921328,1
13,1635812205000,-5.18,7.97,7.8589406,1
13,1635862254000,6.28,1.14,5.829509,1
13,1635862254000,6.28,1.14,5.829509,1
13,0,0.0,0.0,0.0,1
13,0,0.0,0.0,0.0,1
13,1636042186000,4.21,15.55,5.325556,1
13,1636112224000,-5.98,19.57,6.5513873,1
13,0,0.0,0.0,0.0,1
13,1636232371000,-6.24,-9.15,-13.6748295,1
13,1636283366000,-1.88,-4.75,-10.079058,1
13,1636332225000,1.08,3.79,-2.070293,1
13,1636382274000,1.95,17.92,15.6634,1
13,1636432231000,-8.05,6.85,-9.234595,1
13,1636482310000,-9.7,15.43,-11.032481,1
13,1636532237000,10.42,19.57,6.3198414,1
13,1636582316000,-6.85,10.46,8.853226,1
13,1636632243000,8.89,-0.27,4.399372,1
13,1636682292000,3.17,3.64,7.9270425,1
13,1636732127000,-3.17,0.34,-0.3405087,1
13,1636795573000,2.07,9.51,2.4516625,1
13,1636795573000,2.07,9.51,2.4516625,1
13,1636795573000,2.07,9.51,2.4516625,1
13,1636852122000,-8.01,19.57,11.454713,1
13,0,0.0,0.0,0.0,1
13,1637012584000,-0.95,-5.75,-11.182305,1
13,1637012584000,-0.95,-5.75,-11.182305,1
13,1637112376000,3.38,13.1,9.384419,1
13,1637162242000,-2.68,11.88,-0.61291564,1
13,1637212260000,-6.89,4.56,-11.604536,1
13,1637262248000,-4.37,19.53,-2.9556155,1
13,1637312297000,0.46,18.39,6.782933,1
13,1637362224000,0.08,1.38,4.7535014,1
13,1637412303000,10.95,4.9,2.8738933,1
13,1637462230000,-2.56,-1.08,6.3607025,1
13,1637512279000,-3.45,4.4,5.7477865,1
13,1637562266000,-0.23,14.82,6.932757,1
13,1637612285000,-4.63,19.57,13.633968,1
13,1637662212000,6.59,18.58,0.10896278,1
13,1637712382000,-3.36,-9.81,-14.519291,1
13,1637762218000,1.88,-5.09,-11.795221,1
13,1637812297000,-1.73,-4.44,-9.193735,1
13,1637862254000,2.37,5.83,0.10896278,1
13,1637912303000,-1.76,18.81,8.921328,1
13,1637962199000,-7.44,4.4,-11.3321295,1
13,1638012279000,-10.61,18.54,-4.372132,1
13,1638062266000,8.43,19.57,11.727119,1
13,1638112285000,-0.38,3.45,7.164303,1
13,1638162242000,7.35,2.11,6.701211,1
13,1638212260000,-0.8,1.23,8.430995,1
13,1638262218000,-0.8,0.69,3.0645783,1
13,1638312266000,2.53,10.08,2.4108016,1
13,1638362224000,-4.44,19.57,15.595298,1
13,1638412273000,-1.18,19.57,4.7126403,1
13,1638462199000,7.31,10.42,-9.043911,1
13,1638512309000,-3.49,-9.38,-15.854085,1
13,1638562205000,0.5,-6.97,-10.841797,1
13,1638612285000,0.8,-0.23,-5.09401,1
13,1638662242000,-0.53,17.43,14.246883,1
13,1638712260000,-6.66,11.37,-10.460427,1
13,1638762218000,-6.28,2.37,-9.615966,1
13,1638812266000,3.49,19.57,-2.4925237,1
13,1638862254000,-6.97,13.29,7.5456724,1
13,1638912273000,7.06,-0.34,5.47538,1
13,1638962199000,8.39,7.16,4.440233,1
13,1639012889000,-10.5,0.04,1.879608,1
13,1639012889000,-10.5,0.04,1.879608,1
13,0,0.0,0.0,0.0,1
13,1639132274000,-7.5,19.57,8.008764,1
13,1639132274000,-7.5,19.57,8.008764,1
13,1639132274000,-7.5,19.57,8.008764,1
13,1639192393000,3.49,18.39,-0.19068487,1
13,1639342235000,-0.61,-4.18,-7.7772183,1
13,1639393046000,-0.91,10.12,5.243834,1
13,1639393046000,-0.91,10.12,5.243834,1
13,1639492290000,1.99,-5.37,-15.363752,1
13,1639492290000,1.99,-5.37,-15.363752,1
13,1639592143000,5.56,19.46,7.9270425,1
13,1639642222000,-5.75,2.6,7.3958488,1
13,1639642222000,-5.75,2.6,7.3958488,1
13,1639742229000,-3.76,1.04,6.782933,1
13,1639792247000,1.69,2.26,3.8273177,1
13,1639842204000,4.4,10.12,4.2495484,1
13,1639842204000,4.4,10.12,4.2495484,1
13,1639942210000,0.99,19.57,1.7978859,1
13,1639992229000,1.38,-4.79,-13.252599,1
13,1640042216000,-2.37,-6.4,-14.246883,1
13,1640092265000,-1.84,-5.94,-9.575105,1
13,1640142222000,1.76,5.9,-1.6480621,1
13,1640192271000,1.33,16.89,16.630445,1
13,1640242198000,-8.88,4.33,-9.112013,1
13,1640292308000,-9.0,12.07,-9.112013,1
13,1640342235000,13.87,19.57,1.879608,1
13,1640342235000,13.87,19.57,1.879608,1
13,1640442241000,6.93,-1.12,4.099725,1
13,1640442241000,6.93,-1.12,4.099725,1
13,1640542491000,-5.18,2.64,1.7570249,1
13,1640542491000,-5.18,2.64,1.7570249,1
13,1640593059000,6.13,14.94,3.1463003,1
13,1640593059000,6.13,14.94,3.1463003,1
13,1640593059000,6.13,14.94,3.1463003,1
13,1640732371000,3.95,-3.26,-10.419566,1
13,1640732371000,3.95,-3.26,-10.419566,1
13,0,0.0,0.0,0.0,1
13,1640912517000,2.15,17.77,14.818938,1
13,1640912517000,2.15,17.77,14.818938,1
13,1641012248000,-7.12,7.01,-11.727119,1
13,1641012248000,-7.12,7.01,-11.727119,1
13,1641012248000,-7.12,7.01,-11.727119,1
13,1641162303000,4.21,-3.49,4.2495484,1
13,1641212352000,10.69,6.09,2.3426998,1
13,1641262248000,-6.4,2.6,2.6423476,1
13,1641312266000,-0.38,8.5,3.214402,1
13,1641362254000,4.1,19.57,15.173067,1
13,1641412273000,4.67,19.57,5.8567495,1
13,1641462199000,1.95,2.83,-12.53072,1
13,1641512279000,-5.98,-9.0,-12.912089,1
13,1641562297000,-0.8,-3.68,-9.997335,1
13,1641612315000,1.04,1.99,-2.7921712,1
13,1641662273000,4.48,19.04,12.571581,1
13,1641712291000,-10.53,4.71,-2.6423476,1
13,1641762218000,-6.05,11.99,-9.575105,1
13,1641812297000,13.1,19.57,5.284695,1
13,1641862224000,-8.47,8.08,5.597963,1
13,1641912273000,10.42,-0.11,5.2165933,1
13,1641962138000,2.34,3.76,12.217452,1
13,1642013774000,-4.56,4.63,3.445948,1
13,1642013774000,-4.56,4.63,3.445948,1
13,1642072581000,5.33,15.47,5.6660647,1
13,1642072581000,5.33,15.47,5.6660647,1
13,1642072581000,5.33,15.47,5.6660647,1
13,1642142131000,0.34,19.57,4.630918,1
13,0,0.0,0.0,0.0,1
13,1642332225000,-1.69,-0.99,-6.2108784,1
13,1642382365000,3.41,16.97,10.419566,1
13,1642432658000,-3.17,6.44,-6.428804,1
13,1642482890000,-8.2,8.73,-12.067628,1
13,1642533519000,6.51,18.89,-3.7864566,1
13,1642592235000,-6.85,13.72,9.915613,1
13,1642642253000,7.25,-1.53,4.1814466,1
13,1642642253000,7.25,-1.53,4.1814466,1
13,0,0.0,0.0,0.0,1
13,0,0.0,0.0,0.0,1
13,0,0.0,0.0,0.0,1
13,1643002391000,-5.63,-9.15,-12.721405,1
13,1643052318000,-3.34,-2.83,-10.079058,1
13,1643052318000,-3.34,-2.83,-10.079058,1
13,1643152537000,4.56,16.44,10.651112,1
13,1643202373000,-6.78,7.78,-6.932757,1
13,1643252330000,-7.04,14.9,-5.202973,1
13,1643302287000,10.42,19.53,8.499097,1
13,1643362346000,-0.91,7.46,7.3958488,1
13,1643412425000,8.16,5.48,4.399372,1
13,1643462230000,-3.26,1.08,7.3141265,1
13,1643512218000,-1.08,3.34,5.09401,1
13,1643562236000,6.59,15.21,7.0553403,1
13,1643612315000,-6.05,19.57,9.615966,1
13,1643662212000,6.59,18.73,-1.4982382,1
13,1643712260000,-0.53,-7.59,-12.680544,1
13,1643762218000,-0.99,-5.48,-12.598822,1
13,1643812266000,-3.79,-4.29,-10.337844,1
13,1643862254000,2.3,7.16,1.1441092,1
13,1643912303000,1.38,19.46,7.3549876,1
13,1643962230000,-6.21,-2.22,-9.084772,1
13,1644012248000,-8.12,16.25,-7.164303,1
13,1644062205000,8.2,19.46,9.956474,1
13,1644112346000,-2.07,2.03,5.8567495,1
13,1644162242000,10.0,2.64,7.5865335,1
13,1644212260000,-0.38,1.76,8.499097,1
13,1644262126000,-2.75,3.57,4.440233,1
13,1644324901000,6.13,16.17,5.829509,1
13,1644324901000,6.13,16.17,5.829509,1
13,1644324901000,6.13,16.17,5.829509,1
13,1644324901000,6.13,16.17,5.829509,1
13,1644412364000,7.86,18.47,0.88532263,1
13,0,0.0,0.0,0.0,1
13,1644612193000,1.99,5.24,-1.56634,1
13,1644612193000,1.99,5.24,-1.56634,1
13,1644712199000,-7.21,9.15,-9.656827,1
13,1644762309000,-7.7,12.53,-4.4810944,1
13,1644812205000,11.92,19.57,7.7772183,1
13,1644862285000,-1.99,12.03,6.510526,1
13,1644912242000,4.02,-0.57,7.014479,1
13,1644912242000,4.02,-0.57,7.014479,1
13,1644983440000,-1.84,0.8,9.466142,1
13,0,0.0,0.0,0.0,1
13,0,0.0,0.0,0.0,1
13,1645223216000,0.27,-6.55,-15.322891,1
13,1645223216000,0.27,-6.55,-15.322891,1
13,1645282268000,-0.76,-5.52,-10.95076,1
13,1645382243000,2.37,8.96,0.6537767,1
13,1645382243000,2.37,8.96,0.6537767,1
13,1645432262000,-0.53,12.18,3.1463003,1
13,1645532237000,-0.34,17.69,-2.6014864,1
13,1645532237000,-0.34,17.69,-2.6014864,1
13,1645582286000,-2.72,19.08,6.5513873,1
13,1645632274000,1.38,5.43,6.0474343,1
13,1645732249000,-1.65,1.04,6.66035,1
13,1645732249000,-1.65,1.04,6.66035,1
13,1645832225000,5.75,16.78,9.534244,1
13,1645832225000,5.75,16.78,9.534244,1
13,1645882243000,-0.27,19.57,8.049625,1
13,1645932353000,5.56,17.24,0.46309182,1
13,1646032207000,-1.61,-5.01,-12.108489,1
13,1646032207000,-1.61,-5.01,-12.108489,1
13,1646082347000,-4.75,-3.68,-10.079058,1
13,1646142314000,4.71,15.09,8.580819,1
13,1646192271000,-4.18,12.98,-5.434519,1
13,1646242290000,-6.43,3.91,-9.697687,1
13,1646292277000,4.06,19.57,3.718355,1
13,1646342296000,-4.75,16.21,7.6273947,1
13,1646392284000,2.53,-1.04,3.8681788,1
13,1646442302000,11.22,5.86,4.7535014,1
13,1646492137000,-6.13,1.04,2.5606253,1
13,0,0.0,0.0,0.0,1
13,1646782176000,-0.99,-5.71,-13.252599,1
13,1646832316000,-2.18,-4.37,-9.152874,1
13,1646832316000,-2.18,-4.37,-9.152874,1
13,1646932658000,-1.76,15.7,1.7297841,1
13,1646982341000,-6.7,4.94,-8.539958,1
13,1647032359000,-7.01,18.77,-5.325556,1
13,1647082255000,3.21,19.11,10.119919,1
13,1647132274000,-0.19,0.99,5.5571017,1
13,1647182262000,9.0,4.48,5.053149,1
13,1647232280000,-1.65,1.42,8.049625,1
13,1647282207000,-0.42,3.53,5.243834,1
13,1647342357000,6.74,15.09,3.445948,1
13,1647392253000,-5.56,19.57,8.662541,1
13,1647442271000,8.2,14.94,-1.920469,1
13,1647492259000,-4.48,-8.81,-14.669114,1
13,1647542308000,-1.57,-4.86,-13.402422,1
13,1647602275000,-2.96,-2.91,-8.308413,1
13,1647602275000,-2.96,-2.91,-8.308413,1
13,1647662578000,2.64,16.59,11.264028,1
13,1647712260000,-5.9,14.1,-3.9090397,1
13,1647762523000,-6.4,4.82,-10.61025,1
13,1647812266000,6.44,19.57,3.1463003,1
13,1647862498000,-9.04,15.79,9.656827,1
13,1647912273000,3.49,-2.91,2.6014864,1
13,1647962504000,10.99,5.37,4.5219555,1
13,1648012279000,-5.01,0.95,2.4516625,1
13,1648062450000,0.11,4.37,4.630918,1
13,1648112285000,8.81,17.88,5.7886477,1
13,1648162395000,-8.05,19.57,7.8589406,1
13,1648212260000,7.97,16.21,-2.2609777,1
13,1648262340000,-4.06,-6.4,-14.09706,1
13,1648312266000,-2.68,-5.94,-12.680544,1
13,1648362315000,-2.56,-3.98,-9.112013,1
13,1648412730000,3.3,7.46,4.399372,1
13,1648462260000,-1.84,19.57,5.134871,1
13,1648512675000,-6.02,-5.01,-10.419566,1
13,1648562297000,-11.07,15.75,-4.2904096,1
13,1648612590000,10.61,19.57,5.243834,1
13,1648662303000,-3.3,2.76,7.5456724,1
13,1648712504000,9.0,2.07,5.8976107,1
13,1648762370000,-0.23,1.54,8.281172,1
13,1648812114000,-1.08,1.92,2.4108016,1
13,1648863475000,4.25,10.23,0.84446156,1
13,1648863475000,4.25,10.23,0.84446156,1
13,1648939097000,-4.1,19.57,10.95076,1
13,1648939097000,-4.1,19.57,10.95076,1
13,0,0.0,0.0,0.0,1
13,1649142222000,-4.1,-3.6,-8.430995,1
13,1649192210000,3.3,11.3,4.7535014,1
13,1649242320000,2.11,12.68,2.982856,1
13,1649242320000,2.11,12.68,2.982856,1
13,1649342601000,-1.31,19.5,-2.9556155,1
13,1649392253000,-3.3,19.31,5.706926,1
13,1649442271000,1.57,3.26,6.0474343,1
13,1649492229000,9.15,4.86,4.7126403,1
13,1649542308000,-2.41,2.26,7.164303,1
13,1649592235000,-2.18,2.49,6.1700177,1
13,1649642314000,4.06,10.95,2.5606253,1
13,1649692210000,-4.1,19.57,13.565866,1
13,1649742259000,8.77,19.57,2.6014864,1
13,1649792247000,0.53,-1.42,-15.4046135,1
13,1649842296000,-3.17,-9.3,-14.519291,1
13,1649892284000,-2.53,-5.75,-10.95076,1
13,1649942302000,0.46,5.86,-1.1849703,1
13,1649992229000,0.76,17.73,11.536434,1
13,1650042308000,-3.79,8.31,-8.076866,1
13,1650092235000,-8.58,16.7,-5.8567495,1
13,1650142314000,9.96,19.57,6.3607025,1
13,1650192241000,-5.41,8.69,7.8589406,1
13,1650242259000,6.36,0.08,6.8237944,1
13,1650292155000,5.28,2.76,8.281172,1
13,1650345897000,-3.6,1.23,2.6832085,1
13,1650345897000,-3.6,1.23,2.6832085,1
13,0,0.0,0.0,0.0,1
13,1650462871000,-10.08,19.57,9.343558,1
13,1650462871000,-10.08,19.57,9.343558,1
13,1650462871000,-10.08,19.57,9.343558,1
13,0,0.0,0.0,0.0,1
13,1650692149000,-3.15,1.73,-4.372132,1
13,1650742320000,1.42,15.02,12.598822,1
13,1650792186000,0.0,6.36,-4.2086873,1
13,1650842265000,-10.27,16.13,-14.09706,1
13,1650892192000,6.24,19.57,5.284695,1
13,1650942271000,-5.71,15.6,9.043911,1
13,1650992686000,5.01,-1.42,2.1111538,1
13,1650992686000,5.01,-1.42,2.1111538,1
13,1650992686000,5.01,-1.42,2.1111538,1
13,0,0.0,0.0,0.0,1
13,1651182475000,5.71,12.3,1.0351465,1
13,1651233165000,-9.23,19.57,12.871228,1
13,1651233165000,-9.23,19.57,12.871228,1
13,0,0.0,0.0,0.0,1
13,0,0.0,0.0,0.0,1
13,1651442149000,-0.27,-6.17,-10.147159,1
13,1651442149000,-0.27,-6.17,-10.147159,1
13,1651542430000,-3.53,16.13,13.293459,1
13,1651592235000,-1.8,6.51,-9.275456,1
13,1651642314000,-8.35,16.82,-6.701211,1
13,1651692241000,10.19,19.57,6.851035,1
13,1651742259000,-8.05,11.11,9.152874,1
13,1651792216000,8.05,-1.61,7.082581,1
13,1651792216000,8.05,-1.61,7.082581,1
13,1651892161000,-5.13,0.0,-0.29964766,1
13,1651892161000,-5.13,0.0,-0.29964766,1
13,1651955943000,2.11,9.19,2.3426998,1
13,1651955943000,2.11,9.19,2.3426998,1
13,1652012370000,-6.47,19.57,15.28203,1
13,0,0.0,0.0,0.0,1
13,0,0.0,0.0,0.0,1
13,1652233317000,-1.5,-3.11,-9.534244,1
13,1652233317000,-1.5,-3.11,-9.534244,1
13,1652282298000,1.61,13.18,7.3549876,1
13,1652382213000,-7.97,9.72,-10.882658,1
13,1652382213000,-7.97,9.72,-10.882658,1
13,1652482280000,-1.42,18.58,7.4639506,1
13,1652482280000,-1.42,18.58,7.4639506,1
13,1652582286000,9.04,3.64,5.706926,1
13,1652582286000,9.04,3.64,5.706926,1
13,1652682262000,0.61,0.72,4.8216033,1
13,1652682262000,0.61,0.72,4.8216033,1
13,1652782207000,-6.13,19.57,16.43976,1
13,1652782207000,-6.13,19.57,16.43976,1
13,1652882213000,5.09,0.46,-12.217452,1
13,1652882213000,5.09,0.46,-12.217452,1
13,1652982249000,0.38,-7.08,-10.419566,1
13,1652982249000,0.38,-7.08,-10.419566,1
13,1653032237000,0.93,1.27,-4.440233,1
13,1653132213000,-1.76,2.96,-14.206022,1
13,1653132213000,-1.76,2.96,-14.206022,1
13,1653232249000,10.46,19.57,3.718355,1
13,1653232249000,10.46,19.57,3.718355,1
13,1653332255000,8.77,-1.65,7.668256,1
13,1653332255000,8.77,-1.65,7.668256,1
13,1653432109000,-6.32,0.31,1.3075534,1
13,1653432109000,-6.32,0.31,1.3075534,1
13,1653487193000,4.75,7.4,1.1168685,1
13,1653487193000,4.75,7.4,1.1168685,1
13,1653487193000,4.75,7.4,1.1168685,1
13,1653487193000,4.75,7.4,1.1168685,1
13,1653812114000,0.5,11.8,9.765789,1
13,1653812114000,0.5,11.8,9.765789,1
13,1653863200000,-7.12,15.75,4.944186,1
13,1653912486000,-5.01,4.25,-11.264028,1
13,1653962596000,-8.69,17.97,-4.2495484,1
13,1654013011000,6.13,19.19,11.073342,1
13,1654063548000,-2.18,-1.57,3.5276701,1
13,1654113078000,9.89,5.6,3.718355,1
13,1654163554000,-7.31,-0.53,3.8681788,1
13,1654213023000,1.84,4.06,4.903325,1
13,1654213023000,1.84,4.06,4.903325,1
13,1654312297000,-9.23,19.57,9.00305,1
13,1654362681000,7.59,17.31,-4.140586,1
13,1654412883000,-2.91,-12.83,-17.24336,1
13,1654463451000,2.56,-6.05,-13.0619135,1
13,1654513042000,-0.08,-4.63,-8.662541,1
13,1654563548000,-0.95,12.15,6.782933,1
13,1654613109000,-3.72,16.04,3.990762,1
13,1654663646000,-7.16,5.98,-8.430995,1
13,1654713206000,-7.31,17.88,-4.0180025,1
13,1654763743000,4.63,19.0,14.437569,1
13,1654813274000,-2.98,-1.33,5.243834,1
13,1654862804000,11.3,5.05,5.8976107,1
13,1654913341000,-6.85,-0.8,2.8330324,1
13,1654962962000,2.26,5.48,4.372132,1
13,1655013438000,5.24,16.93,9.193735,1
13,1655062968000,-10.95,19.57,9.425281,1
13,1655113475000,7.35,13.8,-5.8976107,1
13,1655163005000,-2.79,-11.65,-15.704261,1
13,1655213481000,-1.04,-6.74,-15.4046135,1
13,1655263072000,0.31,-2.22,-8.390134,1
13,1655313548000,0.99,15.13,12.367276,1
13,1655363048000,-2.53,10.84,1.0351465,1
13,1655413615000,-7.89,9.23,-9.343558,1
13,1655463115000,-5.82,18.89,-3.336985,1
13,1655513621000,3.6,19.34,10.501288,1
13,1655563121000,0.65,-1.23,3.568531,1
13,1655613628000,10.27,4.33,0.7218784,1
13,1655663188000,-8.96,-0.61,2.5606253,1
13,1655713634000,1.04,7.25,5.134871,1
13,1655763164000,-0.5,18.54,13.184497,1
13,1655813823000,-4.82,19.57,11.876944,1
13,1655872356000,8.89,11.73,-10.95076,1
13,1655922252000,-7.89,-13.53,-15.173067,1
13,1655972301000,2.26,-5.2,-11.917805,1
13,1656022227000,0.65,-1.14,-5.6660647,1
13,1656072276000,-2.3,17.47,11.032481,1
13,1656122264000,-2.83,6.44,-4.862464,1
13,1656182231000,-2.22,9.77,-11.686258,1
13,1656232249000,6.44,19.53,2.6832085,1
13,1656282298000,-10.27,12.11,8.499097,1
13,1656332225000,9.72,-1.92,6.0882955,1
13,1656396251000,-1.38,4.21,9.466142,1
13,1656396251000,-1.38,4.21,9.466142,1
13,0,0.0,0.0,0.0,1
13,1656582255000,2.96,19.57,5.2165933,1
13,1656632243000,4.1,1.61,-9.80665,1
13,1656682231000,-4.82,-9.77,-13.865514,1
13,1656732341000,0.04,-6.55,-11.304889,1
13,1656782420000,-0.53,2.91,-4.099725,1
13,1656832286000,-0.8,18.54,15.050485,1
13,1656882365000,-1.92,4.94,-11.454713,1
13,1656942302000,-11.33,17.35,-7.8180795,1
13,1656942302000,-11.33,17.35,-7.8180795,1
13,1657002849000,10.99,19.57,4.6036777,1
13,1657052867000,-3.91,6.78,4.903325,1
13,1657102794000,9.85,2.64,7.5456724,1
13,1657102794000,9.85,2.64,7.5456724,1
13,0,0.0,0.0,0.0,1
13,0,0.0,0.0,0.0,1
13,1657288798000,1.88,19.57,14.750836,1
13,0,0.0,0.0,0.0,1
13,1657392192000,0.69,-3.87,-13.783792,1
13,1657452952000,-2.53,-8.47,-11.536434,1
13,1657452952000,-2.53,-8.47,-11.536434,1
13,1657552348000,3.02,9.51,2.2201166,1
13,1657602305000,-1.23,17.86,11.223166,1
13,1657652324000,-6.97,3.3,-9.575105,1
13,1657702251000,-6.85,14.29,-8.390134,1
13,1657752269000,10.15,19.57,9.275456,1
13,1657802287000,-5.33,2.87,5.053149,1
13,1657852275000,10.57,2.45,6.2789803,1
13,1657902202000,-4.75,2.91,8.853226,1
13,1657955241000,-0.91,5.56,5.5571017,1
13,1657955241000,-0.91,5.56,5.5571017,1
13,1658013560000,4.94,17.24,8.771504,1
13,1658013560000,4.94,17.24,8.771504,1
13,1658082164000,1.69,19.57,2.9556155,1
13,1658082164000,1.69,19.57,2.9556155,1
13,1658082164000,1.69,19.57,2.9556155,1
13,0,0.0,0.0,0.0,1
13,1658312205000,0.19,15.64,10.691973,1
13,1658363109000,-3.26,14.29,-5.134871,1
13,1658363109000,-3.26,14.29,-5.134871,1
13,1658462413000,0.65,18.81,-2.3018389,1
13,1658512218000,-3.02,16.74,8.689782,1
13,1658562205000,1.95,-3.26,4.1814466,1
13,1658612254000,8.58,6.24,3.6774938,1
13,1658662242000,-4.48,-1.12,1.3075534,1
13,1658712260000,0.99,4.67,3.718355,1
13,1658762248000,3.76,18.92,10.56939,1
13,1658812297000,-9.96,19.57,7.8180795,1
13,1658862254000,6.24,13.72,-4.372132,1
13,1658912303000,-2.14,-7.63,-12.258313,1
13,1658962230000,-0.27,-6.74,-14.056199,1
13,1659012279000,-1.12,-3.15,-9.724928,1
13,1659062266000,2.68,11.73,5.2165933,1
13,1659112285000,-1.27,13.57,9.152874,1
13,1659162242000,-8.24,9.92,-8.812365,1
13,1659212260000,-6.47,17.77,0.27240697,1
13,1659262218000,1.8,19.38,6.5922484,1
13,1659312266000,-0.15,2.37,3.990762,1
13,1659362254000,8.39,5.63,4.0588636,1
13,1659412303000,-5.86,0.65,8.240311,1
13,1659462230000,0.61,2.68,5.8976107,1
13,1659512309000,4.14,11.99,3.990762,1
13,1659562236000,-3.68,19.57,14.328606,1
13,1659612285000,8.2,19.57,2.3018389,1
13,1659662273000,1.5,-1.46,-15.241169,1
13,1659712291000,-4.4,-10.5,-13.824653,1
13,1659762248000,0.34,-4.86,-10.147159,1
13,1659812266000,2.18,4.37,-0.7627395,1
13,1659862254000,0.38,18.39,15.050485,1
13,1659912303000,-7.04,10.95,-9.466142,1
13,1659962260000,-6.74,11.11,-12.108489,1
13,1660012248000,6.63,19.57,6.932757,1
13,1660062236000,-6.89,14.44,11.727119,1
13,1660112315000,4.18,-1.99,4.8216033,1
13,1660162242000,9.51,4.37,2.152015,1
13,1660213695000,-8.54,-1.46,0.46309182,1
13,1660213695000,-8.54,-1.46,0.46309182,1
13,0,0.0,0.0,0.0,1
13,0,0.0,0.0,0.0,1
13,1660332469000,0.08,19.57,15.213928,1
13,0,0.0,0.0,0.0,1
13,1660482127000,-5.6,-11.45,-12.5579605,1
13,1660532176000,1.42,-6.78,-9.956474,1
13,1660582255000,0.93,1.99,-6.469665,1
13,1660632304000,-1.18,18.85,16.208214,1
13,1660682475000,-4.59,11.41,-11.372991,1
13,1660742259000,-8.69,10.88,-7.273266,1
13,1660802287000,11.92,19.57,10.310603,1
13,1660852214000,-4.21,5.56,6.510526,1
13,1660902263000,10.5,0.84,5.2165933,1
13,1660902263000,10.5,0.84,5.2165933,1
13,1660902263000,10.5,0.84,5.2165933,1
13,0,0.0,0.0,0.0,1
13,0,0.0,0.0,0.0,1
13,0,0.0,0.0,0.0,1
13,0,0.0,0.0,0.0,1
13,1661192760000,6.89,3.49,-9.343558,1
13,1661292369000,1.08,-7.46,-12.067628,1
13,1661292369000,1.08,-7.46,-12.067628,1
13,1661392650000,-2.91,18.2,13.33432,1
13,1661392650000,-2.91,18.2,13.33432,1
13,1661492259000,-9.62,16.04,-11.9450445,1
13,1661542369000,9.19,19.46,1.334794,1
13,1661592235000,-9.15,15.98,11.304889,1
13,1661642284000,4.75,-1.57,2.6832085,1
13,1661642284000,4.75,-1.57,2.6832085,1
13,1661702251000,8.39,4.52,4.671779,1
13,1661759105000,-2.26,-0.23,0.88532263,1
13,0,0.0,0.0,0.0,1
13,0,0.0,0.0,0.0,1
13,1662052226000,2.26,-6.59,-13.33432,1
13,1662052226000,2.26,-6.59,-13.33432,1
13,1662152293000,0.61,14.33,8.771504,1
13,1662202281000,-2.45,9.66,5.9793324,1
13,1662252269000,-7.93,11.26,-8.539958,1
13,1662302409000,-3.95,17.88,-5.202973,1
13,1662352336000,-2.14,19.46,11.75436,1
13,1662402324000,2.49,2.15,6.742072,1
13,1662452251000,7.27,4.67,6.851035,1
