user-id,timestamp,accX,accY,accZ,ActivityEncoded
15,1595562266000,1.54,7.86,-8.730643,5
15,1595622264000,11.54,16.21,3.2961242,5
15,1595672221000,3.11,9.58,-4.3312707,5
15,1595722301000,1.38,9.81,-8.812365,5
15,1595772288000,-1.12,7.93,-0.9942854,5
15,1595822307000,1.61,6.47,1.879608,5
15,1595872233000,1.14,6.47,-1.1168685,5
15,1595922313000,4.56,8.43,-2.1111538,5
15,1595972240000,5.94,9.34,-1.6889231,5
15,1596022258000,4.94,10.23,-3.568531,5
15,1596072215000,5.6,10.34,-2.6423476,5
15,1596122264000,3.02,12.64,-1.7570249,5
15,1596172252000,6.66,13.4,1.0351465,5
15,1596222270000,4.52,12.45,-3.1054392,5
15,1596272197000,4.44,9.0,-0.53119355,5
15,1596322307000,3.15,6.93,0.42223078,5
15,1596372264000,0.46,5.67,-1.9885708,5
15,1596422313000,-1.04,5.75,-2.2201166,5
15,1596472240000,0.08,7.16,1.1849703,5
15,1596522288000,11.11,10.73,2.8330324,5
15,1596572276000,10.23,8.5,-1.879608,5
15,1596622295000,7.7,9.34,-6.0882955,5
15,1596672252000,7.97,15.13,6.0882955,5
15,1596722270000,1.12,10.69,-1.7570249,5
15,1596772197000,2.76,10.0,-6.4015636,5
15,1596822276000,-1.73,9.08,-4.903325,5
15,1596872203000,2.6,7.16,0.10896278,5
15,1596922282000,0.04,7.25,0.38136974,5
15,1596972209000,1.61,10.61,0.14982383,5
15,1597022441000,3.64,12.37,-1.525479,5
15,1597072246000,3.76,11.6,-6.0474343,5
15,1597072246000,3.76,11.6,-6.0474343,5
15,1597141307000,5.52,9.51,-3.9090397,5
15,1597192271000,4.1,9.28,-2.3018389,5
15,1597242259000,4.48,10.88,-2.9556155,5
15,1597292308000,1.73,10.76,-0.5720546,5
15,1597342326000,1.23,9.47,-1.9477097,5
15,1597392314000,1.92,8.24,-0.7627395,5
15,1597442241000,0.93,7.82,-1.920469,5
15,1597492290000,-1.61,7.67,-2.4925237,5
15,1597542308000,-0.61,8.2,-0.14982383,5
15,1597602306000,4.82,11.45,4.372132,5
15,1597652232000,5.33,12.22,-2.1111538,5
15,1597702312000,5.22,10.31,-3.8273177,5
15,1597752238000,3.95,12.79,4.9850473,5
15,1597802318000,1.42,9.47,-0.29964766,5
15,1597852244000,1.76,7.93,-5.434519,5
15,1874892314000,4.33,10.15,2.3018389,4
15,1874942271000,4.71,9.7,-4.1814466,4
15,1874992290000,2.91,9.51,-4.140586,4
15,1875042338000,3.76,7.21,-4.944186,4
15,1875092296000,5.24,5.71,-1.2666923,4
15,1875142284000,4.56,5.01,-0.46309182,4
15,1875192302000,5.28,4.71,-1.7297841,4
15,1875242351000,6.78,7.7,-1.3756552,4
15,1875292338000,10.53,11.73,-2.3699405,4
15,1875342296000,6.51,12.18,5.7477865,4
15,1875392284000,4.63,2.83,-4.7943625,4
15,1875442271000,11.41,9.23,-6.4015636,4
15,1875492290000,16.55,10.84,-7.1234417,4
15,1875542277000,8.54,5.98,1.7297841,4
15,1875592265000,-6.09,-0.61,6.0201936,4
15,1875642345000,-5.43,1.84,-3.0237172,4
15,1875692271000,2.11,12.41,-4.7535014,4
15,1875742259000,9.92,19.5,-5.366417,4
15,1875792308000,13.76,16.47,-0.95342433,4
15,1875842265000,6.02,8.62,2.152015,4
15,1875892284000,-0.23,8.16,-0.7627395,4
15,1875942271000,1.18,12.15,0.3405087,4
15,1875992534000,0.69,11.41,0.19068487,4
15,1876042277000,8.81,8.58,-0.9942854,4
15,1876092296000,11.6,12.83,0.313268,4
15,1876142284000,4.33,10.57,0.8036005,4
15,1876192302000,3.34,7.74,0.9942854,4
15,1876242259000,4.52,6.55,0.95342433,4
15,1876292308000,3.91,4.67,0.61291564,4
15,1876342265000,1.99,1.84,0.61291564,4
15,1876392314000,3.64,1.38,1.7297841,4
15,1876392314000,3.64,1.38,1.7297841,4
15,1876392314000,3.64,1.38,1.7297841,4
15,0,0.0,0.0,0.0,4
15,1876602275000,3.6,14.98,-0.95342433,4
15,1876652232000,2.83,13.4,-0.7627395,4
15,1876702251000,4.02,10.19,-0.38136974,4
15,1876752269000,6.21,7.35,-0.50395286,4
15,1876802318000,4.4,5.98,-0.0,4
15,1876852367000,3.83,6.05,0.19068487,4
15,1876912273000,5.22,7.55,-2.1792557,4
15,1876962230000,4.63,10.31,-1.4165162,4
15,1877012309000,4.4,14.63,-0.3405087,4
15,1877062266000,5.22,17.69,5.012288,4
15,1877062266000,5.22,17.69,5.012288,4
15,1877133403000,1.33,14.1,2.1111538,4
15,0,0.0,0.0,0.0,4
15,0,0.0,0.0,0.0,4
15,1877282176000,3.87,8.96,0.46309182,4
15,1877332255000,-0.04,6.13,-1.56634,4
15,1877382304000,0.69,5.33,-1.2666923,4
15,1877432262000,0.27,3.38,0.23154591,4
15,1877482616000,-1.08,2.45,0.61291564,4
15,1877532207000,-0.34,5.33,-0.88532263,4
15,1877582286000,8.16,13.44,-4.5628166,4
15,1877632243000,11.11,16.74,8.076866,4
15,1877682292000,-0.46,3.15,-2.1792557,4
15,1877732219000,0.11,9.11,-1.4982382,4
15,1877782268000,0.57,16.82,-2.7921712,4
15,1877832286000,2.6,8.16,-1.1849703,4
15,1877882274000,3.57,5.28,-1.1441092,4
15,1877932231000,4.21,7.01,-0.95342433,4
15,1877982310000,2.76,9.28,1.0351465,4
15,1878032237000,2.53,10.0,-1.7297841,4
15,1878082286000,1.92,11.56,-2.1383946,4
15,1878132213000,0.61,12.64,0.040861044,4
15,1878182262000,2.03,13.48,0.5720546,4
15,1878232249000,3.06,15.83,0.92618364,4
15,1878282268000,-0.89,13.21,1.7978859,4
15,1878332286000,1.76,10.61,-4.099725,4
15,1878382274000,4.52,11.69,3.445948,4
15,1878432231000,2.34,11.03,-0.84446156,4
15,1878482341000,0.11,8.35,-1.1441092,4
15,1878532390000,-2.37,6.28,-0.6946377,4
15,1878582286000,1.23,6.51,-0.14982383,4
15,1878632243000,0.65,3.11,-0.38136974,4
15,1878682201000,0.04,3.68,-1.1168685,4
15,1878732280000,2.3,3.95,-1.4982382,4
15,1878782207000,9.0,19.04,-4.2904096,4
15,1878832286000,2.72,9.28,1.879608,4
15,1878882274000,-0.3,4.75,-2.1111538,4
15,1878932262000,-2.87,17.73,-1.3756552,4
15,1878982219000,0.89,8.96,0.84446156,4
15,1879032237000,1.5,6.32,-0.53119355,4
15,1879082316000,3.83,6.55,-1.334794,4
15,1879132243000,1.92,7.55,-0.9942854,4
15,1879182292000,0.53,10.0,-0.040861044,4
15,1879232249000,-1.53,11.45,-1.525479,4
15,1879282359000,-0.8,12.26,-1.3075534,4
15,1879332164000,0.46,14.33,1.3075534,4
15,1879383647000,1.61,15.55,1.7297841,4
15,1879432231000,-3.6,13.63,1.0351465,4
15,1879482341000,-1.38,11.8,-1.1441092,4
15,1879542247000,1.42,11.56,-0.61291564,4
15,1879542247000,1.42,11.56,-0.61291564,4
15,1879602275000,0.95,9.08,1.3075534,4
15,1879652202000,-1.92,7.89,-1.334794,4
15,1879702281000,-2.18,6.82,-0.040861044,4
15,1879752238000,-0.04,7.74,-0.46309182,4
15,1879802257000,-1.23,3.11,0.14982383,4
15,1879852244000,-0.53,3.49,-0.42223078,4
15,1879902232000,0.38,4.71,-0.42223078,4
15,1879952251000,3.06,17.86,-4.944186,4
15,1880003703000,3.06,14.44,7.3549876,4
15,1880052257000,-1.08,3.11,-1.9885708,4
15,1880103618000,-4.21,13.48,-2.9556155,4
15,1880152232000,-2.18,13.25,-1.7570249,4
15,1880203502000,-0.8,5.86,1.2258313,4
15,1880252238000,0.19,5.94,0.46309182,4
15,1880303386000,1.27,8.01,-0.84446156,4
15,1880352275000,-1.23,9.47,-1.1849703,4
15,1880412303000,-3.11,12.37,-2.1792557,4
15,1880462260000,-2.37,14.63,0.38136974,4
15,1880512309000,-2.41,15.13,3.214402,4
15,1880562266000,-3.57,14.71,2.7240696,4
15,1880612346000,-6.63,12.22,-0.10896278,4
15,1880662273000,-0.08,9.85,-2.3699405,4
15,1880712291000,-1.31,12.45,3.0237172,4
15,1880762309000,-3.3,8.2,-0.88532263,4
15,1880812297000,-2.91,3.83,-2.2201166,4
15,1880862285000,-2.45,4.37,-0.10896278,4
15,1880912273000,-0.91,2.68,-0.10896278,4
15,1880962260000,-2.11,3.11,0.50395286,4
15,1881012279000,-2.14,5.6,-2.7240696,4
15,1881062297000,-1.57,18.01,-7.9270425,4
15,1881112285000,0.27,13.38,8.962189,4
15,1881162303000,-2.41,3.79,-2.6832085,4
15,1881212260000,-6.85,14.21,-1.4573772,4
15,1881262279000,-4.67,10.92,-1.2666923,4
15,1881312297000,-1.61,6.05,0.5720546,4
15,1881362315000,-0.3,5.83,0.08172209,4
15,1881412273000,0.38,6.51,-1.879608,4
15,1881462291000,-1.31,11.03,-2.7240696,4
15,1881512279000,-4.82,13.76,-0.42223078,4
15,1881562297000,-7.5,12.83,4.3312707,4
15,1881612285000,-4.9,14.37,1.2258313,4
15,1881662303000,-6.13,12.87,0.6946377,4
15,1881722331000,-2.87,11.6,-1.7297841,4
15,1881772197000,-2.07,10.31,0.42223078,4
15,1881822246000,-3.95,8.47,3.486809,4
15,1881872295000,-1.18,5.33,-2.8738933,4
15,1881922252000,-2.6,4.52,-1.2258313,4
15,1881972301000,-2.91,6.28,-0.10896278,4
15,1882022258000,-4.14,2.98,-0.3405087,4
15,1882072307000,-3.34,2.56,-1.3756552,4
15,1882122203000,-4.67,15.28,-8.076866,4
15,1882172313000,-3.83,15.85,9.697687,4
15,1882222209000,-2.56,4.99,-1.920469,4
15,1882272288000,-6.78,15.47,-2.0294318,4
15,1882322215000,-2.56,9.66,-0.7627395,4
15,1882372264000,0.08,4.29,-0.08172209,4
15,1882422221000,-0.23,4.71,-0.29964766,4
15,1882472331000,-1.8,7.01,-0.6537767,4
15,1882522227000,-5.48,10.5,-1.0760075,4
15,1882572307000,-7.12,12.07,-2.4108016,4
15,1882622203000,-8.85,13.29,1.7978859,4
15,1882672313000,-2.91,14.37,1.4165162,4
15,1882722240000,-4.79,11.92,-1.1441092,4
15,1882772288000,-3.79,11.3,1.334794,4
15,1882822215000,-4.1,11.73,-2.5606253,4
15,1882872295000,-5.98,7.63,2.4108016,4
15,1882922252000,-2.72,7.35,0.46309182,4
15,1882972331000,-3.17,8.01,-1.2666923,4
15,1883022227000,-4.99,5.37,0.313268,4
15,1883072307000,-2.3,3.64,-0.08172209,4
15,1883142345000,-2.87,3.64,-0.08172209,4
15,1883202281000,-2.68,2.72,0.61291564,4
15,1883202281000,-2.68,2.72,0.61291564,4
15,1883302257000,-4.25,11.75,11.495573,4
15,1883302257000,-4.25,11.75,11.495573,4
15,1883352244000,-1.76,6.4,-2.2201166,4
15,1883403697000,-6.59,15.89,-2.1383946,4
15,1883452251000,-1.88,6.97,-0.7627395,4
15,1883503612000,-1.38,6.93,-0.53119355,4
15,1883552257000,-2.03,7.12,-0.040861044,4
15,1883603557000,-1.76,6.09,0.6537767,4
15,1883652263000,-3.87,7.82,-0.42223078,4
15,1883702220000,-4.56,10.38,-3.6774938,4
15,1883752299000,-6.32,10.23,-0.0,4
15,1883802226000,-6.05,10.8,0.38136974,4
15,1883853679000,-5.18,12.68,-0.46309182,4
15,1883902202000,-8.92,10.34,-0.88532263,4
15,1883953593000,-6.28,9.62,-0.14982383,4
15,1884002269000,-3.21,8.39,1.4573772,4
15,1884054088000,-5.09,6.85,-0.46309182,4
15,1884103526000,-7.01,4.71,-0.88532263,4
15,1884152263000,-1.73,7.27,0.7218784,4
15,1884202251000,-2.41,8.69,-0.9942854,4
15,1884253642000,-4.37,8.01,0.27240697,4
15,1884302257000,-4.71,6.7,0.7218784,4
15,1884353526000,-5.24,6.82,0.08172209,4
15,1884402293000,-4.71,8.47,3.636633,4
15,1884452373000,-3.49,9.43,1.7978859,4
15,1884502299000,-2.03,9.0,-0.3405087,4
15,1884552257000,-3.15,11.26,-0.9942854,4
15,1884612346000,-4.56,8.24,1.4573772,4
15,1884662273000,-5.56,8.5,2.4108016,4
15,1884712260000,-3.02,8.35,-0.0,4
15,1884762279000,-3.64,9.04,-1.4165162,4
15,1884812297000,-5.18,8.85,-2.5606253,4
15,1884862285000,-5.75,8.01,-1.879608,4
15,1884912303000,-6.63,7.82,0.10896278,4
15,1884962260000,-5.28,9.0,1.5390993,4
15,1885012309000,-3.98,9.08,-0.50395286,4
15,1885062266000,-4.37,8.96,-1.4165162,4
15,1885112315000,-4.18,8.73,-0.7218784,4
15,1887012279000,-5.09,8.5,-1.2666923,0
15,1887062297000,-5.18,8.35,-1.3756552,0
15,1887112285000,-5.2,9.34,-1.334794,0
15,1887162273000,-4.25,9.11,-1.2666923,0
15,1887212260000,-3.3,8.96,-1.3075534,0
15,1887262279000,-3.53,9.19,-1.2258313,0
15,1887312297000,-4.25,9.0,-0.7627395,0
15,1887362285000,-4.21,9.04,0.14982383,0
15,1887412303000,-5.43,9.43,-1.1441092,0
15,1887462260000,-6.28,9.58,-1.334794,0
15,1887512279000,-6.51,8.39,-1.1441092,0
15,1887562266000,-6.97,5.6,1.4982382,0
15,1887612285000,-9.19,5.43,0.38136974,0
15,1887662273000,-6.89,8.01,-3.759216,0
15,1887712291000,-5.48,9.58,-3.8681788,0
15,1887762279000,-2.75,9.04,-2.2609777,0
15,1887812266000,-0.8,10.53,-1.1441092,0
15,1887862285000,-1.04,9.92,0.3405087,0
15,1887912303000,-4.86,8.73,2.3018389,0
15,1887962260000,-4.48,8.54,0.6946377,0
15,1888012279000,-3.91,9.34,-0.50395286,0
15,1888062266000,-3.49,10.69,1.3756552,0
15,1888112315000,-4.06,10.57,7.8180795,0
15,1888162273000,-7.82,7.46,1.9885708,0
15,1888212321000,-6.02,7.25,-2.3018389,0
15,1888262279000,-5.43,7.44,-2.3699405,0
15,1888312266000,-6.21,9.81,-2.6832085,0
15,1888362315000,-4.86,9.51,-2.4108016,0
15,1888412273000,-3.57,8.73,-1.607201,0
15,1888462260000,-2.75,9.0,-1.0760075,0
15,1888512279000,-2.64,10.27,-0.14982383,0
15,1888562297000,-5.05,10.34,4.944186,0
15,1888612285000,-0.76,10.53,-0.38136974,0
15,1888662303000,-0.99,10.5,1.5390993,0
15,1888712291000,-5.48,11.96,2.1792557,0
15,1888762309000,-10.23,14.29,2.8330324,0
15,1888812297000,-8.62,8.5,-1.7297841,0
15,1888862315000,-2.45,8.12,0.84446156,0
15,1888912273000,-3.02,6.74,-0.0,0
15,1888962321000,-2.14,4.18,-0.84446156,0
15,1889012279000,-2.45,3.41,-1.4982382,0
15,1889062297000,-0.61,6.78,-0.88532263,0
15,1889112285000,3.49,12.15,4.399372,0
15,1889162303000,-4.48,4.52,2.2201166,0
15,1889212260000,-5.98,6.44,3.2961242,0
15,1889212260000,-5.98,6.44,3.2961242,0
15,1889312144000,-6.47,14.41,5.243834,0
15,1889362254000,-11.92,17.82,-2.3699405,0
15,1889412425000,-7.89,12.37,0.19068487,0
15,1889462260000,-3.83,12.72,-2.8738933,0
15,1889512309000,-1.23,7.78,-1.9477097,0
15,1889562266000,-0.27,7.44,-1.879608,0
15,1889612285000,0.34,9.43,0.84446156,0
15,1889662273000,2.11,8.24,3.8273177,0
15,1889712291000,0.76,7.78,1.7297841,0
15,1889762279000,-1.18,7.55,-1.3075534,0
15,1889812297000,-0.5,7.5,-2.2609777,0
15,1889862285000,-1.18,6.17,1.3075534,0
15,1889912303000,-4.59,16.74,-3.486809,0
15,1889962260000,-6.17,15.6,1.7570249,0
15,1890012309000,-2.49,6.93,-0.0,0
15,1890062266000,-5.33,10.04,0.61291564,0
15,1890112315000,-4.59,5.37,-0.0,0
15,1890162273000,-2.68,4.99,0.040861044,0
15,1890212291000,-1.23,7.25,0.14982383,0
15,1890262279000,1.73,8.2,1.8387469,0
15,1890312266000,-1.31,5.52,0.040861044,0
15,1890362285000,-1.73,7.86,0.23154591,0
15,1890412303000,-1.18,10.31,1.920469,0
15,1890462260000,-3.64,19.53,-4.4810944,0
15,1890512309000,-7.01,8.47,4.5219555,0
15,1890562266000,-10.19,14.94,-1.6480621,0
15,1890612315000,-1.61,10.19,-1.56634,0
15,1890662273000,-1.08,6.82,-0.10896278,0
15,1890712260000,0.53,5.71,0.08172209,0
15,1890762279000,-0.42,7.89,1.5390993,0
15,1890812266000,0.42,7.01,0.61291564,0
15,1890862254000,0.42,7.21,-1.0760075,0
15,1890912303000,-0.34,8.96,-0.040861044,0
15,1890962260000,-0.08,5.48,1.4165162,0
15,1891012309000,-1.8,17.88,-3.214402,0
15,1891062266000,-12.45,17.77,-1.56634,0
15,1891112315000,-6.21,9.23,7.246025,0
15,1891162273000,-2.96,9.19,2.0294318,0
15,1891212321000,-3.68,5.67,-1.0351465,0
15,1891262279000,-1.08,2.79,-0.53119355,0
15,1891312297000,-0.76,3.87,0.27240697,0
15,1891362254000,-0.15,8.39,0.6537767,0
15,1891412303000,-0.38,6.21,0.95342433,0
15,1891462260000,-1.69,7.46,0.14982383,0
15,1891512279000,-1.69,11.41,1.607201,0
15,1891562266000,-4.52,18.28,1.334794,0
15,1891612315000,-8.81,16.74,2.7649305,0
15,1891662303000,-4.71,11.54,-2.5333846,0
15,1891712291000,-4.14,8.39,-2.4108016,0
15,1891762279000,-1.5,3.15,-1.3075534,0
15,1891812266000,0.61,1.65,-0.84446156,0
15,1891862285000,1.12,3.49,1.1441092,0
15,1891912303000,1.04,8.5,1.334794,0
15,1891962260000,3.79,10.38,0.6537767,0
15,1892012279000,-2.45,19.15,0.8036005,0
15,1892062266000,-13.63,15.09,2.4925237,0
15,1892112315000,0.89,8.35,0.38136974,0
15,1892162273000,-4.67,10.23,0.08172209,0
15,1892212291000,-3.45,5.09,-0.23154591,0
15,1892262279000,0.08,3.53,0.10896278,0
15,1892312297000,3.15,7.16,2.6832085,0
15,1892362285000,1.27,8.54,1.7297841,0
15,1892412303000,-1.92,5.01,0.08172209,0
15,1892462260000,-2.91,8.08,0.92618364,0
15,1892512309000,-3.26,18.01,-4.372132,0
15,1892562266000,-9.28,16.82,3.255263,0
15,1892612315000,-7.78,11.41,0.8036005,0
15,1892662273000,-5.18,9.92,-1.7978859,0
15,1892712291000,-1.76,4.52,-1.525479,0
15,1892762279000,-0.27,3.57,0.19068487,0
15,1892812297000,-0.3,6.02,1.1849703,0
15,1892862285000,-0.91,6.51,0.19068487,0
15,1892912303000,-1.57,10.12,-1.4573772,0
15,1892962260000,3.41,7.93,0.6537767,0
15,1893012309000,2.34,8.81,1.920469,0
15,1893062266000,-13.02,19.08,-4.862464,0
15,1893112315000,-6.17,11.73,1.3756552,0
15,1893162273000,-1.99,8.73,1.9477097,0
15,1893212291000,-4.59,6.44,0.84446156,0
15,1893262279000,-2.11,4.86,-0.29964766,0
15,1893312266000,1.61,5.48,1.7978859,0
15,1893362285000,1.5,5.98,0.10896278,0
15,1893412273000,0.38,5.37,-1.1441092,0
15,1893462260000,0.23,8.31,-0.7627395,0
15,1893512309000,-5.09,18.47,-3.3642259,0
15,1893562297000,-12.18,17.01,2.7649305,0
15,1893612315000,-8.31,12.49,1.1168685,0
15,1893662273000,-3.87,7.78,-1.3756552,0
15,1893712291000,-2.03,3.06,-2.070293,0
15,1893762279000,-1.69,3.57,-0.53119355,0
15,1893812266000,-1.42,6.89,0.14982383,0
15,1893862285000,0.19,5.86,1.2666923,0
15,1893912273000,1.12,8.43,-0.7627395,0
15,1893962260000,3.02,8.96,-1.920469,0
15,1894012279000,1.95,8.73,0.6946377,0
15,1894062266000,-8.96,18.24,-3.173541,0
15,1894112315000,-9.81,14.79,3.568531,0
15,1894162273000,-0.8,10.76,2.6014864,0
15,1894212291000,-4.52,8.01,-1.8387469,0
15,1894262279000,-1.23,4.56,-0.29964766,0
15,1894312266000,2.15,4.56,2.3426998,0
15,1894362315000,0.11,5.75,1.0351465,0
15,1894412425000,-1.42,5.56,-1.7297841,0
15,1894462291000,-1.42,5.83,-0.95342433,0
15,1894512340000,-2.64,11.22,0.6946377,0
15,1894572246000,-12.95,19.57,0.6537767,0
15,1894622203000,-6.24,12.6,-0.3405087,0
15,1894672313000,-5.6,12.68,-1.0760075,0
15,1894722240000,-1.57,5.6,-1.0351465,0
15,1894772288000,-0.23,1.95,-1.4573772,0
15,1894822246000,-3.45,9.58,-1.3075534,0
15,1894872264000,-1.53,8.85,-1.1441092,0
15,1894922252000,0.57,6.21,0.6946377,0
15,1894972301000,1.23,6.02,1.56634,0
15,1895022197000,0.31,7.12,-0.23154591,0
15,1895072276000,0.42,8.08,-1.1168685,0
15,1895122203000,0.57,12.11,-1.2666923,0
15,1895172313000,-11.26,19.57,-5.706926,0
15,1895222240000,-6.21,9.23,7.8180795,0
15,1895272288000,-2.91,8.85,-1.9477097,0
15,1895322246000,-4.9,6.51,-0.84446156,0
15,1895372295000,-1.53,3.68,0.14982383,0
15,1895422191000,2.41,6.24,1.3075534,0
15,1895472270000,0.84,5.37,-0.7627395,0
15,1895522258000,-1.04,4.14,-0.53119355,0
15,1895572246000,-1.57,7.46,0.9942854,0
15,1895622264000,-4.75,18.5,-3.2961242,0
15,1895672252000,-9.34,15.89,-0.38136974,0
15,1895722301000,-7.01,9.04,0.53119355,0
15,1895772197000,-7.4,7.46,1.2666923,0
15,1895822307000,-4.02,4.63,-1.3756552,0
15,1895872203000,-1.33,4.9,-0.9125633,0
15,1895923015000,-2.11,8.73,-0.6537767,0
15,1895972209000,-0.42,8.01,-1.2258313,0
15,1896022258000,2.07,5.6,-1.7978859,0
15,1896072215000,2.72,7.46,-1.7978859,0
15,1896122295000,1.69,8.28,-1.1168685,0
15,1896172221000,0.38,9.23,2.7921712,0
15,1896222301000,-4.14,15.6,0.10896278,0
15,1896283122000,-15.83,18.43,-6.0474343,0
15,1896332225000,-4.14,6.28,1.1441092,0
15,1896382304000,-6.09,6.24,2.7921712,0
15,1896432262000,-2.37,2.87,-1.3075534,0
15,1896482280000,0.5,2.76,-0.14982383,0
15,1896532207000,-1.46,8.16,5.597963,0
15,1896582316000,-12.07,19.04,-4.5900574,0
15,1896632274000,-4.59,5.83,0.46309182,0
15,1896682292000,-1.88,5.71,0.19068487,0
15,1896732249000,-1.04,9.58,-0.6537767,0
15,1896782268000,-3.64,10.57,-1.56634,0
15,1896832286000,-4.21,8.31,-1.1168685,0
15,1896882304000,-5.94,8.39,-0.7627395,0
15,1896932231000,-7.12,7.27,-0.7627395,0
15,1896982310000,-6.51,8.62,-0.9125633,0
15,1897032237000,-2.96,9.58,0.95342433,0
15,1897082347000,-2.79,9.28,0.08172209,0
15,1897132243000,-4.86,8.62,-0.95342433,0
15,1897182292000,-5.37,8.12,-0.7627395,0
15,1897232219000,-4.9,8.73,-0.5720546,0
15,1897282298000,-4.18,9.0,-0.08172209,0
15,1899182292000,-3.76,9.28,-0.7627395,4
15,1899232249000,-3.64,9.23,-0.040861044,4
15,1899282298000,-4.18,9.38,0.14982383,4
15,1899332225000,-3.76,9.62,-1.3756552,4
15,1899382304000,-3.91,9.15,-2.3018389,4
15,1899432262000,-4.44,8.54,-2.7513103,4
15,1899482310000,-5.28,8.47,-2.4516625,4
15,1899532207000,-4.44,9.19,-0.8036005,4
15,1899582347000,-1.65,10.69,2.3426998,4
15,1899632213000,-2.79,12.03,1.0760075,4
15,1899682292000,-1.99,9.58,-3.7864566,4
15,1899732219000,-3.45,9.85,-6.2789803,4
15,1899782268000,-3.36,13.33,3.405087,4
15,1899832225000,-3.3,13.72,-0.7218784,4
15,1899882304000,-4.52,10.04,-0.23154591,4
15,1899932231000,-2.49,11.37,0.6537767,4
15,1899982310000,-2.87,11.6,0.6946377,4
15,1900032237000,-2.75,8.16,0.42223078,4
15,1900082316000,-1.5,6.21,-0.29964766,4
15,1900132243000,-1.42,4.52,-0.19068487,4
15,1900182262000,-1.5,4.33,0.3405087,4
15,1900232249000,-0.76,7.08,0.38136974,4
15,1900282268000,-3.34,17.2,-4.671779,4
15,1900332255000,-5.33,13.59,6.6331096,4
15,1900382304000,0.93,1.23,-1.879608,4
15,1900432201000,-8.16,12.49,-2.070293,4
15,1900482310000,-3.64,10.46,0.7627395,4
15,1900532207000,-1.27,10.08,2.4516625,4
15,1900582347000,-1.76,8.31,-0.14982383,4
15,1900642619000,-1.14,8.31,-1.4982382,4
15,1900692241000,-2.79,7.86,-3.5957718,4
15,1900742290000,-3.87,7.7,-2.5606253,4
15,1900792308000,-5.63,10.19,-0.08172209,4
15,1900842357000,-6.13,11.69,-1.607201,4
15,1900892222000,-7.65,13.4,0.08172209,4
15,1900942302000,-8.16,13.87,2.070293,4
15,1900992198000,-6.21,12.79,2.4516625,4
15,1901042308000,-4.71,9.77,-2.7921712,4
15,1901042308000,-4.71,9.77,-2.7921712,4
15,1901142222000,-2.11,9.72,3.0645783,4
15,1901142222000,-2.11,9.72,3.0645783,4
15,1901192271000,-3.06,4.44,-1.6889231,4
15,1901253673000,-3.72,6.55,1.0351465,4
15,1901312297000,-2.03,6.28,0.8036005,4
15,1901362285000,-1.08,1.38,0.88532263,4
15,1901362285000,-1.08,1.38,0.88532263,4
15,1901462108000,0.0,5.01,2.1792557,4
15,1901512248000,-5.24,19.46,2.8330324,4
15,1901562419000,-1.14,8.66,3.9499009,4
15,1901612285000,0.76,-0.89,-1.7297841,4
15,1901662303000,-8.35,8.28,-3.445948,4
15,1901712260000,-13.1,16.63,-1.56634,4
15,1901762309000,-6.85,11.37,0.7218784,4
15,1901812297000,-0.91,9.08,2.7649305,4
15,1901862315000,0.19,5.83,0.95342433,4
15,1901912334000,0.57,5.22,-0.53119355,4
15,1901962321000,0.08,6.21,-1.607201,4
15,1902012279000,-2.75,9.0,-3.486809,4
15,1902062297000,-8.27,12.95,-1.2258313,4
15,1902112285000,-8.77,12.83,-0.6537767,4
15,1902162273000,-5.18,13.4,-0.6537767,4
15,1902212260000,-6.93,14.52,0.38136974,4
15,1902262309000,-9.62,10.12,1.607201,4
15,1902312266000,-7.12,10.8,0.10896278,4
15,1902362315000,-6.63,9.77,-1.0760075,4
15,1902412273000,0.95,8.08,0.53119355,4
15,1902462291000,-3.21,7.97,1.9885708,4
15,1902512279000,-5.05,4.75,-2.8738933,4
15,1902562297000,-3.21,5.24,-0.10896278,4
15,1902612285000,-2.45,3.45,0.313268,4
15,1902662303000,-2.22,1.27,-0.08172209,4
15,1902712260000,-0.84,3.41,-1.3075534,4
15,1902762279000,-7.82,17.86,-5.012288,4
15,1902812266000,-4.59,13.44,4.5628166,4
15,1902862346000,-4.37,5.43,-0.7218784,4
15,1902912273000,-10.19,14.98,-1.4165162,4
15,1902962321000,-3.36,7.78,-0.5720546,4
15,1903012279000,-0.5,5.48,-0.7627395,4
15,1903062266000,0.42,5.48,-0.61291564,4
15,1903112285000,0.84,6.02,-1.9885708,4
15,1903162303000,-2.07,9.43,-1.3075534,4
15,1903212260000,-6.28,14.14,-2.1792557,4
15,1903262309000,-8.85,12.53,3.6774938,4
15,1903312266000,-5.82,13.06,-0.5720546,4
15,1903362315000,-7.25,13.72,0.9942854,4
15,1903412273000,-5.9,12.26,0.19068487,4
15,1903462291000,-3.76,11.5,-0.14982383,4
15,1903512340000,-4.59,9.11,0.42223078,4
15,1903562297000,-3.21,7.12,2.2609777,4
15,1903612285000,-3.15,4.94,-2.0294318,4
15,1903662273000,-4.67,5.05,-0.27240697,4
15,1903712260000,-3.41,4.86,0.10896278,4
15,1903762309000,-2.75,2.18,-0.38136974,4
15,1903812266000,-3.57,4.14,-1.1441092,4
15,1903862315000,-2.22,7.93,-1.56634,4
15,1903912517000,-10.38,19.53,-6.2789803,4
15,1903962291000,-1.46,8.24,8.390134,4
15,1904012279000,-6.17,10.34,-2.3018389,4
15,1904062297000,-7.27,12.11,-2.2201166,4
15,1904112285000,-1.92,6.17,-1.0760075,4
15,1904162303000,-0.46,4.9,-0.53119355,4
15,1904212260000,0.27,5.24,-0.7218784,4
15,1904262309000,-1.27,7.86,-1.7978859,4
15,1904312266000,-4.48,9.43,-0.9942854,4
15,1904362285000,-7.35,12.11,-0.14982383,4
15,1904412303000,-8.54,13.59,0.8036005,4
15,1904462291000,-5.63,14.37,1.1849703,4
15,1904512279000,-8.12,12.6,1.920469,4
15,1904562297000,-5.82,11.35,-0.9125633,4
15,1904612285000,-2.6,9.96,-1.3756552,4
15,1904662303000,-3.83,9.58,2.4925237,4
15,1904712260000,-2.07,6.7,-0.6537767,4
15,1904762309000,-3.87,3.06,-1.6889231,4
15,1904812266000,-3.36,5.71,0.5720546,4
15,1904862315000,-2.79,5.6,0.040861044,4
15,1904912425000,-2.68,3.06,-0.19068487,4
15,1904962321000,-2.45,4.63,-1.525479,4
15,1905012279000,-1.88,13.67,-2.8330324,4
15,1905062297000,-6.59,18.96,2.4108016,4
15,1905112285000,-1.84,3.3,0.38136974,4
15,1905162273000,-6.74,10.34,-2.4516625,4
15,1905212260000,-9.72,14.56,-2.2609777,4
15,1905262279000,-2.72,6.28,-0.14982383,4
15,1905312297000,-0.69,4.44,-0.08172209,4
15,1905362315000,-0.3,5.28,-0.10896278,4
15,1905412273000,-1.88,5.67,-0.84446156,4
15,1905462260000,-4.63,10.38,-1.4165162,4
15,1905512279000,-5.63,12.45,-3.3642259,4
15,1905562297000,-7.31,12.11,0.23154591,4
15,1905612285000,-5.94,13.14,2.1111538,4
15,1905662303000,-6.55,13.91,2.3426998,4
15,1905712260000,-7.08,11.69,-1.1441092,4
15,1905762309000,-3.49,10.99,-1.4165162,4
15,1905812266000,-4.48,11.6,0.10896278,4
15,1905862315000,-3.45,7.93,2.2201166,4
15,1905912273000,-2.96,3.99,-1.7297841,4
15,1905962321000,-3.41,3.49,-0.6537767,4
15,1906012279000,-2.14,5.41,0.313268,4
15,1906062297000,-2.68,4.75,-0.27240697,4
15,1906112254000,-3.36,4.56,-0.27240697,4
15,1906162303000,-0.72,6.36,-1.3075534,4
15,1906212260000,-9.49,19.31,-6.2108784,4
15,1906262279000,-1.5,10.5,6.5513873,4
15,1906312266000,-4.59,7.74,-1.879608,4
15,1906362315000,-8.69,15.05,-1.9477097,4
15,1906412273000,-2.37,6.36,-0.84446156,4
15,1906462291000,-0.61,5.05,-0.46309182,4
15,1906512401000,-0.38,6.17,-0.19068487,4
15,1906562419000,-0.84,6.97,-1.607201,4
15,1906612346000,-2.6,8.66,-3.636633,4
15,1906662334000,-6.02,9.62,-1.8387469,4
15,1906722240000,-9.3,11.65,1.4982382,4
15,1906772197000,-5.9,12.95,0.61291564,4
15,1906822276000,-4.86,14.56,0.53119355,4
15,1906872233000,-8.96,11.6,2.070293,4
15,1906922282000,-3.49,10.5,-0.6946377,4
15,1906972240000,-3.98,9.77,-3.759216,4
15,1907022288000,-3.17,8.66,5.243834,4
15,1907072215000,-3.06,6.44,-1.6480621,4
15,1907122295000,-5.28,5.18,-1.2258313,4
15,1907172221000,-3.11,7.35,0.3405087,4
15,1907222270000,-3.45,3.99,0.84446156,4
15,1907272197000,-3.36,1.76,-0.7627395,4
15,1907322276000,0.53,5.13,-3.255263,4
15,1907372203000,-8.85,19.46,-5.175732,4
15,1907422313000,-0.15,8.43,4.099725,4
15,1907472209000,-4.37,10.31,-2.1383946,4
15,1907472209000,-4.37,10.31,-2.1383946,4
15,1907572185000,-2.6,5.52,-0.19068487,4
15,1907622203000,-1.42,5.52,-0.53119355,4
15,1907672618000,-1.92,7.67,-0.6537767,4
15,1907722240000,-1.99,8.35,-1.334794,4
15,1907772258000,-3.76,9.43,-2.1111538,4
15,1907822246000,-4.33,9.08,-2.5333846,4
15,1907872295000,-7.12,8.77,0.9942854,4
15,1907922282000,-6.21,9.11,-0.42223078,4
15,1907972301000,-5.05,11.35,-0.7218784,4
15,1908022227000,-9.15,13.59,-1.6480621,4
15,1908072307000,-8.69,8.5,1.9477097,4
15,1908122203000,-4.48,9.58,0.14982383,4
15,1908172374000,-4.44,6.13,-1.2258313,4
15,1908222209000,-3.57,5.56,-0.3405087,4
15,1908272288000,-5.05,7.12,0.6537767,4
15,1908322215000,-3.79,6.05,-1.334794,4
15,1908372264000,-6.24,6.17,1.334794,4
15,1908422282000,-5.75,6.82,0.27240697,4
15,1908472301000,-5.6,6.47,-0.0,4
15,1908522197000,-5.41,7.21,-0.14982383,4
15,1908572276000,-4.56,11.35,0.313268,4
15,1908622233000,-5.37,11.11,1.2258313,4
15,1908672313000,-5.43,7.46,-0.08172209,4
15,1908722240000,-3.57,7.55,-0.88532263,4
15,1908772288000,-4.25,7.67,-1.879608,4
15,1908822215000,-7.08,9.34,-2.8738933,4
15,1908872325000,-6.43,10.15,7.3141265,4
15,1908922282000,-6.36,6.97,-1.3075534,4
15,1908972270000,-4.25,6.63,-2.8738933,4
15,1909022197000,-5.79,6.32,-2.0294318,4
15,1909072276000,-4.82,11.07,-1.0351465,4
15,1909122203000,-1.65,13.67,0.53119355,4
15,1909172313000,-1.8,8.2,1.4982382,4
15,1909222240000,-5.98,8.35,2.7649305,4
15,1909272288000,-4.25,8.54,-0.9125633,4
15,1909322246000,-5.13,9.04,-3.1463003,4
15,1909372295000,-5.48,7.82,-2.1111538,4
15,1909422282000,-5.6,7.89,-1.0351465,4
15,1909472301000,-5.43,8.81,0.95342433,4
15,1909522197000,-3.17,9.96,0.61291564,4
15,1909572307000,-4.67,8.54,-1.6480621,4
15,1909622203000,-5.63,7.86,-1.3756552,4
15,1909672313000,-6.43,7.89,-0.6946377,4
15,1909722209000,-4.71,8.73,-0.88532263,4
15,1909772288000,-4.52,8.5,-1.0351465,4
15,1909822215000,-4.79,8.5,-1.1168685,4
15,1909872295000,-5.33,8.39,-0.9942854,4
15,1909922252000,-4.9,8.62,-0.5720546,4
15,1909972301000,-4.59,8.62,-0.6946377,4
15,1910022197000,-4.82,8.54,-1.2258313,4
15,1910072307000,-4.79,8.39,-1.56634,4
15,1910122203000,-4.75,8.85,-1.525479,4
15,1910172313000,-4.48,8.47,-1.3756552,4
15,1910222209000,-4.86,8.5,-1.0760075,4
15,1910272288000,-4.79,8.54,-0.84446156,4
15,1910322215000,-5.05,8.58,-0.6946377,4
15,1910372264000,-5.56,8.2,-0.6946377,0
15,1910422282000,-6.02,7.93,-0.95342433,0
15,1910472301000,-5.18,8.2,-1.1168685,0
15,1910522227000,-4.9,8.39,-1.334794,0
15,1910572307000,-4.86,8.58,-1.6480621,0
15,1910622233000,-4.56,8.73,-1.56634,0
15,1910672282000,-4.1,8.73,-0.95342433,0
15,1910722240000,-4.21,8.62,-0.53119355,0
15,1910772288000,-5.09,8.54,-1.0351465,0
15,1910822215000,-5.28,9.15,-1.525479,0
15,1910872264000,-4.71,9.11,-1.525479,0
15,1910922252000,-4.02,8.62,-1.56634,0
15,1910972301000,-3.87,8.73,-1.6480621,0
15,1911022197000,-3.76,9.47,-1.1849703,0
15,1911072276000,-3.15,8.62,-0.23154591,0
15,1911122203000,-5.33,9.66,-0.14982383,0
15,1911172282000,-5.05,9.66,-0.95342433,0
15,1911222270000,-5.43,8.77,-2.6014864,0
15,1911272288000,-6.13,7.01,-1.9477097,0
15,1911322215000,-9.85,6.09,4.2904096,0
15,1911372295000,-8.35,6.44,-0.9942854,0
15,1911422282000,-5.79,8.12,-1.607201,0
15,1911472301000,-4.94,10.27,-0.53119355,0
15,1911522197000,-4.79,9.85,-0.10896278,0
15,1911572307000,-3.76,7.7,-0.95342433,0
15,1911622203000,-2.41,9.3,-0.53119355,0
15,1911672313000,-2.6,8.73,-0.14982383,0
15,1911722209000,-3.3,7.55,-0.0,0
15,1911772288000,-4.75,8.05,1.5390993,0
15,1911822246000,-4.37,9.11,0.6537767,0
15,1911872295000,-3.64,11.07,0.5720546,0
15,1911922496000,-4.33,12.26,8.308413,0
15,1911972301000,-7.65,6.74,1.1849703,0
15,1912022258000,-4.63,5.67,-3.173541,0
15,1912072307000,-6.43,8.39,-3.0645783,0
15,1912122264000,-4.56,11.07,2.7921712,0
15,1912172313000,-3.3,8.77,-1.6889231,0
15,1912222209000,-4.48,8.69,-2.5333846,0
15,1912272288000,-4.44,8.47,-2.8330324,0
15,1912322246000,-4.56,8.05,-2.4925237,0
15,1912372295000,-4.9,8.69,-1.2258313,0
15,1912422282000,-5.6,9.96,-0.27240697,0
15,1912472301000,-3.26,9.72,0.7627395,0
15,1912522197000,-1.5,9.89,-0.7218784,0
15,1912572276000,-3.26,9.08,-1.607201,0
15,1912622325000,-3.79,9.7,-1.0351465,0
15,1912672435000,-3.45,9.96,-1.0351465,0
15,1912722270000,-0.99,13.57,2.152015,0
15,1912772319000,-6.21,14.37,3.445948,0
15,1912832286000,-8.35,8.01,-1.56634,0
15,1912882213000,-5.41,5.43,-1.1849703,0
15,1912932262000,-3.68,4.37,-1.2258313,0
15,1912982219000,-2.6,4.71,-0.19068487,0
15,1913032268000,-0.95,5.6,-1.56634,0
15,1913082225000,-1.14,8.58,2.1792557,0
15,1913132274000,0.5,9.0,1.9477097,0
15,1913182201000,-3.06,5.86,-0.14982383,0
15,1913232310000,-5.09,7.12,-1.1849703,0
15,1913282268000,-8.24,19.42,1.2666923,0
15,1913332316000,-7.89,13.44,2.1111538,0
15,1913382213000,-6.97,11.6,-1.1849703,0
15,1913432262000,-4.82,10.19,-4.4810944,0
15,1913482219000,0.31,6.97,-1.0351465,0
15,1913532268000,0.93,6.13,7.3549876,0
15,1913582255000,-0.5,5.94,-1.8387469,0
15,1913582255000,-0.5,5.94,-1.8387469,0
15,1913682139000,-0.3,2.53,0.3405087,0
15,1913732219000,2.07,6.4,-2.4108016,0
15,1913782390000,-6.36,19.42,-6.2789803,0
15,1913832255000,-3.53,13.91,10.269742,0
15,1913882304000,-4.56,10.27,-0.10896278,0
15,1913932231000,-4.56,8.24,-1.7978859,0
15,1913982310000,-1.88,5.6,-0.8036005,0
15,1914032207000,-0.34,5.09,-1.0351465,0
15,1914082286000,0.95,7.7,0.08172209,0
15,1914132243000,-0.11,5.18,-0.50395286,0
15,1914182262000,-2.72,5.83,-0.27240697,0
15,1914232219000,-4.71,7.7,2.3699405,0
15,1914282268000,-3.83,12.11,-1.3075534,0
15,1914332225000,-7.74,18.77,-3.6774938,0
15,1914382335000,-6.82,14.6,0.7627395,0
15,1914432262000,-5.86,10.31,-2.6423476,0
15,1914482280000,-2.53,4.44,-1.4573772,0
15,1914532237000,-3.02,4.02,-1.0760075,0
15,1914582316000,-4.29,6.66,-1.0351465,0
15,1914632213000,-2.53,5.75,-1.6480621,0
15,1914682262000,-0.38,6.4,-1.4573772,0
15,1914732219000,-0.99,8.73,1.56634,0
15,1914782298000,3.34,7.97,2.2201166,0
15,1914832225000,-0.84,11.6,-0.5720546,0
15,1914882304000,-9.49,18.77,-5.09401,0
15,1914932262000,-9.11,12.68,5.47538,0
15,1914982310000,-3.64,9.19,-0.38136974,0
15,1915032207000,-6.05,7.01,-2.4108016,0
15,1915082316000,-2.64,3.38,0.61291564,0
15,1915132213000,1.46,2.11,3.759216,0
15,1915182262000,0.8,6.21,-1.4982382,0
15,1915232249000,1.42,5.01,-2.6423476,0
15,1915282268000,0.0,8.16,-0.10896278,0
15,1915332255000,-7.86,19.46,-5.366417,0
15,1915382304000,-12.45,15.94,2.7240696,0
15,1915432262000,-7.16,10.19,1.56634,0
15,1915482310000,-4.67,6.02,-1.525479,0
15,1915532207000,-3.53,2.15,-2.0294318,0
15,1915582347000,-1.08,1.31,0.040861044,0
15,1915632243000,1.04,2.45,-0.53119355,0
15,1915682292000,5.24,9.3,-1.7570249,0
15,1915732219000,-0.57,9.66,7.5456724,0
15,1915782298000,-8.92,17.54,-12.108489,0
15,1915832225000,-7.59,11.11,8.499097,0
15,1915882274000,-2.22,6.21,-0.46309182,0
15,1915932262000,-2.03,8.85,-0.9125633,0
15,1915982310000,-0.04,10.34,-0.19068487,0
15,1916032237000,1.18,4.25,-0.19068487,0
15,1916082286000,1.69,11.18,-2.4108016,0
15,1916132274000,-13.91,19.57,-1.7570249,0
15,1916182292000,-9.0,12.68,2.982856,0
15,1916232219000,-5.52,8.35,-1.3756552,0
15,1916282268000,-4.52,4.48,-2.8738933,0
15,1916332255000,-2.11,2.98,-0.95342433,0
15,1916382304000,-0.5,3.79,-0.88532263,0
15,1916432231000,0.23,5.24,-1.3756552,0
15,1916482310000,1.46,8.62,-4.1814466,0
15,1916532207000,2.18,9.15,-1.3075534,0
15,1916582286000,-1.53,16.21,6.0882955,0
15,1916632243000,-17.86,19.46,-3.214402,0
15,1916682323000,-6.51,6.13,-0.9125633,0
15,1916732249000,-2.22,3.02,0.61291564,0
15,1916782268000,-2.3,4.37,0.10896278,0
15,1916832225000,0.65,3.72,0.95342433,0
15,1916882274000,0.65,5.09,-0.38136974,0
15,1916932506000,0.76,5.9,-0.6946377,0
15,1916982280000,-9.19,19.27,-8.580819,0
15,1917032237000,-8.27,15.55,2.4925237,0
15,1917082286000,-7.08,7.08,2.3018389,0
15,1917132243000,-5.05,4.33,-0.38136974,0
15,1917182292000,-1.73,0.76,-1.3756552,0
15,1917232219000,-0.53,2.18,-0.95342433,0
15,1917282268000,-2.3,9.53,-3.214402,0
15,1917332286000,1.42,9.15,-2.7513103,0
15,1917382274000,-0.08,15.28,-0.3405087,0
15,1917432231000,-15.83,17.82,4.2086873,0
15,1917482280000,-5.6,5.56,1.56634,0
15,1917532237000,-3.3,7.74,-1.1849703,0
15,1917582286000,-1.73,9.81,-0.5720546,0
15,1917632213000,0.99,8.81,0.50395286,0
15,1917682292000,0.42,4.94,-1.3756552,0
15,1917732219000,-0.95,4.56,-1.4165162,0
15,1917782268000,-2.72,6.89,-1.334794,0
15,1917832225000,-6.78,17.01,-2.6014864,0
15,1917882274000,-12.34,16.82,1.1168685,0
15,1917932445000,-5.71,9.47,-0.0,0
15,1917982310000,-5.43,7.59,-1.920469,0
15,1918032237000,-4.25,6.21,-2.4108016,0
15,1918082286000,-1.73,5.41,-1.1168685,0
15,1918132243000,-1.73,7.74,-0.61291564,0
15,1918182262000,0.04,8.62,-1.607201,0
15,1918232280000,1.99,7.93,-2.7921712,0
15,1918282329000,2.18,5.56,-0.5720546,0
15,1918332255000,-1.5,11.18,2.6423476,0
15,1918382304000,-14.56,19.57,-0.10896278,0
15,1918432231000,-10.5,8.43,1.3075534,0
15,1918482310000,-3.15,5.41,-0.040861044,0
15,1918532237000,-3.17,9.0,-1.0351465,0
15,1918582347000,0.31,7.16,-0.3405087,0
15,1918632213000,0.93,5.9,-0.27240697,0
15,1918682292000,0.11,2.07,-1.4573772,0
15,1918732341000,-3.17,9.62,-0.7218784,0
15,1918782390000,-11.84,19.57,-5.6252036,0
15,1918832378000,-5.98,12.11,1.7297841,0
15,1918882365000,-5.86,7.63,1.3756552,0
15,1918942271000,-4.9,4.56,-0.3405087,0
15,1918992198000,-2.96,2.37,-1.334794,0
15,1919042308000,-1.95,3.26,-0.5720546,0
15,1919092204000,-1.61,5.48,-0.38136974,0
15,1919142284000,-0.95,9.53,-3.0237172,0
15,1919192241000,0.19,10.95,-2.0294318,0
15,1919242259000,2.87,9.19,1.1849703,0
15,1919292216000,-4.59,17.54,2.4925237,0
15,1919342296000,-15.4,17.67,-3.7864566,0
15,1919392253000,-8.01,5.94,2.3699405,0
15,1919442851000,-6.4,6.24,0.9942854,0
15,1919492229000,-1.53,3.57,-1.7570249,0
15,1919542308000,1.57,6.05,5.175732,0
15,1919592204000,-1.69,8.24,-2.1383946,0
15,1919642314000,-11.33,15.43,-5.5571017,0
15,1919692241000,-8.88,8.31,-2.3018389,0
15,1919692241000,-8.88,8.31,-2.3018389,0
15,1919692241000,-8.88,8.31,-2.3018389,0
15,1919842235000,-3.72,10.95,-2.0294318,0
15,1919892436000,-3.95,7.86,-3.1054392,0
15,1919942241000,-4.9,8.73,-0.9942854,0
15,1919992259000,-5.79,7.59,-2.6014864,0
15,1920042247000,-6.7,7.78,-2.1792557,0
15,1920092296000,-6.09,8.92,-0.5720546,0
15,1920142284000,-3.87,10.34,4.5628166,0
15,1920192302000,-4.94,8.62,-0.88532263,0
15,1920242320000,-4.99,8.2,-2.8330324,0
15,1920292308000,-5.05,7.86,-2.3699405,0
15,1920342204000,-5.41,8.05,-1.525479,0
15,1920392345000,-6.82,8.2,2.4108016,0
15,1920442241000,-4.63,9.23,0.84446156,0
15,1920492290000,-2.87,8.89,-1.879608,0
15,1920542216000,-3.15,9.3,1.0351465,0
15,1920592296000,-5.33,9.53,1.6480621,0
15,1920642253000,-5.9,9.3,-0.7627395,0
15,1920692271000,-4.48,7.44,-1.8387469,0
15,1923492290000,-4.9,8.5,-1.1441092,4
15,1923542216000,-4.48,8.69,-0.95342433,4
15,1923592296000,-4.02,8.73,-1.0760075,4
15,1923642222000,-4.33,8.81,-1.334794,4
15,1923692271000,-4.59,8.66,-1.7297841,4
15,1923742229000,-4.48,8.58,-1.7570249,4
15,1923792308000,-4.06,8.77,-1.6889231,4
15,1923842204000,-4.86,8.35,-2.070293,4
15,1923892284000,-6.55,8.28,0.23154591,4
15,1923942210000,-5.18,9.19,1.2666923,4
15,1923992229000,-3.45,9.19,-1.334794,4
15,1924042216000,-3.6,9.15,-1.879608,4
15,1924092265000,-3.87,9.51,-1.525479,4
15,1924142253000,-3.83,9.47,-1.2666923,4
15,1924192302000,-4.82,8.85,-2.1111538,4
15,1924242259000,-7.31,9.04,1.4165162,4
15,1924292308000,-4.99,9.51,2.3426998,4
15,1924342235000,-3.57,9.0,-2.7240696,4
15,1924392284000,-4.37,9.34,-0.95342433,4
15,1924442210000,-4.79,10.84,0.38136974,4
15,1924492259000,-1.04,14.79,2.3426998,4
15,1924542216000,-4.14,12.53,2.3426998,4
15,1924592296000,-3.95,9.3,0.92618364,4
15,1924642222000,-1.27,9.62,2.3018389,4
15,1924692271000,-0.99,8.24,1.7297841,4
15,1924742198000,-0.76,4.63,0.6946377,4
15,1924792308000,0.95,1.31,0.42223078,4
15,1924842265000,1.54,2.03,1.2666923,4
15,1924842265000,1.54,2.03,1.2666923,4
15,1924942210000,-8.08,19.38,5.2165933,4
15,1924992320000,-0.61,6.28,-0.19068487,4
15,1924992320000,-0.61,6.28,-0.19068487,4
15,1925052257000,-5.09,7.21,-2.6014864,4
15,1925102244000,-10.19,13.21,-0.84446156,4
15,1925152263000,-5.37,12.95,1.1168685,4
15,1925202220000,0.38,9.58,2.1111538,4
15,1925254314000,0.89,5.6,1.8387469,4
15,1925312327000,0.69,6.32,-0.7218784,4
15,1925362285000,-1.99,9.66,-0.46309182,4
15,1925412303000,-3.72,10.99,-4.7126403,4
15,1925462260000,-8.85,13.4,0.3405087,4
15,1925512309000,-7.04,15.24,2.9147544,4
15,1925562297000,-7.59,14.56,1.4573772,4
15,1925612315000,-7.97,13.29,2.3426998,4
15,1925662273000,-7.74,7.67,-6.238119,4
15,1925712291000,-0.76,7.25,5.434519,4
15,1925862132000,-1.88,4.29,-0.0,4
15,1925862132000,-1.88,4.29,-0.0,4
15,1925862132000,-1.88,4.29,-0.0,4
15,1925912364000,-3.3,5.43,0.6946377,4
15,1925962413000,-3.64,3.11,-2.070293,4
15,1926012279000,1.04,6.63,-0.19068487,4
15,1926062327000,-8.24,19.31,-3.2961242,4
15,1926122233000,-1.46,4.63,4.3312707,4
15,1926172221000,-6.13,9.08,-2.1383946,4
15,1926222270000,-7.63,14.82,-1.607201,4
15,1926272197000,-2.45,5.24,0.19068487,4
15,1926322307000,-0.27,3.79,0.42223078,4
15,1926372203000,0.38,6.09,-0.46309182,4
15,1926422282000,-0.42,8.69,-2.6014864,4
15,1926472240000,-3.02,10.12,-3.718355,4
15,1926522319000,-9.04,12.26,2.070293,4
15,1926572215000,-9.43,11.92,0.42223078,4
15,1926622295000,-5.94,12.6,-1.334794,4
15,1926672252000,-4.99,14.9,0.313268,4
15,1926722301000,-6.55,9.92,1.8387469,4
15,1926772197000,-5.28,9.51,-1.920469,4
15,1926822307000,-4.06,10.8,-7.04172,4
15,1926872203000,-2.26,15.17,6.851035,4
15,1926922282000,-7.35,4.86,-1.1168685,4
15,1926972209000,-4.71,2.15,-1.0760075,4
15,1927022319000,-2.53,3.95,0.42223078,4
15,1927072215000,-3.57,2.64,-1.607201,4
15,1927122264000,-2.96,2.07,-0.6946377,4
15,1927172221000,-6.82,13.4,-7.1234417,4
15,1927222270000,-10.31,18.96,0.46309182,4
15,1927272227000,-2.37,6.82,1.3075534,4
15,1927322307000,-5.71,14.79,-1.9477097,4
15,1927372233000,-3.98,9.43,-1.920469,4
15,1927422313000,-1.53,4.1,-0.14982383,4
15,1927472209000,-0.65,3.11,-0.040861044,4
15,1927522258000,-1.33,5.09,-0.23154591,4
15,1927572246000,-2.14,8.81,-2.3699405,4
15,1927622264000,-6.28,16.17,-3.5276701,4
15,1927672252000,-9.47,15.89,5.243834,4
15,1927722331000,-7.65,15.4,2.982856,4
15,1927772227000,-6.05,11.35,-1.0351465,4
15,1927822307000,-5.28,11.03,-1.3075534,4
15,1927872203000,-4.75,7.44,0.53119355,4
15,1927922313000,-3.06,6.32,2.7921712,4
15,1927972209000,-1.69,4.79,-2.3018389,4
15,1928022258000,-3.3,3.91,-0.6946377,4
15,1928072215000,-3.02,4.79,-0.14982383,4
15,1928122264000,-5.18,3.3,-1.4982382,4
15,1928172221000,-2.11,4.82,-3.5276701,4
15,1928222270000,-12.22,19.0,-4.630918,4
15,1928272197000,-3.26,10.38,5.325556,4
15,1928322276000,-5.28,8.66,-1.0351465,4
15,1928372203000,-7.44,12.07,-2.4925237,4
15,1928422313000,-2.18,5.98,-1.0351465,4
15,1928472209000,-0.19,3.83,-0.5720546,4
15,1928522258000,0.31,4.79,-1.4573772,4
15,1928572215000,-0.3,8.2,-1.4982382,4
15,1928622295000,-4.25,13.44,-2.070293,4
15,1928672252000,-9.96,17.5,3.718355,4
15,1928722331000,-9.08,15.47,3.990762,4
15,1928772227000,-5.63,13.87,-1.607201,4
15,1928822307000,-4.52,12.79,-0.29964766,4
15,1928872264000,-4.99,6.24,0.46309182,4
15,1928922313000,-4.52,6.36,3.0645783,4
15,1928972240000,-0.34,3.15,-3.5276701,4
15,1929022258000,-2.72,1.61,-0.7627395,4
15,1929072215000,-3.98,6.28,0.42223078,4
15,1929122295000,-5.18,2.68,-2.3699405,4
15,1929172221000,-1.69,7.78,-4.0180025,4
15,1929222819000,-11.07,19.46,-0.88532263,4
15,1929272197000,-3.53,9.08,2.6014864,4
15,1929322276000,-4.29,6.51,-0.84446156,4
15,1929372233000,-7.86,13.57,-2.4516625,4
15,1929422282000,-1.84,5.86,-0.84446156,4
15,1929472209000,0.04,3.26,-0.8036005,4
15,1929522258000,-0.27,6.24,-0.42223078,4
15,1929572215000,-0.34,10.99,-2.5333846,4
15,1929622295000,-3.15,11.69,-1.9477097,4
15,1929672252000,-6.4,11.22,-0.23154591,4
15,1929722301000,-7.35,10.12,0.08172209,4
15,1929772227000,-8.08,12.6,1.2666923,4
15,1929822276000,-7.63,16.4,1.0351465,4
15,1929872203000,-5.98,12.87,1.1441092,4
15,1929922313000,-5.41,10.23,-3.759216,4
15,1929972209000,-0.99,10.8,0.95342433,4
15,1930022258000,-4.33,9.77,1.7570249,4
15,1930072246000,-3.76,2.76,-1.7570249,4
15,1930122295000,-4.18,2.87,-1.3756552,4
15,1930172252000,-1.99,5.13,0.19068487,4
15,1930222301000,-4.82,2.56,-1.7297841,4
15,1930272227000,-1.73,1.84,-0.50395286,4
15,1930322276000,-8.31,16.74,-10.106298,4
15,1930372203000,-6.13,15.89,7.164303,4
15,1930422282000,-1.92,7.78,-1.1441092,4
15,1930472209000,-5.2,14.71,-1.6480621,4
15,1930522258000,-2.53,5.67,-0.040861044,4
15,1930572215000,-0.8,3.3,0.14982383,4
15,1930622264000,-0.72,4.6,-0.040861044,4
15,1930672374000,-1.95,9.43,-3.445948,4
15,1930722301000,-3.15,11.92,-4.2086873,4
15,1930772197000,-6.51,11.03,0.10896278,4
15,1930822276000,-7.78,11.18,0.8036005,4
15,1930880382000,-6.63,12.3,0.3405087,4
15,1930932353000,-6.82,15.43,2.3699405,4
15,1930982280000,-5.43,10.99,-1.3756552,4
15,1931032298000,-4.94,9.23,-3.405087,4
15,1931082225000,-2.53,12.91,4.9850473,4
15,1931132274000,-3.87,7.44,-1.2666923,4
15,1931182201000,-4.06,1.54,-1.0760075,4
15,1931232310000,-2.45,5.22,-0.8036005,4
15,1931282268000,-2.72,5.86,-0.61291564,4
15,1931332286000,-3.91,2.49,-1.9885708,4
15,1931382213000,-2.37,4.6,-2.4516625,4
15,1931432323000,-7.7,16.47,-6.510526,4
15,1931482219000,-5.24,14.33,6.891896,4
15,1931532298000,-2.91,5.18,-1.2666923,4
15,1931582225000,-7.16,13.91,-2.4108016,4
15,1931632304000,-3.95,8.47,-1.6480621,4
15,1931682292000,-0.95,4.79,-0.8036005,4
15,1931732280000,-0.99,5.01,-0.53119355,4
15,1931782207000,-2.07,6.85,-0.6946377,4
15,1931832286000,-1.95,8.85,1.4573772,4
15,1931892467000,-7.27,11.84,1.4573772,4
15,1931942546000,-7.12,9.53,-0.84446156,4
15,1931942546000,-7.12,9.53,-0.84446156,4
15,1932042247000,-6.4,13.33,-0.38136974,4
15,1932092326000,-9.53,11.5,-0.84446156,4
15,1932142253000,-5.9,8.08,1.1168685,4
15,1932192302000,-3.76,7.7,-0.84446156,4
15,1932242198000,-3.57,7.82,-3.255263,4
15,1932292277000,-5.18,5.24,2.8738933,4
15,1932342235000,-5.67,5.83,-0.040861044,4
15,1932392345000,-3.6,6.7,-2.1111538,4
15,1932442241000,-5.86,5.18,0.88532263,4
15,1932492259000,-4.75,6.32,-0.27240697,4
15,1932542247000,-5.37,7.01,0.3405087,4
15,1932592296000,-7.65,14.06,0.5720546,4
15,1932642253000,-6.21,9.47,3.718355,4
15,1932692302000,-3.45,4.67,-1.3756552,4
15,1932742198000,-3.64,8.73,-1.3756552,4
15,1932792277000,-4.33,10.57,-1.920469,4
15,1932842204000,-3.57,7.78,-2.2609777,4
15,1932892314000,-6.13,8.31,-0.50395286,4
15,1932942241000,-7.04,8.2,3.0645783,4
15,1932992259000,-4.02,9.19,-0.3405087,4
15,1933042247000,-4.18,8.92,-1.920469,4
15,1933092296000,-5.09,8.01,-2.4925237,4
15,1933142222000,-5.67,8.08,-1.7297841,4
15,1933192302000,-4.94,8.77,-0.14982383,4
15,1933242198000,-4.67,8.69,0.10896278,4
15,1933292277000,-5.37,8.28,-1.1168685,4
15,1935602214000,-5.05,8.28,-1.4165162,0
15,1935652232000,-5.2,8.35,-1.7297841,0
15,1935703593000,-5.41,8.01,-1.879608,0
15,1935752269000,-6.21,8.58,-1.3075534,0
15,1935803477000,-5.67,8.89,-0.9942854,0
15,1935852244000,-4.56,8.28,-1.0351465,0
15,1935902263000,-4.44,8.47,-1.7570249,0
15,1935953685000,-5.13,8.66,-2.4925237,0
15,1936002269000,-5.48,8.54,-2.3018389,0
15,1936053508000,-5.52,8.73,-1.8387469,0
15,1936102214000,-4.63,7.74,-0.50395286,0
15,1936152263000,-6.36,9.19,-0.0,0
15,1936203563000,-7.25,9.38,-5.053149,0
15,1936252208000,-5.67,6.13,-3.336985,0
15,1936303416000,-9.92,6.32,5.134871,0
15,1936352306000,-5.28,9.23,-6.0201936,0
15,1936402202000,3.06,11.88,-8.853226,0
15,1936453654000,2.49,13.1,0.6537767,0
15,1936502238000,-3.15,9.43,9.152874,0
15,1936553477000,-4.18,5.86,-1.334794,0
15,1936602214000,-1.84,6.59,-0.040861044,0
15,1936652232000,-1.12,9.77,0.08172209,0
15,1936703654000,-1.46,15.6,-1.4982382,0
15,1936752208000,-3.6,10.8,3.9499009,0
15,1936803508000,-7.74,3.83,4.0180025,0
15,1936852244000,-10.5,10.08,-4.5900574,0
15,1936902232000,-6.7,7.46,-2.9556155,0
15,1936962382000,-4.02,8.54,-1.1441092,0
15,1937012279000,-3.06,10.73,-2.1111538,0
15,1937062266000,-1.42,10.31,-0.29964766,0
15,1937112346000,-1.88,10.19,2.6832085,0
15,1937162273000,-2.83,9.11,1.8387469,0
15,1937212321000,-2.3,7.4,0.27240697,0
15,1937262279000,-3.02,6.7,0.3405087,0
15,1937312297000,-3.11,9.66,0.9942854,0
15,1937362285000,1.65,9.34,3.214402,0
15,1937412303000,-3.34,8.08,4.372132,0
15,1937462260000,-3.6,7.46,-10.18802,0
15,1937512309000,-10.0,16.44,-6.782933,0
15,1937562266000,-2.56,3.49,6.742072,0
15,1937612315000,-1.18,1.42,0.19068487,0
15,1937662273000,-4.48,13.91,5.325556,0
15,1937712291000,-2.83,10.61,-0.50395286,0
15,1937762279000,-0.27,8.5,-2.5606253,0
15,1937762279000,-0.27,8.5,-2.5606253,0
15,1937862163000,-6.13,11.07,-1.9885708,0
15,1937912242000,-5.24,8.58,-1.2666923,0
15,1937962443000,-4.56,5.71,-2.8738933,0
15,1938012279000,-1.31,4.9,4.6036777,0
15,1938062297000,-0.04,8.43,0.92618364,0
15,1938112285000,1.23,2.79,-0.5720546,0
15,1938162303000,2.96,7.74,-4.2495484,0
15,1938212260000,2.18,8.58,-3.1054392,0
15,1938262309000,-1.31,11.54,1.9477097,0
15,1938312266000,-13.53,19.57,1.2258313,0
15,1938362315000,-10.0,9.53,0.88532263,0
15,1938412273000,-1.95,7.93,2.4516625,0
15,1938462443000,-5.18,7.7,-0.7627395,0
15,1938512279000,-1.5,4.33,-1.2666923,0
15,1938562297000,-0.04,3.15,-0.6537767,0
15,1938612285000,0.69,6.05,-0.53119355,0
15,1938662303000,-1.53,8.81,-1.2666923,0
15,1938712260000,-4.21,7.01,1.1168685,0
15,1938762309000,-4.82,11.65,4.2904096,0
15,1938812266000,-8.05,19.31,-1.607201,0
15,1938872325000,-5.13,10.88,-1.0351465,0
15,1938922252000,-6.13,12.53,-0.9125633,0
15,1938972362000,-1.99,5.33,-1.1168685,0
15,1939022197000,-0.34,2.45,-1.1849703,0
15,1939072337000,-1.92,5.56,-1.3756552,0
15,1939132274000,0.42,5.09,-1.0760075,0
15,1939182231000,1.42,6.63,4.0588636,0
15,1939232280000,0.11,9.47,2.3018389,0
15,1939282237000,-8.47,18.92,-9.00305,0
15,1939332316000,-9.77,15.21,8.812365,0
15,1939382213000,-3.87,10.53,1.334794,0
15,1939432292000,-3.26,6.63,-0.6946377,0
15,1939482249000,-0.69,6.55,-0.50395286,0
15,1939532268000,3.38,10.27,3.9499009,0
15,1939582255000,1.12,5.94,-1.0351465,0
15,1939632304000,-1.57,3.99,-1.6480621,0
15,1939682262000,-4.86,6.89,2.3426998,0
15,1939732280000,-4.18,9.85,1.0760075,0
15,1939782207000,-7.31,19.38,-2.4925237,0
15,1939832316000,-8.73,12.03,0.14982383,0
15,1939882274000,-6.82,9.72,-0.8036005,0
15,1939932292000,-3.3,4.02,-1.3075534,0
15,1939982219000,-1.57,4.52,0.88532263,0
15,1940032268000,-0.11,3.68,0.23154591,0
15,1940082255000,0.84,5.9,-0.88532263,0
15,1940132274000,2.49,8.81,-3.405087,0
15,1940182231000,0.38,16.28,4.372132,0
15,1940232280000,-13.44,19.5,4.2086873,0
15,1940282268000,-5.6,7.74,-0.23154591,0
15,1940332316000,-3.15,3.95,-1.6889231,0
15,1940382274000,-1.08,1.8,-1.0760075,0
15,1940432262000,-0.04,6.02,0.10896278,0
15,1940482219000,2.53,7.4,4.0180025,0
15,1940532298000,0.84,4.37,-0.9125633,0
15,1940582286000,-2.49,11.14,-1.879608,0
15,1940632335000,-13.59,19.57,-2.8738933,0
15,1940682384000,-6.97,10.23,3.3778462,0
15,1940732310000,-6.85,8.58,0.53119355,0
15,1940782207000,-2.87,4.67,-1.1168685,0
15,1940832286000,-2.37,4.06,-0.9942854,0
15,1940882213000,0.46,3.57,-0.84446156,0
15,1940932292000,4.63,6.7,-3.214402,0
15,1940982219000,0.0,4.56,2.9556155,0
15,1941032268000,-1.92,4.9,-0.3405087,0
15,1941082225000,-8.27,17.67,-5.012288,0
15,1941132304000,-5.33,12.6,4.7535014,0
15,1941182262000,-2.26,8.89,1.3075534,0
15,1941232280000,-0.08,10.99,1.3075534,0
15,1941282207000,-0.99,5.94,0.6537767,0
15,1941332316000,-0.61,3.17,1.4573772,0
15,1941382213000,-1.84,10.0,-1.1849703,0
15,1941432323000,-9.08,19.53,-5.175732,0
15,1941482249000,-6.24,11.84,1.7978859,0
15,1941532268000,-5.75,9.08,-0.0,0
15,1941582286000,-5.37,5.67,-1.334794,0
15,1941632304000,-2.98,3.91,0.6946377,0
15,1941682231000,-1.84,6.09,0.23154591,0
15,1941732280000,-0.04,7.44,-0.9942854,0
15,1941782237000,0.72,7.4,-1.9477097,0
15,1941832316000,2.68,6.21,-1.334794,0
15,1941882274000,1.23,8.35,1.3075534,0
15,1941932292000,-9.08,18.85,-3.9090397,0
15,1941982249000,-12.03,9.51,11.876944,0
15,1942032298000,-4.21,8.16,1.4573772,0
15,1942082225000,-3.17,9.19,-1.3075534,0
15,1942132274000,-1.31,7.86,-1.4165162,0
15,1942182201000,1.18,6.93,-0.08172209,0
15,1942232310000,1.38,2.22,-1.4165162,0
15,1942282237000,-1.08,8.35,0.38136974,0
15,1942332316000,-9.0,19.57,-4.0180025,0
15,1942382213000,-5.71,12.11,1.56634,0
15,1942432292000,-4.56,8.08,0.313268,0
15,1942482249000,-5.48,6.78,-1.0351465,0
15,1942532298000,-3.26,2.64,-1.7570249,0
15,1942582255000,0.15,3.26,-0.14982383,0
15,1942632304000,-0.99,5.98,5.47538,0
15,1942682231000,-0.42,5.98,-3.7864566,0
15,1942732219000,-2.68,11.22,-6.6331096,0
15,1942782298000,-7.04,16.51,6.782933,0
15,1942832225000,-0.84,3.99,1.0351465,0
15,1942892345000,-0.76,10.19,4.1814466,0
15,1942942332000,-0.95,8.31,-1.4573772,0
15,1942992229000,-11.45,16.93,-4.8216033,0
15,1943042308000,-11.5,16.02,4.6036777,0
15,1943092235000,-3.49,9.38,-0.5720546,0
15,1943142284000,-3.64,6.74,-2.0294318,0
15,1943192271000,-1.8,4.02,-2.1383946,0
15,1943242259000,-1.04,5.37,-0.95342433,0
15,1943292216000,-2.98,11.56,-1.7978859,0
15,1943342265000,-5.28,14.06,1.0351465,0
15,1943392253000,-7.27,9.3,2.4925237,0
15,1943442302000,-4.63,6.17,-0.7218784,0
15,1943492229000,-4.67,5.56,-2.1792557,0
15,1943542308000,-7.25,9.72,-2.3426998,0
15,1943592235000,-6.13,8.69,-1.9885708,0
15,1943642284000,-2.98,10.19,3.759216,0
15,1943692241000,-3.95,9.53,4.099725,0
15,1943742290000,-5.18,7.86,-4.1814466,0
15,1943792247000,-2.79,7.35,-2.3699405,0
15,1943842296000,-3.79,8.66,-1.334794,0
15,1943892222000,-5.43,8.77,2.9556155,0
15,1943942363000,-5.43,8.77,2.9556155,0
15,1943992442000,-5.6,8.96,4.7126403,0
15,1943992442000,-5.6,8.96,4.7126403,0
15,1944092265000,-5.52,6.4,-0.9125633,0
15,1944142284000,-2.98,10.46,-1.0351465,0
15,1944192241000,-1.31,9.28,-1.334794,0
15,1944242320000,-5.41,8.43,1.6480621,0
15,1944292247000,-6.24,8.35,1.1441092,0
15,1944342296000,-5.79,8.24,-1.1849703,0
15,1944392222000,-4.59,8.47,-1.1441092,0
15,1944442302000,-4.94,8.39,-0.6537767,0
15,1944492229000,-6.09,8.24,0.53119355,0
15,1944542308000,-4.29,8.96,-0.08172209,0
15,1946402232000,-4.59,8.92,-2.1111538,4
15,1946453685000,-4.71,9.47,0.92618364,4
15,1946502269000,-5.2,11.6,4.2086873,4
15,1946553477000,-3.98,11.26,-2.4108016,4
15,1946602275000,-2.87,10.08,-8.158588,4
15,1946652202000,-4.37,14.48,6.5922484,4
15,1946703624000,-4.33,14.94,0.040861044,4
15,1946752208000,-5.71,9.92,0.5720546,4
15,1946803416000,-2.87,10.34,2.1111538,4
15,1946853709000,-2.56,7.74,1.4165162,4
15,1946902263000,-1.38,2.79,0.23154591,4
15,1946902263000,-1.38,2.79,0.23154591,4
15,1947014384000,3.45,3.38,2.2609777,4
15,0,0.0,0.0,0.0,4
15,0,0.0,0.0,0.0,4
15,1947212596000,-10.69,14.21,-1.1441092,4
15,1947212596000,-10.69,14.21,-1.1441092,4
15,1947212596000,-10.69,14.21,-1.1441092,4
15,0,0.0,0.0,0.0,4
15,1947362163000,2.26,4.94,-0.5720546,4
15,1947422496000,1.8,5.01,0.19068487,4
15,1947472209000,-0.72,8.39,-1.8387469,4
15,1947522258000,-4.56,15.75,-6.1291566,4
15,1947572276000,-11.37,16.55,4.0588636,4
15,1947622203000,-8.5,14.29,1.4165162,4
15,1947672313000,-8.69,10.76,-0.10896278,4
15,1947722209000,-7.78,10.76,-0.29964766,4
15,1947772288000,-6.74,5.79,-0.88532263,4
15,1947822246000,1.23,6.44,3.718355,4
15,1947872295000,-3.6,5.56,-1.0351465,4
15,1947922221000,-4.9,5.24,-1.3075534,4
15,1947972331000,-2.18,8.77,1.4573772,4
15,1948022227000,-1.84,4.6,0.3405087,4
15,1948072276000,-3.3,3.72,-0.0,4
15,1948122264000,-2.3,4.67,2.2609777,4
15,1948172282000,-7.65,18.92,-2.4925237,4
15,1948222270000,-2.45,10.65,4.4810944,4
15,1948272258000,-1.84,2.87,-1.525479,4
15,1948322246000,-9.34,14.6,-1.7297841,4
15,1948372264000,-6.05,12.37,-0.040861044,4
15,1948422252000,-1.18,5.9,0.38136974,4
15,1948472270000,-0.27,4.48,-0.040861044,4
15,1948522227000,-1.88,6.66,-0.10896278,4
15,1948572307000,-3.11,9.96,-1.3756552,4
15,1948622203000,-5.63,13.25,-2.982856,4
15,1948672313000,-9.58,13.72,5.175732,4
15,1948722209000,-4.9,14.33,2.3018389,4
15,1948772288000,-8.62,13.53,-0.53119355,4
15,1948822246000,-4.79,11.26,-2.9556155,4
15,1948822246000,-4.79,11.26,-2.9556155,4
15,1948922130000,-5.43,5.48,5.434519,4
15,1948972209000,-2.96,2.18,-3.336985,4
15,1949022410000,-4.94,5.09,-0.5720546,4
15,1949072246000,-4.48,6.97,0.5720546,4
15,1949122325000,-5.37,3.45,0.19068487,4
15,1949172221000,-4.18,2.96,-0.38136974,4
15,1949222301000,-3.83,11.96,-4.671779,4
15,1949272197000,-7.78,19.5,2.2609777,4
15,1949322307000,-1.33,5.28,0.10896278,4
15,1949372295000,-4.67,8.28,-1.879608,4
15,1949422313000,-8.66,16.51,-2.4925237,4
15,1949472118000,-2.14,6.78,-1.1441092,4
15,1949522258000,-0.8,3.21,-0.19068487,4
15,1949572368000,-1.8,3.95,0.313268,4
15,1949622295000,-3.06,5.28,1.0351465,4
15,1949682231000,-2.26,12.53,-4.0588636,4
15,1949732219000,-8.2,14.67,1.1849703,4
15,1949782237000,-10.42,14.44,2.3699405,4
15,1949832225000,-7.59,14.06,1.4573772,4
15,1949882274000,-6.47,11.65,1.2258313,4
15,1949932231000,-5.41,8.24,-2.8330324,4
15,1949982280000,-0.8,8.66,0.6537767,4
15,1950032268000,-3.3,5.86,3.1054392,4
15,1950082286000,-3.68,2.91,-3.2961242,4
15,1950132274000,-4.71,4.37,-0.46309182,4
15,1950182231000,-5.2,5.98,1.0351465,4
15,1950232249000,-6.63,1.76,-1.2258313,4
15,1950282298000,-4.48,8.96,-5.175732,4
15,1950332225000,-10.99,19.53,-0.50395286,4
15,1950382304000,-3.45,8.01,3.173541,4
15,1950432231000,-7.74,13.91,-2.6014864,4
15,1950482310000,-3.87,8.2,-1.7570249,4
15,1950532207000,-0.61,3.76,-0.7627395,4
15,1950582316000,-0.19,2.91,-0.50395286,4
15,1950632243000,-0.15,5.6,-0.8036005,4
15,1950682262000,-1.33,10.0,-0.9942854,4
15,1950732249000,-5.98,15.83,-2.6423476,4
15,1950782268000,-11.84,14.67,7.668256,4
15,1950832255000,-8.73,14.6,-0.53119355,4
15,1950882274000,-7.01,11.88,-3.0237172,4
15,1950932201000,-3.34,11.18,0.5720546,4
15,1950982280000,-6.66,7.82,0.7218784,4
15,1951032207000,-4.52,5.94,1.9885708,4
15,1951082316000,-1.14,3.38,-1.4165162,4
15,1951132213000,-3.15,5.09,-0.88532263,4
15,1951182262000,-2.75,6.51,-0.42223078,4
15,1951232341000,-4.99,4.56,-0.50395286,4
15,1951282268000,-3.15,4.4,-1.56634,4
15,1951332255000,-8.69,16.21,-5.9793324,4
15,1951382274000,-4.86,16.02,8.240311,4
15,1951432231000,-2.11,5.33,-1.525479,4
15,1951482280000,-7.89,12.22,-2.4925237,4
15,1951532268000,-4.82,9.85,-1.8387469,4
15,1951582316000,-1.5,4.86,-1.4165162,4
15,1951632213000,-1.46,5.33,-0.6946377,4
15,1951682262000,-2.75,5.6,0.19068487,4
15,1951732249000,-4.44,7.44,1.607201,4
15,1951782268000,-4.94,12.18,-1.7570249,4
15,1951832225000,-6.47,14.21,-2.3426998,4
15,1951882304000,-7.97,12.37,2.1111538,4
15,1951932231000,-8.96,13.02,3.1054392,4
15,1951982280000,-6.02,11.69,-1.2666923,4
15,1952032207000,-3.21,11.14,-1.525479,4
15,1952082316000,-4.82,10.92,-0.7627395,4
15,1952132243000,-4.06,7.78,3.8273177,4
15,1952182292000,-1.88,3.68,-2.0294318,4
15,1952232249000,-2.87,2.56,-1.9885708,4
15,1952282298000,-2.75,5.79,0.08172209,4
15,1952332225000,-4.25,2.49,-1.3075534,4
15,1952382304000,-2.91,2.76,-1.879608,4
15,1952432262000,-9.85,17.88,-11.032481,4
15,1952482280000,-3.95,14.33,9.343558,4
15,1952532207000,-3.68,7.59,0.38136974,4
15,1952582347000,-7.86,13.63,-2.5606253,4
15,1952632213000,-3.02,5.94,-0.9942854,4
15,1952682292000,-1.04,3.3,-0.84446156,4
15,1952732249000,-1.53,4.33,-0.9125633,4
15,1952782268000,-1.99,7.12,-1.9885708,4
15,1952832286000,-2.41,10.92,-3.173541,4
15,1952882304000,-5.94,14.44,-1.1441092,4
15,1952932231000,-10.8,13.67,7.3958488,4
15,1952982280000,-7.08,13.72,-0.040861044,4
15,1953032237000,-4.14,13.14,0.6537767,4
15,1953082316000,-3.34,9.62,-3.405087,4
15,1953132243000,-3.6,12.57,2.3699405,4
15,1953182292000,-4.52,8.69,1.3075534,4
15,1953232249000,-3.68,2.96,-1.4573772,4
15,1953282298000,-2.91,2.64,-0.7627395,4
15,1953332255000,-2.91,5.28,0.23154591,4
15,1953382274000,-4.4,3.64,-1.1168685,4
15,1953432231000,-1.65,4.63,-3.1463003,4
15,1953482280000,-6.63,18.09,-7.8861814,4
15,1953532237000,-3.34,11.73,6.8237944,4
15,1953582530000,-2.98,5.56,-1.9885708,4
15,1953582530000,-2.98,5.56,-1.9885708,4
15,1953643657000,-8.39,15.4,-1.9477097,4
15,1953702190000,-2.87,6.93,-0.6946377,4
15,1953752238000,-1.99,5.94,-1.1168685,4
15,1953802318000,-1.04,5.41,-0.84446156,4
15,1953852275000,-1.92,6.63,-1.4982382,4
15,1953902263000,-1.31,9.04,-3.445948,4
15,1953962321000,-3.68,10.57,-0.95342433,4
15,1954012248000,-7.35,11.03,2.982856,4
15,1954062327000,-9.08,10.84,0.84446156,4
15,1954122264000,-12.37,12.76,0.3405087,4
15,1954172252000,-9.62,7.78,2.070293,4
15,1954222301000,-3.98,8.5,1.2666923,4
15,1954272227000,-3.53,7.55,-0.5720546,4
15,1954322307000,-3.3,4.02,1.334794,4
15,1954372233000,-3.17,5.01,1.7297841,4
15,1954422313000,-4.79,5.09,-2.5333846,4
15,1954472209000,-5.33,4.67,-0.19068487,4
15,1954522288000,-4.82,6.55,-0.040861044,4
15,1954572307000,-3.11,8.92,-0.3405087,4
15,1954622325000,-5.75,18.81,-3.3642259,4
15,1954672282000,-3.26,2.26,14.1787815,4
15,1954722331000,-3.36,11.03,-4.8216033,4
15,1954782237000,-2.56,7.93,-3.173541,4
15,1954832286000,-5.48,8.47,-0.7218784,4
15,1954882304000,-9.92,8.08,4.6036777,4
15,1954932231000,-6.21,7.01,0.42223078,4
15,1954932231000,-6.21,7.01,0.42223078,4
15,1954932231000,-6.21,7.01,0.42223078,4
15,1955082316000,-4.52,8.47,-1.1168685,4
15,1955132396000,-6.85,7.97,0.3405087,4
15,1955182231000,-6.09,8.16,0.040861044,4
15,1955232280000,-4.44,8.54,-1.4165162,4
15,1955282237000,-4.71,8.47,-1.56634,4
15,1955332286000,-5.13,8.54,-0.42223078,4
15,1956782207000,-5.71,7.74,-1.9885708,0
15,1956832286000,-5.13,8.85,0.50395286,0
15,1956882243000,-7.01,9.38,4.0588636,0
15,1956932262000,-5.52,8.39,-0.88532263,0
15,1956982280000,-3.6,9.08,0.08172209,0
15,1957032268000,-3.41,9.23,0.6537767,0
15,1957082255000,-3.57,8.81,1.1849703,0
15,1957132335000,-2.98,8.66,1.2258313,0
15,1957182231000,-4.1,7.27,0.5720546,0
15,1957232310000,-4.02,7.31,-0.19068487,0
15,1957282237000,-3.06,8.39,-0.3405087,0
15,1957332286000,-2.6,10.15,-0.23154591,0
15,1957382243000,-1.69,10.99,0.23154591,0
15,1957432262000,-2.96,12.53,0.3405087,0
15,1957482249000,-7.59,7.12,6.742072,0
15,1957532634000,-4.75,7.44,-0.8036005,0
15,1957582255000,-5.24,8.73,-2.1383946,0
15,1957632304000,-5.43,7.97,-2.1111538,0
15,1957682231000,-5.82,8.69,-0.88532263,0
15,1957732341000,-4.63,9.11,-0.9942854,0
15,1957782207000,-3.06,9.34,-0.7218784,0
15,1957832286000,-2.41,9.58,-0.040861044,0
15,1957882213000,-4.67,8.77,0.95342433,0
15,1957932262000,-3.91,8.5,0.23154591,0
15,1957982219000,-2.07,6.89,0.08172209,0
15,1958032268000,0.76,4.9,0.7218784,0
15,1958082255000,1.57,6.32,-0.3405087,0
15,1958132274000,-2.83,6.55,0.46309182,0
15,1958182201000,-0.91,9.89,0.6946377,0
15,1958232310000,-9.62,18.73,-0.88532263,0
15,1958282298000,-8.54,11.3,2.7921712,0
15,1958332316000,-5.33,4.48,-1.525479,0
15,1958382274000,-3.87,5.79,-0.38136974,0
15,1958432262000,0.53,10.38,-0.46309182,0
15,1958482249000,2.53,10.76,-0.23154591,0
15,1958532268000,0.42,3.87,1.0351465,0
15,1958582286000,-2.6,3.6,0.6537767,0
15,1958632274000,-3.34,10.88,-0.0,0
15,1958682292000,-13.4,19.42,-1.4165162,0
15,1958732280000,-6.47,11.54,-0.61291564,0
15,1958782237000,-5.18,10.34,-0.38136974,0
15,1958832347000,-3.15,5.83,-2.7921712,0
15,1958882243000,-2.6,5.56,0.38136974,0
15,1958932292000,-3.11,9.38,0.61291564,0
15,1958982219000,-1.08,9.58,-0.95342433,0
15,1959032268000,1.08,6.82,-0.23154591,0
15,1959082255000,0.34,6.51,-0.8036005,0
15,1959132304000,-1.76,7.63,-1.1849703,0
15,1959182201000,-1.12,6.51,-0.84446156,0
15,1959232280000,0.11,8.08,-0.6946377,0
15,1959282237000,-8.5,18.54,-3.173541,0
15,1959332286000,-11.07,14.33,2.982856,0
15,1959382243000,-3.06,6.66,-0.3405087,0
15,1959432292000,-4.1,7.93,-0.95342433,0
15,1959482249000,-1.88,3.76,0.50395286,0
15,1959532298000,-1.33,4.14,0.9942854,0
15,1959582255000,-1.33,9.66,0.3405087,0
15,1959632274000,1.5,5.37,-0.27240697,0
15,1959682201000,0.53,5.05,-0.84446156,0
15,1959732280000,-4.06,11.18,-1.0351465,0
15,1959782268000,-11.14,19.57,-1.3075534,0
15,1959832316000,-8.69,14.41,1.6480621,0
15,1959882274000,-5.48,10.46,-1.6480621,0
15,1959932292000,-5.9,7.08,-4.2495484,0
15,1959982280000,-2.34,2.3,-0.6946377,0
15,1960032298000,0.38,3.83,2.6423476,0
15,1960082225000,-0.42,3.34,0.88532263,0
15,1960082225000,-0.42,3.34,0.88532263,0
15,1960182262000,2.6,9.23,-3.7864566,0
15,1960232219000,0.76,12.15,-1.7978859,0
15,1960282298000,-11.99,19.57,-0.3405087,0
15,1960332225000,-10.19,8.39,7.9679036,0
15,1960382274000,-4.18,8.2,-1.607201,0
15,1960432201000,-4.75,4.6,-2.3426998,0
15,1960482280000,1.14,5.86,4.0180025,0
15,1960532207000,1.92,8.31,1.8387469,0
15,1960582255000,1.33,6.97,-1.9885708,0
15,1960632213000,0.15,5.79,-2.3018389,0
15,1960682201000,-6.85,18.43,-8.430995,0
15,1960732310000,-7.97,16.93,3.214402,0
15,1960782237000,-9.53,9.7,7.5865335,0
15,1960832286000,-5.28,8.77,-0.6537767,0
15,1960882243000,-5.33,6.85,-3.486809,0
15,1960932292000,-0.19,3.3,-2.7513103,0
15,1960982249000,0.69,2.91,-0.84446156,0
15,1961032268000,0.69,5.22,-1.2666923,0
15,1961032268000,0.69,5.22,-1.2666923,0
15,1961093059000,1.12,7.27,-0.88532263,0
15,1961142558000,0.11,11.73,4.3312707,0
15,1961252116000,-11.33,10.04,4.3312707,0
15,1961252116000,-11.33,10.04,4.3312707,0
15,1961302287000,-4.63,11.14,1.1849703,0
15,1961352397000,-4.63,6.78,-1.3756552,0
15,1961402263000,0.31,5.67,-0.5720546,0
15,1961452342000,1.61,6.32,-0.040861044,0
15,1961512248000,1.27,4.37,-1.1441092,0
15,1961562205000,0.31,4.06,-1.334794,0
15,1961612285000,-3.06,10.76,0.38136974,0
15,1961662242000,-8.39,19.31,-3.7864566,0
15,1961712230000,-8.85,15.17,0.88532263,0
15,1961762218000,-7.21,9.53,3.0237172,0
15,1961812327000,-6.97,8.81,-0.84446156,0
15,1961862254000,-3.15,3.64,-2.1383946,0
15,1961912273000,-0.19,2.79,-0.3405087,0
15,1961962199000,0.72,4.37,-0.61291564,0
15,1962012248000,0.15,6.66,-2.9147544,0
15,1962062205000,1.23,7.97,-3.0237172,0
15,1962112254000,-3.36,13.99,0.9942854,0
15,1962162212000,-13.33,17.47,0.08172209,0
15,1962212291000,-3.79,4.94,1.56634,0
15,1962262218000,-3.11,5.37,0.313268,0
15,1962312266000,-3.06,6.36,-0.29964766,0
15,1962362224000,0.72,7.67,1.920469,0
15,1962412273000,2.3,5.09,-1.9885708,0
15,1962462199000,1.33,12.37,-2.7921712,0
15,1962512309000,-12.22,19.46,-5.202973,0
15,1962562236000,-10.19,10.5,9.302697,0
15,1962612285000,-6.97,7.78,-0.7218784,0
15,1962662242000,-3.72,4.18,-1.1849703,0
15,1962712230000,-1.14,2.72,-2.8330324,0
15,1962762248000,1.84,2.49,-2.1792557,0
15,1962812297000,0.89,7.44,-2.9556155,0
15,1962862224000,0.69,10.76,-1.4982382,0
15,1962912273000,-4.29,18.85,0.10896278,0
15,1962962199000,-15.09,15.09,5.407278,0
15,1963012340000,-5.05,5.01,0.7218784,0
15,1963062266000,-4.1,7.7,-0.84446156,0
15,1963112315000,-1.84,7.78,-2.1383946,0
15,1963162212000,0.31,7.82,1.607201,0
15,1963212260000,2.07,4.33,-0.53119355,0
15,1963262218000,1.12,2.37,-1.56634,0
15,1963312266000,-4.67,15.66,-1.4573772,0
15,1963362224000,-11.6,19.27,-2.8330324,0
15,1963412303000,-6.74,9.19,1.334794,0
15,1963462230000,-7.78,7.5,0.8036005,0
15,1963512309000,-5.2,4.86,-0.88532263,0
15,1963562205000,-2.14,3.45,-1.1441092,0
15,1963612285000,-0.04,4.56,-0.8036005,0
15,1963662212000,-0.34,8.62,-2.3426998,0
15,1963712230000,1.92,7.21,-0.84446156,0
15,1963762218000,1.27,9.53,0.42223078,0
15,1963812297000,-10.0,19.19,-1.7297841,0
15,1963862254000,-12.3,8.35,4.5219555,0
15,1963912303000,-3.26,5.33,3.214402,0
15,1963962199000,-5.6,10.73,-5.5571017,0
15,1964012248000,2.76,5.48,2.7649305,0
15,1964062205000,2.07,7.89,3.568531,0
15,1964112285000,-0.8,7.08,-3.568531,0
15,1964162242000,-10.46,17.73,-7.9270425,0
15,1964212291000,-9.15,13.87,1.2258313,0
15,1964262248000,-6.43,8.39,1.607201,0
15,1964312297000,-6.21,4.94,0.84446156,0
15,1964362224000,-3.98,2.79,-2.6832085,0
15,1964412303000,-3.72,4.9,-2.6014864,0
15,1964462199000,-5.63,13.67,-0.7627395,0
15,1964512309000,-2.26,12.95,3.486809,0
15,1964562205000,-1.42,8.28,0.50395286,0
15,1964612285000,-3.64,9.43,-2.6014864,0
15,1964662212000,-5.33,9.08,-2.3426998,0
15,1964712230000,-5.67,7.25,-2.7513103,0
15,1964762218000,-6.85,5.71,-2.2609777,0
15,1964812266000,-7.04,11.75,9.507003,0
15,1964862224000,-1.14,14.25,-3.718355,0
15,1964912303000,-3.72,8.85,-1.7570249,0
15,1964962199000,-4.79,7.5,-3.255263,0
15,1965012309000,-5.94,6.05,-0.27240697,0
15,1965062236000,-8.24,5.56,0.27240697,0
15,1965112346000,-4.75,7.12,-1.9477097,0
15,1965162212000,-2.96,12.68,2.5333846,0
15,1965212291000,-2.68,10.12,-0.88532263,0
15,1965262248000,-3.6,8.2,-3.7864566,0
15,1965312297000,-6.74,8.31,1.1849703,0
15,1965362285000,-4.02,8.89,-0.7627395,0
15,1965412273000,-4.48,8.31,-2.7921712,0
15,1965462199000,-4.86,9.3,-0.14982383,0
15,1965512279000,-4.86,8.73,-0.50395286,0
15,1965562236000,-3.79,8.58,-1.7978859,0
15,1965612346000,-4.4,8.96,-0.95342433,0
15,1965662212000,-4.59,8.66,-0.5720546,0
15,1966212291000,-4.4,9.47,-2.4925237,4
15,1966272319000,-3.72,9.62,-2.2609777,4
15,1966322337000,-5.75,7.82,-1.2666923,4
15,1966372264000,-5.86,6.05,-1.2666923,4
15,1966422252000,-4.52,6.66,0.42223078,4
15,1966472301000,-6.74,9.47,3.3778462,4
15,1966522258000,-8.35,8.24,-4.440233,4
15,1966572307000,-6.13,8.85,-0.88532263,4
15,1966622264000,-1.61,9.81,2.070293,4
15,1966672313000,-1.18,10.8,0.38136974,4
15,1966722240000,-2.98,9.72,-0.84446156,4
15,1966772288000,-3.91,8.28,-2.9556155,4
15,1966822215000,-5.37,9.3,-2.1792557,4
15,1966872295000,-4.75,8.35,-1.879608,4
15,1966922252000,-4.86,8.73,-1.9885708,4
15,1966972270000,-4.86,8.69,-1.879608,4
15,1967022227000,-5.01,8.5,-2.1111538,4
15,1967072276000,-5.48,9.58,1.6480621,4
15,1967122233000,-3.98,11.5,3.0645783,4
15,1967172282000,-4.14,10.0,-1.9477097,4
15,1967222240000,-4.21,11.3,-0.8036005,4
15,1967272258000,-5.52,13.1,-0.9125633,4
15,1967272258000,-5.52,13.1,-0.9125633,4
15,1967372264000,-6.85,8.16,2.5606253,4
15,1967422313000,-2.3,7.74,0.23154591,4
15,1967472240000,-1.73,8.24,2.0294318,4
15,1967522258000,-0.19,6.66,1.0351465,4
15,1967572215000,-0.19,3.83,0.10896278,4
15,1967622264000,1.33,0.5,1.3756552,4
15,1967672252000,-0.89,16.74,2.9147544,4
15,1967722301000,-5.37,13.76,4.944186,4
15,1967772197000,-5.52,7.35,0.08172209,4
15,1967822307000,-9.34,12.26,-0.38136974,4
15,1967872264000,-6.17,9.77,-0.88532263,4
15,1967922435000,-1.53,12.15,-0.7627395,4
15,1967972209000,-0.34,6.09,1.7978859,4
15,1968022288000,-0.76,5.79,1.2666923,4
15,1968072215000,-1.14,7.4,-0.5720546,4
15,1968122264000,-1.38,10.53,-2.4108016,4
15,1968172221000,-1.04,12.79,-3.173541,4
15,1968222270000,-5.41,10.38,-1.7570249,4
15,1968272227000,-4.94,13.8,1.0351465,4
15,1968322276000,-5.56,14.82,0.19068487,4
15,1968372264000,-10.92,14.75,3.336985,4
15,1968422343000,-6.32,11.92,0.7627395,4
15,1968472240000,-8.2,7.74,-4.372132,4
15,1968522258000,0.34,5.41,-1.4573772,4
15,1968572276000,-4.21,6.24,4.0180025,4
15,1968622295000,-3.87,4.06,-0.9125633,4
15,1968672252000,-2.18,4.02,-0.95342433,4
15,1968722240000,-3.91,1.99,-0.7218784,4
15,1968772197000,-1.8,0.38,0.08172209,4
15,1968822307000,-12.64,16.32,-4.1814466,4
15,1968872630000,-6.66,14.37,3.5957718,4
15,1968922282000,-5.63,11.3,-1.3756552,4
15,1968972270000,-5.33,13.95,-1.4982382,4
15,1969022258000,-0.72,5.63,-0.040861044,4
15,1969072215000,-0.61,3.45,1.1168685,4
15,1969122264000,-1.61,3.91,1.1168685,4
15,1969172221000,-2.41,8.16,-0.46309182,4
15,1969222270000,-3.11,14.82,-3.6774938,4
15,1969272227000,-7.27,16.09,-0.040861044,4
15,1969322276000,-12.03,14.21,7.6273947,4
15,1969372264000,-10.84,12.95,-0.7218784,4
15,1969422282000,-6.13,11.54,0.61291564,4
15,1969472270000,-5.09,5.75,-5.6252036,4
15,1969522258000,-1.12,6.78,8.158588,4
15,1969572276000,-0.57,6.21,-3.759216,4
15,1969622264000,-4.59,1.92,-0.38136974,4
15,1969672252000,-2.41,5.94,0.88532263,4
15,1969722240000,-5.09,2.96,0.8036005,4
15,1969772227000,-2.87,2.34,-3.9499009,4
15,1969822276000,-3.11,13.99,-4.7535014,4
15,1969872203000,-9.43,19.08,6.238119,4
15,1969922282000,-1.33,4.18,-0.46309182,4
15,1969972240000,-6.63,11.96,-2.1111538,4
15,1970022258000,-6.89,13.29,-1.0351465,4
15,1970072246000,-1.42,5.43,-0.38136974,4
15,1970122295000,-0.76,4.37,0.3405087,4
15,1970172252000,-0.76,5.33,-0.23154591,4
15,1970222301000,-1.95,8.16,-1.2666923,4
15,1970272227000,-4.33,12.53,-2.3018389,4
15,1970322337000,-8.35,14.75,0.6537767,4
15,1970372264000,-9.43,14.67,4.8216033,4
15,1970422282000,-5.9,14.63,2.2201166,4
15,1970472240000,-5.24,12.3,-0.5720546,4
15,1970522288000,-7.31,8.62,-3.173541,4
15,1970572276000,-5.52,7.35,7.8589406,4
15,1970622264000,-4.56,4.44,-3.1054392,4
15,1970672252000,-3.21,0.42,-1.1849703,4
15,1970722240000,-2.3,5.48,0.9942854,4
15,1970772197000,-5.52,2.22,0.38136974,4
15,1970822276000,-2.03,1.8,-2.7513103,4
15,1970872233000,-3.76,12.03,-5.7886477,4
15,1970922313000,-10.8,19.46,5.243834,4
15,1970972209000,-1.08,5.63,-0.23154591,4
15,1971022258000,-6.36,13.38,-2.1111538,4
15,1971072246000,-7.16,12.22,-0.7627395,4
15,1971122264000,-1.61,4.86,0.7218784,4
15,1971172252000,-0.61,3.38,0.313268,4
15,1971222301000,-0.69,3.76,0.040861044,4
15,1971272227000,-2.26,6.05,-0.95342433,4
15,1971322276000,-4.18,11.6,-2.2201166,4
15,1971372203000,-7.55,17.27,-2.7921712,4
15,1971422313000,-11.18,15.55,5.175732,4
15,1971472240000,-9.04,13.44,2.4108016,4
15,1971522288000,-5.05,10.95,-1.4165162,4
15,1971572276000,-3.68,8.2,-2.9556155,4
15,1971622264000,-2.49,8.2,3.0237172,4
15,1971672282000,-3.57,7.35,0.92618364,4
15,1971722240000,-2.96,3.15,-2.7240696,4
15,1971772258000,-3.02,5.01,-0.23154591,4
15,1971822337000,-3.64,5.83,0.14982383,4
15,1971872233000,-5.6,2.56,-2.4108016,4
15,1971922313000,-2.18,5.67,-3.2961242,4
15,1971972240000,-12.53,19.5,-6.66035,4
15,1972022258000,-1.04,9.85,8.771504,4
15,1972072215000,-3.45,10.15,-0.95342433,4
15,1972122264000,-6.21,11.8,-2.2609777,4
15,1972172252000,-1.88,5.22,-0.9125633,4
15,1972222331000,-1.12,3.91,-0.5720546,4
15,1972272197000,-1.88,6.09,-1.1168685,4
15,1972322276000,-2.79,8.66,-1.4573772,4
15,1972372325000,-3.91,10.46,-2.7921712,4
15,1972422465000,-7.08,11.84,0.27240697,4
15,1972472301000,-7.93,11.03,1.3756552,4
15,1972522288000,-5.43,14.1,1.3756552,4
15,1972582255000,-5.56,13.02,1.9885708,4
15,1972632213000,-5.9,12.15,-0.53119355,4
15,1972682262000,-7.08,10.42,-3.5957718,4
15,1972732249000,-4.21,10.08,3.8273177,4
15,1972782268000,-2.68,6.32,-1.334794,4
15,1972832255000,-3.83,3.68,-2.3699405,4
15,1972882243000,-2.03,4.9,-0.23154591,4
15,1972932201000,-3.64,2.34,0.38136974,4
15,1972982310000,-4.4,3.02,-0.88532263,4
15,1973032207000,-1.88,6.78,-3.8273177,4
15,1973082286000,-10.84,19.27,-6.701211,4
15,1973132213000,-1.08,10.0,5.284695,4
15,1973182262000,-2.75,6.4,-2.4516625,4
15,1973232219000,-7.63,13.91,-2.070293,4
15,1973282268000,-2.98,7.06,-1.2666923,4
15,1973332225000,-0.89,4.37,-0.9942854,4
15,1973332225000,-0.89,4.37,-0.9942854,4
15,1973332225000,-0.89,4.37,-0.9942854,4
15,1973482219000,-3.83,9.96,-1.3756552,4
15,1973532390000,-4.63,11.07,-1.2666923,4
15,1973582316000,-6.55,10.73,0.9942854,4
15,1973632274000,-7.08,11.88,-0.040861044,4
15,1973682292000,-9.23,14.1,2.2609777,4
15,1973732341000,-6.43,12.41,0.19068487,4
15,1973782268000,-4.44,11.35,-1.3756552,4
15,1973832316000,-5.82,10.08,-1.3075534,4
15,1973882243000,-3.95,9.04,5.6660647,4
15,1973932292000,-2.68,3.83,-3.718355,4
15,1973982219000,-2.45,2.83,-0.9942854,4
15,1974032268000,-2.49,5.24,0.61291564,4
15,1974082225000,-3.68,1.5,-1.4982382,4
15,1974132274000,-1.69,3.15,-2.7513103,4
15,1974182231000,-2.41,16.36,-9.425281,4
15,1974232280000,-5.94,15.32,10.337844,4
15,1974282207000,-0.5,3.57,-1.7570249,4
15,1974332286000,-6.66,15.66,-4.140586,4
15,1974382213000,-2.56,7.93,-0.95342433,4
15,1974432262000,-1.31,5.56,-0.61291564,4
15,1974482219000,-2.68,7.67,-1.7297841,4
15,1974532268000,-2.83,6.24,-0.27240697,4
15,1974582225000,-2.75,8.5,-0.61291564,4
15,1974632274000,-3.91,9.92,-0.9125633,4
15,1974682231000,-4.4,9.28,-0.61291564,4
15,1974732310000,-4.29,9.96,-1.9885708,4
15,1974782237000,-5.18,10.76,-0.040861044,4
15,1974832286000,-4.71,11.65,0.50395286,4
15,1974882243000,-8.62,13.14,0.7627395,4
15,1974932262000,-5.6,8.85,1.4165162,4
15,1974982249000,-3.45,9.89,-0.46309182,4
15,1975032268000,-3.83,7.67,-1.879608,4
15,1975082286000,-3.68,6.09,-0.5720546,4
15,1975132274000,-5.13,6.63,1.9477097,4
15,1975182231000,-6.32,6.13,-0.7218784,4
15,1975232280000,-3.95,5.83,0.10896278,4
15,1975282329000,-2.87,6.32,-0.53119355,4
15,1975332286000,-5.6,5.43,-0.61291564,4
15,1975382213000,-4.82,13.06,0.53119355,4
15,1975432262000,-8.35,14.25,3.9090397,4
15,1975482219000,-2.11,5.01,-0.27240697,4
15,1975532268000,-2.22,8.66,-2.070293,4
15,1975582255000,-3.34,9.38,-4.399372,4
15,1975632274000,-5.6,7.86,-0.23154591,4
15,1975682201000,-6.97,8.2,0.88532263,4
15,1975732280000,-5.28,7.93,-2.3018389,4
15,1975782268000,-5.48,8.66,-0.95342433,4
15,1975832286000,-3.87,9.04,-0.61291564,4
15,1975882213000,-4.94,8.39,-1.7297841,4
15,1975932262000,-5.43,8.35,-1.3075534,4
15,1975982219000,-5.41,8.39,-0.46309182,4
15,1976032268000,-4.33,8.69,-1.7978859,4
15,1979282268000,-5.6,8.58,-1.3756552,0
15,1979332255000,-5.41,8.31,-1.3756552,0
15,1979382213000,-4.82,9.04,-1.6889231,0
15,1979432231000,-4.02,8.73,-1.2258313,0
15,1979482371000,-3.79,8.73,-1.2258313,0
15,1979532268000,-4.63,9.08,-0.5720546,0
15,1979532268000,-4.63,9.08,-0.5720546,0
15,1979632213000,-3.64,9.43,0.10896278,0
15,1979682292000,-2.83,9.47,0.313268,0
15,1979682292000,-2.83,9.47,0.313268,0
15,1979742869000,-3.41,9.23,1.56634,0
15,1979792888000,-6.02,10.31,1.3756552,0
15,1979842876000,-5.43,10.99,1.1849703,0
15,1979892863000,-3.83,9.51,-1.4573772,0
15,1979942821000,-5.63,7.82,0.14982383,0
15,1979992869000,-3.34,8.05,-1.6889231,0
15,1980042827000,-2.53,7.12,0.53119355,0
15,1980092876000,-2.96,6.32,-0.27240697,0
15,1980142863000,-3.98,5.67,-0.29964766,0
15,1980192851000,-3.11,5.52,0.08172209,0
15,1980243388000,-1.42,10.15,-0.040861044,0
15,1980292857000,0.61,7.67,2.0294318,0
15,1980342784000,-3.45,6.05,0.7627395,0
15,1980392833000,-5.28,9.11,1.1168685,0
15,1980442790000,-4.02,16.44,-1.3756552,0
15,1980492839000,-9.23,16.63,4.140586,0
15,1980542796000,-5.52,10.61,-1.3075534,0
15,1980592815000,-6.59,10.69,-2.8330324,0
15,1980643901000,-3.6,4.99,-2.3699405,0
15,1980702312000,-3.21,6.97,-1.0351465,0
15,1980752238000,-1.33,9.3,0.27240697,0
15,1980802318000,-0.91,8.5,3.1054392,0
15,1980852275000,0.11,7.27,0.7627395,0
15,1980902263000,0.42,6.36,-1.4165162,0
15,1980952281000,-0.46,6.78,-1.7297841,0
15,1981002299000,-1.88,5.6,2.6423476,0
15,1981052287000,-3.91,16.02,-4.7126403,0
15,1981102306000,-8.62,18.7,5.47538,0
15,1981152263000,-2.53,5.18,0.46309182,0
15,1981202312000,-4.67,6.59,-1.9477097,0
15,1981252269000,-3.64,4.99,1.0760075,0
15,1981302287000,-0.38,5.28,0.9942854,0
15,1981352275000,2.18,8.77,2.7921712,0
15,1981402263000,3.53,7.67,-0.42223078,0
15,1981452342000,-1.95,3.87,-1.607201,0
15,1981502269000,-8.08,15.21,-0.27240697,0
15,1981552287000,-10.38,16.4,0.38136974,0
15,1981602306000,-6.02,9.34,1.3075534,0
15,1981652263000,-4.86,7.4,-1.0760075,0
15,1981702312000,-0.3,7.01,-2.4108016,0
15,1981752269000,5.86,1.8,6.2108784,0
15,1981802287000,-1.69,1.54,-1.4165162,0
15,1981852275000,-3.68,5.09,-7.5456724,0
15,1981902263000,-7.82,18.92,0.95342433,0
15,1981952281000,-0.76,9.77,3.9499009,0
15,1982002269000,0.42,8.12,3.173541,0
15,1982052287000,-2.6,8.73,2.9147544,0
15,1982102275000,-2.49,6.74,0.10896278,0
15,1982152263000,-7.46,18.43,-4.630918,0
15,1982202281000,-5.63,11.99,1.920469,0
15,1982252269000,-4.99,7.59,-0.5720546,0
15,1982302318000,-5.41,6.32,-1.1168685,0
15,1982352275000,-0.76,5.94,-1.3756552,0
15,1982402263000,4.48,6.36,-0.0,0
15,1982452281000,0.69,1.38,5.7477865,0
15,1982502299000,-3.45,7.7,-5.407278,0
15,1982552287000,-10.76,18.73,-3.3642259,0
15,1982602275000,-2.87,9.47,6.4424243,0
15,1982652263000,-2.49,5.98,-0.10896278,0
15,1982702281000,0.11,9.34,1.0351465,0
15,1982752269000,-0.8,5.98,0.95342433,0
15,1982802318000,-1.38,11.56,-2.070293,0
15,1982852275000,-9.15,18.47,-3.5957718,0
15,1982902263000,-6.21,8.96,1.0760075,0
15,1982952281000,-6.32,8.43,0.19068487,0
15,1983002330000,-4.52,6.47,-1.607201,0
15,1983052287000,-1.73,6.32,-0.10896278,0
15,1983102275000,0.93,6.13,-0.38136974,0
15,1983152263000,2.26,5.01,-1.3756552,0
15,1983202312000,0.76,7.12,-2.7513103,0
15,1983252269000,-6.24,14.9,-2.8738933,0
15,1983302287000,-17.82,15.55,6.4015636,0
15,1983352275000,-4.06,3.79,2.070293,0
15,1983402263000,-0.8,10.15,-0.27240697,0
15,1983452281000,3.76,13.67,0.10896278,0
15,1983502269000,3.68,4.29,-0.95342433,0
15,1983552287000,-5.2,17.24,-3.1054392,0
15,1983602275000,-10.0,14.94,-0.50395286,0
15,1983652507000,-6.74,9.19,0.61291564,0
15,1983702281000,-6.05,6.93,-0.42223078,0
15,1983752299000,-3.98,4.52,-1.4982382,0
15,1983802287000,-0.23,5.9,0.7218784,0
15,1983852275000,0.84,3.79,3.1054392,0
15,1983902263000,1.23,4.56,-1.7297841,0
15,1983952281000,-4.75,9.89,-4.630918,0
15,1984002269000,-10.19,17.88,0.23154591,0
15,1984052287000,-4.02,4.63,5.053149,0
15,1984102275000,-6.74,10.95,-0.50395286,0
15,1984152263000,0.65,13.4,0.8036005,0
15,1984202281000,0.0,4.79,0.50395286,0
15,1984252269000,-1.08,14.67,-1.920469,0
15,1984302348000,-10.19,16.55,1.0760075,0
15,1984352275000,-7.86,9.7,1.920469,0
15,1984402263000,-6.66,7.59,-2.3699405,0
15,1984452281000,-4.82,6.63,-2.1383946,0
15,1984502269000,0.34,4.94,-4.2086873,0
15,1984552318000,1.92,1.76,-0.5720546,0
15,1984602275000,2.41,0.89,-1.4573772,0
15,1984652385000,-1.95,5.86,-3.718355,0
15,1984702281000,-11.99,19.23,1.334794,0
15,1984752269000,-3.11,8.73,4.862464,0
15,1984802287000,0.31,9.15,2.6014864,0
15,1984852275000,1.54,8.66,-2.3699405,0
15,1984902293000,-7.65,19.57,-0.7627395,0
15,1984952281000,-8.08,12.98,1.1849703,0
15,1985002299000,-6.13,10.53,-1.0351465,0
15,1985052287000,-5.48,6.78,-2.5333846,0
15,1985102275000,-3.17,2.87,-2.4516625,0
15,1985152263000,-1.23,3.34,-0.7218784,0
15,1985202312000,-0.72,5.37,-1.1849703,0
15,1985252269000,-0.89,8.16,-0.9942854,0
15,1985302318000,0.93,7.86,0.7627395,0
15,1985352580000,0.34,8.89,4.1814466,0
15,1985402293000,-9.34,18.96,-2.9147544,0
15,1985452373000,-13.21,15.51,-3.0645783,0
15,1985502269000,-6.7,6.63,3.2961242,0
15,1985552196000,-8.05,8.5,0.5720546,0
15,1985602275000,-2.56,6.44,1.3756552,0
15,1985652263000,0.8,6.17,3.2961242,0
15,1985702312000,-5.48,9.77,-1.6889231,0
15,1985752269000,-6.51,9.34,-3.173541,0
15,1985802287000,-5.63,8.24,-1.3756552,0
15,1985852306000,-3.45,8.08,-0.3405087,0
15,1985902263000,-4.02,9.38,-0.19068487,0
15,1985952312000,-6.02,8.01,0.14982383,0
15,1986002269000,-5.13,8.81,0.6946377,0
15,1986052318000,-3.3,9.11,-0.7218784,0
15,1986102275000,-4.1,8.85,-1.9885708,0
15,1986152263000,-4.06,8.28,-1.525479,0
15,1986202281000,-5.63,8.39,-1.2666923,0
15,1986252269000,-6.28,8.39,0.08172209,0
15,1986302287000,-4.67,9.0,0.42223078,0
15,1986352306000,-4.63,8.85,-1.607201,0
15,1988702281000,-3.79,9.38,-1.879608,4
15,1988752299000,-4.18,9.11,-1.4982382,4
15,1988802287000,-4.67,8.5,-2.0294318,4
15,1988852306000,-5.48,7.93,-0.5720546,4
15,1988902293000,-4.1,10.61,3.173541,4
15,1988952312000,-2.79,11.37,0.50395286,4
15,1989002269000,-4.1,10.12,-2.3426998,4
15,1989052318000,-5.75,9.77,-0.88532263,4
15,1989102275000,-6.28,12.11,0.88532263,4
15,1989152293000,-0.04,13.06,2.7921712,4
15,1989202281000,-4.44,11.14,0.61291564,4
15,1989252299000,-3.06,10.19,0.5720546,4
15,1989302287000,-2.03,9.28,1.3075534,4
15,1989352306000,-1.5,3.95,0.14982383,4
15,1989402232000,-0.8,0.69,-0.10896278,4
15,1989452312000,-0.04,2.72,-1.2258313,4
15,1989502238000,-0.04,15.4,1.334794,4
15,1989552318000,-6.55,14.63,6.4015636,4
15,1989602275000,-0.61,1.73,-1.7297841,4
15,1989652263000,-9.62,13.33,-2.4925237,4
15,1989702281000,-7.12,12.6,-1.9885708,4
15,1989752269000,-3.49,13.06,-0.42223078,4
15,1989802287000,0.76,7.35,3.5957718,4
15,1989852275000,0.15,6.24,0.23154591,4
15,1989902263000,0.34,6.36,-1.3075534,4
15,1989952312000,-0.76,9.28,-2.070293,4
15,1990002269000,-4.56,13.21,-5.8567495,4
15,1990052318000,-8.47,11.11,2.3018389,4
15,1990102275000,-8.58,12.11,0.9942854,4
15,1990152263000,-5.86,14.41,1.1849703,4
15,1990202281000,-7.27,12.3,0.92618364,4
15,1990252269000,-6.28,10.19,0.42223078,4
15,1990302287000,-6.02,6.63,-2.3018389,4
15,1990352306000,0.0,8.5,4.630918,4
15,1990402263000,-3.17,6.02,-0.6537767,4
15,1990452312000,-5.48,3.11,-0.10896278,4
15,1990502269000,-3.02,8.81,0.92618364,4
15,1990552318000,-3.17,5.9,1.0760075,4
15,1990602306000,-3.57,2.96,-1.7297841,4
15,1990652446000,1.33,5.71,-2.2201166,4
15,1990702342000,-10.19,19.53,-5.7477865,4
15,1990752330000,-2.3,9.47,3.5276701,4
15,1990812236000,-4.86,12.76,-1.6889231,4
15,1990872783000,-4.06,10.76,-1.4165162,4
15,1990922252000,0.42,2.83,-0.9125633,4
15,1990972301000,0.04,2.45,-0.23154591,4
15,1991022227000,-0.95,4.6,-1.1168685,4
15,1991072307000,-3.02,10.61,-0.46309182,4
15,1991122233000,-4.25,17.24,-3.3642259,4
15,1991172313000,-9.77,12.95,6.66035,4
15,1991222301000,-10.23,13.95,1.1441092,4
15,1991272288000,-9.58,12.26,0.040861044,4
15,1991322826000,-4.9,10.04,-2.070293,4
15,1991372233000,0.0,7.82,-0.42223078,4
15,1991422282000,-1.18,9.23,3.7864566,4
15,1991472270000,-4.02,3.21,-2.4925237,4
15,1991522288000,-4.44,4.29,-1.1441092,4
15,1991572246000,-3.91,7.97,-0.27240697,4
15,1991632304000,-4.99,2.91,-0.27240697,4
15,1991682262000,-1.8,4.4,-1.7297841,4
15,1991682262000,-1.8,4.4,-1.7297841,4
15,1991782237000,-2.6,13.1,6.4015636,4
15,1991832316000,-2.41,5.83,-0.9125633,4
15,1991832316000,-2.41,5.83,-0.9125633,4
15,1991892863000,-7.46,14.56,-2.6832085,4
15,1991942851000,-2.96,7.16,-0.9942854,4
15,1991992808000,-1.38,4.37,-0.50395286,4
15,1992042888000,-1.61,5.98,-0.53119355,4
15,1992092815000,-1.61,6.44,-1.9477097,4
15,1992142863000,-1.61,9.43,-3.3642259,4
15,1992192851000,-6.09,16.04,0.9942854,4
15,1992242900000,-8.43,15.6,6.4424243,4
15,1992292857000,-6.85,13.06,-0.3405087,4
15,1992342845000,-6.21,11.88,0.040861044,4
15,1992392833000,-4.99,9.43,-1.3075534,4
15,1992442882000,0.04,10.0,1.3756552,4
15,1992492778000,-3.34,7.74,1.8387469,4
15,1992542857000,-2.14,2.3,-1.4573772,4
15,1992592815000,-3.06,4.02,-0.3405087,4
15,1992642833000,-2.45,7.44,0.95342433,4
15,1992692821000,-3.87,4.37,-0.88532263,4
15,1992742839000,-0.23,5.05,-2.5333846,4
15,1992792796000,-4.37,17.67,-1.3756552,4
15,1992842815000,-4.18,14.71,1.334794,4
15,1992892802000,-2.41,3.3,-1.6480621,4
15,1992942851000,-9.49,12.98,-0.95342433,4
15,1992992778000,-7.25,12.6,-1.879608,4
15,1993042827000,-1.33,6.59,-0.53119355,4
15,1993092784000,0.15,5.43,-0.10896278,4
15,1993142863000,0.53,4.71,0.92618364,4
15,1993192821000,-2.03,6.97,0.50395286,4
15,1993242839000,-4.52,13.18,-2.7921712,4
15,1993292827000,-6.85,17.62,-1.920469,4
15,1993342815000,-11.3,14.9,6.5922484,4
15,1993392833000,-8.73,12.68,-0.7627395,4
15,1993442821000,-5.2,11.3,0.42223078,4
15,1993492778000,-6.02,8.47,-3.405087,4
15,1993542827000,-3.72,7.06,4.4810944,4
15,1993592845000,-2.22,6.44,-4.2904096,4
15,1993642894000,-4.79,1.12,-0.50395286,4
15,1993692790000,-3.15,3.21,1.4982382,4
15,1993742808000,-3.87,-0.19,-2.1383946,4
15,1993792827000,-4.25,5.83,-4.0588636,4
15,1993842815000,-14.86,19.57,-6.3198414,4
15,1993892802000,-1.46,9.47,6.742072,4
15,1993942821000,-2.87,14.14,-0.5720546,4
15,1993992778000,-4.21,9.47,-2.3426998,4
15,1994042857000,-1.33,4.82,-0.84446156,4
15,1994092784000,-0.61,2.91,-0.46309182,4
15,1994142833000,0.15,3.38,-2.2201166,4
15,1994192821000,-1.88,7.93,-5.053149,4
15,1994242808000,-6.21,14.79,-0.19068487,4
15,1994292827000,-11.11,18.31,6.3198414,4
15,1994342876000,-6.89,15.55,1.56634,4
15,1994392772000,-3.57,13.91,2.152015,4
15,1994442821000,-8.39,9.72,-4.7943625,4
15,1994492778000,-4.67,9.04,1.1168685,4
15,1994542827000,-3.3,9.96,0.5720546,4
15,1994592784000,-3.68,0.84,-0.5720546,4
15,1994642833000,-2.26,2.98,-1.525479,4
15,1994692790000,-4.21,2.91,-0.9125633,4
15,1994742808000,-5.37,1.5,-1.56634,4
15,1994792796000,-6.66,11.11,-7.3141265,4
15,1994842845000,-8.31,18.66,7.43671,4
15,1994892802000,-1.73,8.01,-1.0760075,4
15,1994942851000,-5.48,14.82,-1.7297841,4
15,1994992778000,-3.02,8.12,-1.2258313,4
15,1995042857000,-0.57,4.25,-0.7218784,4
15,1995092784000,-0.19,3.53,-0.42223078,4
15,1995142863000,-1.88,6.36,-0.6946377,4
15,1995192790000,-3.34,9.66,-2.3018389,4
15,1995243358000,-7.04,14.75,-3.8273177,4
15,1995292827000,-9.72,13.44,3.445948,4
15,1995343333000,-7.59,13.91,3.405087,4
15,1995392833000,-4.71,14.29,1.5390993,4
15,1995442882000,-5.56,11.41,-3.2961242,4
15,1995492778000,-5.28,10.04,1.6480621,4
15,1995542827000,-4.71,9.66,1.4982382,4
15,1995592784000,-4.48,1.88,-0.29964766,4
15,1995642833000,-1.08,2.96,-1.4573772,4
15,1995692790000,-5.33,2.96,-0.7218784,4
15,1995742900000,-4.37,0.89,-1.7570249,4
15,1995792796000,-1.95,1.76,-1.9885708,4
15,1995842815000,-17.77,19.5,-8.19945,4
15,1995892802000,-1.73,9.66,8.158588,4
15,1995942821000,-2.18,14.18,-0.5720546,4
15,1995992778000,-3.17,10.73,-2.3426998,4
15,1996042827000,-1.38,6.24,-1.4982382,4
15,1996092753000,-1.38,4.75,-1.4982382,4
15,1996142833000,-2.18,4.67,-2.3018389,4
15,1996192851000,-2.34,6.09,-1.9477097,4
15,1996242869000,-4.21,9.62,-4.2495484,4
15,1996292857000,-8.96,13.29,3.3778462,4
15,1996342784000,-7.65,11.99,2.4925237,4
15,1996392863000,-8.35,13.8,-0.9125633,4
15,1996442790000,-7.35,8.96,0.6537767,4
15,1996492839000,-3.91,8.5,0.10896278,4
15,1996542796000,-3.53,7.4,-1.4573772,4
15,1996592845000,-4.25,6.74,1.1441092,4
15,1996642802000,-5.41,5.94,0.5720546,4
15,1996692973000,-6.05,4.99,-1.7297841,4
15,1996743571000,-5.24,5.01,-0.50395286,4
15,1996792827000,-4.9,5.28,0.19068487,4
15,1996842815000,-3.95,6.47,-0.27240697,4
15,1996902293000,-6.85,15.85,2.3426998,4
15,1996952281000,-7.21,7.78,2.6014864,4
15,1997002299000,-2.79,5.71,-1.6480621,4
15,1997052287000,-3.6,9.19,-0.88532263,4
15,1997102306000,-3.83,9.34,-1.607201,4
15,1997152263000,-5.82,9.19,-2.2201166,4
15,1999062266000,-5.2,7.74,-1.2258313,0
15,1999112224000,-5.71,7.89,-1.1849703,0
15,1999162273000,-6.82,9.0,-1.3075534,0
15,1999212230000,-5.6,8.77,-1.4573772,0
15,1999262279000,-4.1,8.47,-0.95342433,0
15,1999312205000,-3.72,8.92,-1.0760075,0
15,1999362285000,-3.72,9.28,-1.7297841,0
15,1999412212000,-3.45,9.58,-1.7570249,0
15,1999462291000,-3.17,10.5,-1.0351465,0
15,1999512248000,-3.76,10.42,-0.5720546,0
15,1999562297000,-4.79,6.93,-3.9771416,0
15,1999612224000,-9.15,6.44,3.0645783,0
15,1999662547000,-9.47,6.82,0.9942854,0
15,1999712199000,-8.01,8.62,-1.607201,0
15,1999762309000,-5.94,9.28,-0.6537767,0
15,1999812205000,-2.64,9.92,-1.1168685,0
15,1999862315000,-1.69,8.16,-2.0294318,0
15,1999912212000,-3.3,10.04,3.718355,0
15,1999962291000,-5.41,7.21,1.6480621,0
15,2000012248000,-4.86,6.55,0.313268,0
15,2000062266000,-2.41,7.74,-0.3405087,0
15,2000112224000,-3.11,7.97,0.53119355,0
15,2000162303000,-1.76,10.8,0.27240697,0
15,2000212230000,0.69,12.03,1.9477097,0
15,2000262309000,-2.87,11.99,3.6774938,0
15,2000312236000,-7.01,11.18,7.3549876,0
15,2000362315000,-6.7,5.48,-1.6480621,0
15,2000412242000,-8.62,6.89,-4.903325,0
15,2000462291000,-10.34,7.5,-3.0645783,0
15,2000512248000,-5.86,5.98,-1.2258313,0
15,2000562297000,-5.56,8.92,0.19068487,0
15,2000612224000,-4.06,12.68,-0.7218784,0
15,2000662425000,-0.53,11.69,-0.29964766,0
15,2000712199000,-0.5,9.62,0.88532263,0
15,2000762309000,-3.49,9.38,-0.5720546,0
15,2000812205000,-4.48,8.77,0.42223078,0
15,2000862346000,-2.07,8.31,-0.42223078,0
15,2000912212000,-2.64,7.63,0.19068487,0
15,2000962260000,-5.05,9.72,0.19068487,0
15,2001012218000,-1.95,8.77,0.7218784,0
15,2001062266000,-0.08,7.82,4.7126403,0
15,2001112224000,-4.4,6.47,2.1111538,0
15,2001162273000,-4.75,7.31,-8.471856,0
15,2001212230000,-12.22,17.2,-1.9885708,0
15,2001262309000,-2.56,4.6,4.671779,0
15,2001312205000,0.8,0.15,-0.040861044,0
15,2001362285000,-1.53,9.58,2.3018389,0
15,2001412212000,-2.07,17.67,-1.1441092,0
15,2001462260000,0.69,9.23,5.6660647,0
15,2001512218000,-7.4,19.5,-2.6423476,0
15,2001562297000,-6.97,9.72,0.5720546,0
15,2001612254000,-6.93,8.05,-1.1441092,0
15,2001662242000,-4.44,6.97,-0.23154591,0
15,2001712199000,2.45,6.93,0.88532263,0
15,2001762309000,1.12,2.91,3.718355,0
15,2001812266000,-1.42,3.26,-5.407278,0
15,2001862315000,-2.07,3.6,-4.7126403,0
15,2001912242000,-8.77,17.43,1.7570249,0
15,2001962291000,-1.65,12.95,2.6423476,0
15,2002012248000,0.5,10.23,4.0588636,0
15,2002062266000,-2.37,6.89,2.9556155,0
15,2002112224000,-4.14,11.8,-3.255263,0
15,2002162273000,-8.2,18.58,-0.9942854,0
15,2002212230000,-4.18,9.77,1.4165162,0
15,2002262309000,-4.71,9.04,-0.7218784,0
15,2002312205000,-3.57,7.06,-1.56634,0
15,2002362285000,-1.42,7.06,-0.95342433,0
15,2002412212000,0.53,7.08,-1.8387469,0
15,2002462291000,2.11,6.28,0.84446156,0
15,2002512218000,1.57,5.94,4.3312707,0
15,2002562297000,-5.79,11.03,-1.879608,0
15,2002612224000,-11.33,16.02,-1.4573772,0
15,2002662273000,-5.94,3.83,3.445948,0
15,2002720378000,-2.83,8.28,0.53119355,0
15,2002772319000,0.38,15.6,-1.4573772,0
15,2002822307000,1.73,7.63,-0.29964766,0
15,2002872295000,0.53,15.83,-1.4982382,0
15,2002922252000,-8.88,16.09,2.1111538,0
15,2002972301000,-6.51,11.03,0.84446156,0
15,2003022288000,-6.36,8.39,-2.2609777,0
15,2003072307000,-4.18,4.75,-2.7921712,0
15,2003122203000,-0.8,6.02,-1.4573772,0
15,2003172282000,2.37,6.59,0.5720546,0
15,2003222240000,1.46,5.71,5.5162406,0
15,2003272288000,-5.48,7.93,-3.6774938,0
15,2003322215000,-8.24,14.75,-2.8738933,0
15,2003372295000,-5.82,8.66,3.8681788,0
15,2003422221000,-1.12,7.01,1.4165162,0
15,2003472301000,0.72,14.33,0.53119355,0
15,2003522258000,1.42,9.08,1.879608,0
15,2003572307000,-5.13,9.3,1.9885708,0
15,2003622264000,-8.43,18.5,-2.2201166,0
15,2003672404000,-5.09,11.3,-0.50395286,0
15,2003732158000,-5.52,7.21,1.0351465,0
15,2003782207000,2.15,6.66,-0.8036005,0
15,2003782207000,2.15,6.66,-0.8036005,0
15,2003882213000,-2.3,1.31,-6.0201936,0
15,2003932353000,-5.6,4.02,-0.27240697,0
15,2003932353000,-5.6,4.02,-0.27240697,0
15,2003992839000,-8.31,19.53,1.6889231,0
15,2004042857000,0.27,11.14,-1.0351465,0
15,2004092876000,3.3,9.04,5.706926,0
15,2004142863000,-5.63,16.4,-2.6832085,0
15,2004192851000,-7.16,14.56,0.10896278,0
15,2004242869000,-5.82,8.43,-0.42223078,0
15,2004292857000,-6.09,8.5,-1.4573772,0
15,2004342845000,0.57,6.05,-2.982856,0
15,2004392833000,0.38,-0.5,4.5628166,0
15,2004442912000,-3.3,1.57,-4.903325,0
15,2004492778000,-5.52,5.83,-2.2201166,0
15,2004542857000,-7.86,16.7,4.2086873,0
15,2004592815000,-0.72,11.96,0.7627395,0
15,2004642833000,2.64,7.25,2.7921712,0
15,2004692821000,-8.81,19.42,-7.014479,0
15,2004742839000,-5.67,10.84,4.5219555,0
15,2004792827000,0.19,4.63,-0.29964766,0
15,2004842876000,-2.37,3.11,-2.2609777,0
15,2004892802000,-0.42,-0.76,-1.3756552,0
15,2004942821000,-2.26,0.61,-3.0237172,0
15,2004992808000,-11.26,11.88,1.2666923,0
15,2005042888000,-3.95,18.35,12.571581,0
15,2005092784000,-3.64,7.35,5.7886477,0
15,2005142894000,-5.86,15.89,-12.299174,0
15,2005192821000,-9.72,15.24,2.2201166,0
15,2005244609000,-8.35,11.69,3.1463003,0
15,2005302287000,-5.82,8.73,-0.6946377,0
15,2005352275000,-0.5,4.06,-0.53119355,0
15,2005402293000,0.5,2.98,-0.50395286,0
15,2005452281000,-0.84,10.5,-1.2258313,0
15,2005502299000,-5.63,15.13,1.334794,0
15,2005552287000,-7.65,9.19,3.568531,0
15,2005602306000,-6.85,6.74,-0.88532263,0
15,2005652263000,-6.63,6.55,-3.214402,0
15,2005702312000,-4.86,8.77,-0.08172209,0
15,2005752269000,-3.34,9.0,0.14982383,0
15,2005802318000,-4.21,8.2,0.19068487,0
15,2005852275000,-2.96,13.63,4.140586,0
15,2005902293000,-4.56,6.82,-0.10896278,0
15,2005952312000,-5.82,6.44,-2.3699405,0
15,2006002299000,-6.4,10.08,-0.84446156,0
15,2006052287000,-2.53,8.77,1.0760075,0
15,2006102306000,-5.48,8.47,1.334794,0
15,2006152263000,-7.35,7.78,-0.6537767,0
15,2006202312000,-6.78,7.01,-1.4573772,0
15,2006252269000,-4.06,9.15,0.19068487,0
15,2006302318000,-3.11,9.23,-0.38136974,0
15,2006352275000,-3.21,9.15,-0.61291564,0
15,2006402293000,-6.17,8.24,0.040861044,0
15,2006452281000,-4.75,8.58,-0.08172209,0
15,2006502299000,-4.33,9.0,-0.42223078,0
15,2006552348000,-4.29,8.96,-1.0760075,0
15,2006602306000,-4.56,8.31,-1.334794,0
15,2007602336000,-2.91,10.38,-0.14982383,4
15,2007652263000,-4.29,9.28,0.46309182,4
15,2007702312000,-6.43,8.43,-1.0351465,4
15,2007752269000,-5.9,6.97,-1.920469,4
15,2007802318000,-4.67,7.5,-0.27240697,4
15,2007852275000,-3.76,8.77,5.366417,4
15,2007902293000,-4.71,7.4,1.6480621,4
15,2007952281000,-6.66,9.08,-2.4108016,4
15,2008002299000,-5.94,10.69,-3.5276701,4
15,2008052287000,-2.75,9.96,1.4573772,4
15,2008102275000,-0.53,8.96,-2.982856,4
15,2008152232000,-3.06,9.77,-2.982856,4
15,2008202312000,-3.79,8.01,-4.099725,4
15,2008252269000,-9.3,8.47,0.6946377,4
15,2008302318000,-3.36,9.15,-2.4516625,4
15,2008352275000,-1.76,9.23,-3.405087,4
15,2008402293000,-2.91,8.89,-2.6014864,4
15,2008452281000,-5.18,9.58,0.040861044,4
15,2008502269000,-2.91,11.3,1.3075534,4
15,2008552318000,-4.25,12.07,-1.607201,4
15,2008602275000,-10.69,12.98,2.982856,4
15,2008652293000,-8.96,9.81,0.42223078,4
15,2008702281000,1.18,16.17,3.718355,4
15,2008756877000,-4.4,8.85,1.1849703,4
15,2008812205000,-2.3,8.2,0.040861044,4
15,2008862285000,-1.46,4.33,0.88532263,4
15,2008912334000,2.15,-0.42,-0.50395286,4
15,2008962230000,4.25,2.34,0.61291564,4
15,2009012248000,-12.64,19.04,5.47538,4
15,2009062205000,0.23,5.41,2.5333846,4
15,2009112315000,-8.27,9.92,-1.9885708,4
15,2009162212000,-10.34,12.95,-1.2666923,4
15,2009212291000,-8.39,19.57,-2.0294318,4
15,2009262218000,0.76,16.02,-1.920469,4
15,2009312297000,2.45,8.81,5.407278,4
15,2009362224000,4.71,3.83,-0.6537767,4
15,2009412273000,3.91,3.26,0.8036005,4
15,2009462199000,0.57,6.97,-0.95342433,4
15,2009512309000,-16.04,19.57,-3.636633,4
15,2009562236000,-9.72,11.22,0.6537767,4
15,2009612285000,-7.59,1.57,3.5957718,4
15,2009662212000,-2.41,0.8,-0.7627395,4
15,2009773357000,-1.18,4.4,-3.0237172,4
15,2009773357000,-1.18,4.4,-3.0237172,4
15,2009822185000,-16.24,19.31,1.0351465,4
15,2009872295000,-6.7,12.45,-1.920469,4
15,2009922221000,-4.21,7.16,0.5720546,4
15,2009972331000,-3.06,5.67,0.14982383,4
15,2010032268000,-1.18,4.56,0.19068487,4
15,2010082255000,0.15,7.16,-2.1111538,4
15,2010132304000,-2.98,13.53,-2.2201166,4
15,2010182231000,-8.35,18.09,9.193735,4
15,2010232249000,-7.65,14.98,1.9477097,4
15,2010282207000,-7.82,12.64,-0.040861044,4
15,2010332286000,-9.0,9.58,1.4573772,4
15,2010382213000,-6.4,6.09,1.3075534,4
15,2010432262000,1.23,2.56,-1.1849703,4
15,2010482219000,-2.45,0.72,-0.46309182,4
15,2010532268000,-2.6,5.63,-0.84446156,4
15,2010582225000,-6.36,4.48,-0.53119355,4
15,2010632274000,-3.49,4.99,-3.486809,4
15,2010682231000,-7.4,19.0,0.27240697,4
15,2010732249000,-1.57,12.18,1.334794,4
15,2010782207000,-5.2,9.3,-1.2258313,4
15,2010832286000,-8.01,13.06,-1.920469,4
15,2010882213000,-2.34,5.41,-0.46309182,4
15,2010932231000,0.11,2.26,-0.0,4
15,2010982280000,0.69,2.3,-1.4573772,4
15,2011032268000,0.5,5.94,-0.23154591,4
15,2011082255000,-4.79,13.95,-1.7297841,4
15,2011132274000,-11.8,18.12,0.5720546,4
15,2011182231000,-6.93,12.53,1.56634,4
15,2011232280000,-4.33,14.86,2.3699405,4
15,2011282207000,-9.04,11.99,1.7570249,4
15,2011332286000,-6.21,11.37,0.84446156,4
15,2011382243000,-5.94,9.51,1.5390993,4
15,2011432262000,-5.41,6.13,3.718355,4
15,2011482219000,-2.11,2.45,-2.4516625,4
15,2011532268000,-0.8,3.72,-1.4982382,4
15,2011582225000,-3.26,7.44,0.9942854,4
15,2011632243000,-5.24,1.23,-0.9942854,4
15,2011682231000,0.31,1.38,-1.3075534,4
15,2011732249000,-7.7,18.12,-5.202973,4
15,2011782298000,-3.57,13.14,4.3312707,4
15,2011832286000,-3.15,6.85,-1.7978859,4
15,2011882213000,-8.47,18.31,-0.9942854,4
15,2011932262000,-3.3,7.67,0.7627395,4
15,2011982219000,-1.23,4.48,0.23154591,4
15,2012032237000,0.19,3.53,-0.19068487,4
15,2012082225000,0.0,4.29,-1.334794,4
15,2012132274000,-0.91,8.28,-2.6014864,4
15,2012182231000,-5.18,15.98,-3.486809,4
15,2012232280000,-14.86,19.27,10.800936,4
15,2012282237000,-10.57,13.48,-0.7627395,4
15,2012332286000,-5.71,12.57,2.1111538,4
15,2012382243000,-4.9,8.31,-5.7477865,4
15,2012432353000,-2.91,7.55,6.891896,4
15,2012482249000,-2.03,6.66,-2.2201166,4
15,2012532268000,-2.91,-0.11,-0.5720546,4
15,2012582286000,-1.23,5.09,0.23154591,4
15,2012632274000,-4.9,4.48,0.08172209,4
15,2012682231000,-5.33,3.15,-2.982856,4
15,2012732249000,-3.17,10.8,-2.4108016,4
15,2012782237000,-10.88,19.57,0.8036005,4
15,2012832286000,-0.99,7.08,1.4165162,4
15,2012882213000,-3.06,8.58,-1.4573772,4
15,2012932262000,-6.63,13.21,-2.1792557,4
15,2012982219000,-1.38,4.9,-0.3405087,4
15,2013032268000,-0.23,2.96,-0.27240697,4
15,2013082225000,-1.61,5.09,-0.7218784,4
15,2013132243000,-3.45,9.15,-0.53119355,4
15,2013182292000,-5.6,15.47,-3.0645783,4
15,2013232280000,-8.31,14.29,2.1111538,4
15,2013282237000,-9.34,14.25,3.9090397,4
15,2013332286000,-5.48,13.95,0.8036005,4
15,2013382213000,-6.4,11.96,0.19068487,4
15,2013432262000,-6.09,6.97,-1.7978859,4
15,2013482219000,-4.29,7.59,5.7477865,4
15,2013532268000,-1.69,3.91,-3.7864566,4
15,2013582225000,-2.49,3.17,-0.9942854,4
15,2013632274000,-2.34,5.09,1.3756552,4
15,2013682262000,-2.83,0.8,-0.9125633,4
15,2013732249000,-0.65,3.49,-3.3642259,4
15,2013782237000,-5.52,17.54,-1.2258313,4
15,2013832286000,-5.24,15.36,3.0645783,4
15,2013882274000,-1.14,3.06,-1.9885708,4
15,2013932231000,-7.93,15.21,-1.4982382,4
15,2013982249000,-4.44,8.77,-1.1849703,4
15,2014032268000,-0.53,2.96,0.95342433,4
15,2014082225000,-2.18,4.63,0.42223078,4
15,2014132274000,-3.53,7.78,-0.10896278,4
15,2014182231000,-4.99,10.46,-0.50395286,4
15,2014232280000,-4.48,11.69,-4.3312707,4
15,2014282237000,-6.28,11.45,0.6946377,4
15,2014332316000,-7.74,12.22,2.7649305,4
15,2014382213000,-8.12,13.44,2.3018389,4
15,2014432262000,-8.08,12.49,1.9885708,4
15,2014482219000,-7.74,8.77,-3.636633,4
15,2014532268000,-2.41,8.47,2.5606253,4
15,2014582255000,-3.53,9.3,2.4925237,4
15,2014632274000,-3.41,3.38,-2.4108016,4
15,2014682231000,-1.57,5.09,-1.0760075,4
15,2014732249000,-4.33,3.87,0.84446156,4
15,2014732249000,-4.33,3.87,0.84446156,4
15,2014802318000,-3.79,0.46,-2.1111538,4
15,2014852397000,-3.87,13.76,-10.18802,4
15,2014902385000,-7.12,16.97,10.337844,4
15,2014962230000,-1.53,5.01,-2.070293,4
15,2015012248000,-6.63,15.21,-2.2609777,4
15,2015062266000,-3.17,8.89,-0.9942854,4
15,2015112224000,-1.8,5.52,-0.38136974,4
15,2015162273000,-2.68,5.63,-0.23154591,4
15,2015212199000,-2.56,5.9,-0.14982383,4
15,2015262279000,-3.72,7.63,-0.29964766,4
15,2015312205000,-2.87,10.61,-2.5333846,4
15,2015362285000,-4.52,12.26,-1.1168685,4
15,2015412212000,-7.89,12.72,4.099725,4
15,2015462321000,-8.77,13.02,2.5606253,4
15,2015512248000,-6.97,9.19,-2.1111538,4
15,2015562297000,-4.14,7.89,-0.9125633,4
15,2015612224000,-5.13,7.35,-0.8036005,4
15,2015662303000,-6.43,5.94,0.9942854,4
15,2015712230000,-5.86,5.05,-0.14982383,4
15,2015712230000,-5.86,5.05,-0.14982383,4
15,2015812297000,-3.72,4.37,0.08172209,4
15,2015862285000,-4.1,4.67,-0.61291564,4
15,2015912242000,-4.44,9.28,2.3699405,4
15,2015962230000,-10.76,17.01,0.040861044,4
15,2016012248000,-4.99,3.87,1.3756552,4
15,2016062205000,-1.08,4.94,-0.61291564,4
15,2016112315000,-4.94,11.96,-2.0294318,4
15,2016162212000,-2.91,9.23,-1.4165162,4
15,2016212291000,-6.47,7.74,3.173541,4
15,2016262218000,-6.78,8.77,1.2666923,4
15,2016312297000,-4.52,8.16,-1.2666923,4
15,2016362254000,-4.33,8.39,-1.7570249,4
15,2016412273000,-5.2,8.2,-1.7570249,4
15,2016462230000,-6.63,8.01,0.23154591,4
15,2016512309000,-4.75,8.47,0.27240697,4
15,2017112346000,-4.63,9.11,1.2258313,0
15,2017162212000,-5.28,8.43,-1.1441092,0
15,2017212291000,-5.43,8.39,-1.0351465,0
15,2017262248000,-6.97,8.85,-3.336985,0
15,2017312297000,-8.01,6.82,-0.61291564,0
15,2017362224000,-8.88,7.67,4.1814466,0
15,2017412303000,-5.86,7.06,-1.6889231,0
15,2017462230000,-7.25,7.12,1.1168685,0
15,2017512279000,-4.59,9.81,-1.525479,0
15,2017562205000,-2.75,8.43,-1.7297841,0
15,2017612315000,-2.79,9.15,-2.2201166,0
15,2017662212000,-2.11,8.85,-0.9125633,0
15,2017712291000,-4.14,8.01,1.6889231,0
15,2017762248000,-3.34,9.08,0.27240697,0
15,2017812297000,-2.53,11.22,-1.2666923,0
15,2017862224000,-1.61,14.67,0.6537767,0
15,2017912273000,-5.01,8.58,14.09706,0
15,2017962199000,-6.32,4.79,-2.7921712,0
15,2018012279000,-6.43,7.7,-3.0237172,0
15,2018062236000,-7.44,12.18,-2.4516625,0
15,2018112315000,-3.36,7.93,-1.6889231,0
15,2018162212000,-4.02,8.96,-1.879608,0
15,2018212291000,-4.25,8.85,-1.1168685,0
15,2018262279000,-0.23,11.22,4.7535014,0
15,2018312327000,-0.5,8.35,1.607201,0
15,2018362224000,2.34,8.81,-1.56634,0
15,2018412303000,-6.63,18.5,5.134871,0
15,2018462230000,-6.4,11.41,4.2495484,0
15,2018512309000,-4.9,8.16,0.6537767,0
15,2018562205000,-5.2,8.01,0.27240697,0
15,2018612285000,-0.27,6.63,1.2258313,0
15,2018662212000,-2.34,5.48,-1.0760075,0
15,2018712291000,-1.14,8.58,-0.7218784,0
15,2018762218000,1.33,11.3,7.8180795,0
15,2018812266000,-0.69,8.62,1.7297841,0
15,2018862224000,-0.72,4.86,0.10896278,0
15,2018912303000,-2.3,7.01,4.0588636,0
15,2018962199000,-0.84,6.32,3.445948,0
15,2019012309000,-3.98,4.75,-0.50395286,0
15,2019062205000,-4.18,13.76,-2.9556155,0
15,2019112285000,-13.78,18.28,4.5219555,0
15,2019162212000,-3.02,6.28,-3.2961242,0
15,2019212291000,-7.35,11.07,-2.2201166,0
15,2019262248000,-2.91,7.27,-0.5720546,0
15,2019312266000,-1.27,8.92,6.0474343,0
15,2019362224000,-1.84,7.16,0.6946377,0
15,2019412273000,-0.27,9.3,-0.10896278,0
15,2019462199000,-0.15,7.67,2.7240696,0
15,2019512279000,-1.42,9.72,-2.1383946,0
15,2019562205000,0.42,10.08,1.6480621,0
15,2019612315000,-4.71,6.66,7.1234417,0
15,2019662242000,-2.11,6.24,-5.012288,0
15,2019712291000,-8.5,15.17,-4.099725,0
15,2019762218000,-4.33,7.67,2.5606253,0
15,2019812297000,-1.99,1.31,-0.040861044,0
15,2019862224000,-1.57,6.05,-0.27240697,0
15,2019912273000,-1.46,19.0,2.8330324,0
15,2019962199000,1.14,7.59,-0.42223078,0
15,2020012248000,2.15,10.5,0.7627395,0
15,2020062236000,-13.82,19.53,3.1463003,0
15,2020112315000,-7.12,9.77,-0.9125633,0
15,2020162212000,-5.75,8.28,-1.4165162,0
15,2020212291000,-4.06,5.79,-1.8387469,0
15,2020262248000,-1.04,5.43,-2.070293,0
15,2020312266000,0.76,7.89,-1.56634,0
15,2020362224000,1.23,8.85,0.040861044,0
15,2020412273000,2.41,5.98,1.56634,0
15,2020462199000,-1.84,11.54,-0.7218784,0
15,2020512340000,-12.91,19.11,-2.1383946,0
15,2020562236000,-7.12,4.52,2.982856,0
15,2020612315000,-3.91,6.74,0.53119355,0
15,2020662669000,-2.91,12.87,-0.9942854,0
15,2020712260000,0.69,13.1,1.920469,0
15,2020762218000,0.84,2.68,0.040861044,0
15,2020812266000,-1.76,6.82,-0.19068487,0
15,2020872325000,-8.54,18.73,-3.255263,0
15,2020922221000,-7.5,13.33,-0.9942854,0
15,2020972331000,-4.99,6.24,-0.42223078,0
15,2021032237000,-3.98,6.28,1.3075534,0
15,2021032237000,-3.98,6.28,1.3075534,0
15,2021093028000,1.23,6.82,-0.7218784,0
15,2021162273000,0.69,5.86,-1.0351465,0
15,2021212230000,-3.83,7.82,-2.4516625,0
15,2021262279000,-10.61,17.73,-1.4573772,0
15,2021312236000,-3.72,5.37,4.5219555,0
15,2021362346000,-4.79,9.08,1.4573772,0
15,2021422282000,1.12,14.21,1.1441092,0
15,2021472240000,0.89,4.21,0.040861044,0
15,2021522288000,-0.38,11.88,-2.5333846,0
15,2021572276000,-10.11,19.34,-1.4165162,0
15,2021622325000,-6.47,8.96,0.6946377,0
15,2021672282000,-5.05,6.17,0.38136974,0
15,2021722301000,-1.23,8.16,0.10896278,0
15,2021772227000,2.45,3.91,-4.9850473,0
15,2021832347000,-2.72,3.26,-4.9850473,0
15,2021882274000,-5.05,6.32,-3.0645783,0
15,2021882274000,-5.05,6.32,-3.0645783,0
15,2021982249000,-0.27,8.5,1.3756552,0
15,2022032268000,0.34,8.77,-0.5720546,0
15,2022032268000,0.34,8.77,-0.5720546,0
15,2022092845000,-1.61,10.42,0.6537767,0
15,2022142833000,-6.97,19.57,-2.2201166,0
15,2022192821000,-6.05,10.57,0.92618364,0
15,2022242900000,-6.63,9.7,-1.4982382,0
15,2022292857000,-1.95,7.27,-0.61291564,0
15,2022342876000,4.6,1.84,2.7649305,0
15,2022392863000,-0.69,2.41,-1.3075534,0
15,2022442882000,-2.26,2.68,-4.0180025,0
15,2022492839000,-10.0,15.47,0.92618364,0
15,2022542857000,-4.02,12.22,1.920469,0
15,2022592815000,-1.33,6.28,1.6889231,0
15,2022642863000,1.42,9.85,0.38136974,0
15,2022692790000,-3.06,16.21,-0.95342433,0
15,2022742869000,-7.93,15.4,0.3405087,0
15,2022793315000,-5.79,8.62,0.3405087,0
15,2022842815000,-5.71,8.73,-1.4165162,0
15,2022892802000,-0.61,6.13,-2.3699405,0
15,2022942851000,2.79,1.54,7.5865335,0
15,2022992808000,-2.6,3.99,-2.0294318,0
15,2023042857000,-4.18,7.74,-6.2789803,0
15,2023092815000,-9.49,18.39,0.9942854,0
15,2023142833000,-3.34,8.39,5.6660647,0
15,2023192790000,-0.95,10.61,-0.6537767,0
15,2023242808000,1.73,9.11,1.9885708,0
15,2023292796000,-1.27,10.57,-1.8387469,0
15,2023342815000,-12.26,19.27,-1.6889231,0
15,2023392802000,-5.01,9.58,1.1849703,0
15,2023442851000,-2.79,4.37,-1.1168685,0
15,2023492778000,-2.68,2.72,-1.1441092,0
15,2023542857000,-1.38,3.68,-0.61291564,0
15,2023592784000,-1.57,6.28,-1.0351465,0
15,2023642833000,-0.65,8.2,-1.56634,0
15,2023692760000,0.5,8.31,0.95342433,0
15,2023742839000,-10.11,18.12,1.1168685,0
15,2023792827000,-15.36,16.7,-2.6423476,0
15,2023842876000,-5.2,5.9,4.6036777,0
15,2023892833000,-4.99,6.7,0.19068487,0
15,2023942821000,0.23,0.72,3.636633,0
15,2023992778000,-1.88,7.12,-2.6423476,0
15,2024042827000,-5.98,12.45,-1.4982382,0
15,2024092815000,-6.05,11.37,-1.7978859,0
15,2024142863000,-2.87,4.25,0.46309182,0
15,2024192882000,-7.04,10.92,2.6014864,0
15,2024242839000,-4.67,9.23,-0.53119355,0
15,2024292796000,-2.72,8.58,-1.3756552,0
15,2024342845000,-4.48,8.66,-1.7978859,0
15,2024392802000,-6.32,8.05,-2.1111538,0
15,2024442821000,-5.9,8.05,-0.10896278,0
15,2024492778000,-4.18,9.23,1.0351465,0
15,2024542827000,-4.1,8.77,-0.61291564,0
15,2024592784000,-5.2,8.43,-1.6480621,0
15,2026492778000,-4.56,6.55,1.9885708,4
15,2026544078000,-5.71,10.0,1.607201,4
15,2026592815000,-7.82,9.23,-3.6774938,4
15,2026642802000,-6.55,9.19,0.7627395,4
15,2026692821000,0.34,10.8,0.040861044,4
15,2026742778000,0.72,11.07,-1.2258313,4
15,2026792857000,-2.07,9.72,-2.5606253,4
15,2026842754000,-4.75,9.72,-5.325556,4
15,2026892985000,-5.82,8.85,-4.0180025,4
15,2026943462000,-5.37,7.7,-2.3018389,4
15,2026992900000,-5.63,9.11,-1.607201,4
15,2027042827000,-4.63,9.7,-1.2258313,4
15,2027102306000,-1.42,10.92,4.2495484,4
15,2027152263000,-6.24,12.18,-0.88532263,4
15,2027202312000,-2.91,16.21,-2.4108016,4
15,2027252269000,-11.14,13.33,-2.7240696,4
15,2027302318000,-6.24,10.27,3.9090397,4
15,2027352275000,-4.79,11.03,1.7297841,4
15,2027402293000,-6.21,9.62,0.313268,4
15,2027452281000,-2.56,5.41,1.4165162,4
15,2027502269000,1.12,-0.23,0.08172209,4
15,2027502269000,1.12,-0.23,0.08172209,4
15,2027502269000,1.12,-0.23,0.08172209,4
15,2027502269000,1.12,-0.23,0.08172209,4
15,2027502269000,1.12,-0.23,0.08172209,4
15,2027502269000,1.12,-0.23,0.08172209,4
15,0,0.0,0.0,0.0,4
15,2027882182000,3.45,6.36,2.3699405,4
15,2027932292000,2.37,5.43,-0.29964766,4
15,2027982249000,-0.08,5.9,0.61291564,4
15,2028032268000,-5.33,14.79,-4.903325,4
15,2028082316000,-12.68,16.36,3.1054392,4
15,2028132243000,-11.5,15.4,3.8681788,4
15,2028182292000,-8.16,13.53,1.879608,4
15,2028232219000,-6.47,8.92,-3.568531,4
15,2028282268000,-2.37,5.83,3.7864566,4
15,2028332255000,-2.49,9.92,-0.53119355,4
15,2028382335000,-4.79,1.18,0.08172209,4
15,2028432231000,-2.49,3.02,-1.6480621,4
15,2028482280000,-5.37,2.96,1.3756552,4
15,2028532207000,-3.87,0.46,-2.7921712,4
15,2028582286000,-6.85,10.95,-6.66035,4
15,2028632213000,-11.18,18.62,2.3018389,4
15,2028682262000,-2.87,9.7,1.5390993,4
15,2028732219000,-4.67,15.4,-2.2201166,4
15,2028782237000,-2.79,6.74,-1.3075534,4
15,2028832255000,-1.23,3.11,0.08172209,4
15,2028882274000,-0.3,2.26,-0.29964766,4
15,2028932292000,-0.8,3.99,-0.10896278,4
15,2028982310000,-1.57,11.14,-3.5957718,4
15,2029032237000,-6.13,18.7,-2.070293,4
15,2029082316000,-8.39,17.35,13.402422,4
15,2029132274000,-2.41,14.52,-2.8738933,4
15,2029182262000,-6.21,14.21,-4.099725,4
15,2029232219000,-10.15,14.21,2.070293,4
15,2029282268000,-7.74,14.14,-0.7627395,4
15,2029332225000,-6.66,3.79,-1.525479,4
15,2029382274000,-4.06,-0.76,0.53119355,4
15,2029432231000,-1.33,-1.53,-0.14982383,4
15,2029482310000,0.42,-2.37,1.3075534,4
15,2029532268000,-1.23,2.3,-1.56634,4
15,2029582286000,-17.05,19.15,-2.1111538,4
15,2029632243000,-8.43,17.43,-0.88532263,4
15,2029682292000,-6.05,15.28,1.2666923,4
15,2029732249000,-8.54,14.41,1.6889231,4
15,2029782237000,-3.21,8.58,1.9477097,4
15,2029832225000,1.12,5.18,0.08172209,4
15,2029882274000,2.41,4.52,-0.040861044,4
15,2029932139000,0.08,9.38,-1.1849703,4
15,2029982127000,-13.63,19.19,1.879608,4
15,2030032207000,-11.14,9.34,5.09401,4
15,2030082591000,-0.46,4.9,-1.6889231,4
15,2030132274000,-3.45,0.65,-0.38136974,4
15,2030182323000,-1.8,1.69,-1.334794,4
15,2030243236000,-4.86,5.05,-0.95342433,4
15,2030292338000,-5.37,5.56,-2.2201166,4
15,2030342265000,-9.34,14.86,-3.9090397,4
15,2030392253000,-7.04,16.63,2.070293,4
15,2030442271000,-4.33,5.83,2.6832085,4
15,2030492198000,-6.85,11.73,-2.3699405,4
15,2030542277000,-2.3,7.31,-2.4516625,4
15,2030592204000,-0.15,3.45,-0.8036005,4
15,2030642314000,0.31,1.92,-1.1441092,4
15,2030692210000,-0.23,5.63,-1.4573772,4
15,2030742259000,-4.21,13.06,-2.070293,4
15,2030792247000,-8.85,18.58,0.14982383,4
15,2030842296000,-13.4,15.89,8.689782,4
15,2030892222000,-5.24,12.91,-1.2258313,4
15,2030942271000,-4.82,11.84,-0.27240697,4
15,2030992229000,-6.17,9.19,-1.9885708,4
15,2031042308000,-5.6,7.25,5.012288,4
15,2031092265000,-3.36,4.18,-2.9147544,4
15,2031142284000,-2.11,0.8,-0.95342433,4
15,2031192271000,-3.49,6.59,-0.9125633,4
15,2031242259000,-6.59,3.83,-0.7627395,4
15,2031292277000,-0.53,3.02,-2.7240696,4
15,2031342265000,-12.6,18.77,-3.9499009,4
15,2031392253000,-3.36,11.18,4.099725,4
15,2031442271000,-5.6,12.64,0.88532263,4
15,2031492198000,-6.02,10.12,-2.2201166,4
15,2031542277000,-1.65,4.71,-0.9942854,4
15,2031592204000,-0.69,3.11,-0.7627395,4
15,2031642284000,-1.08,4.4,-1.6480621,4
15,2031692210000,-2.49,8.35,-1.3075534,4
15,2031742259000,-4.56,15.4,-2.7921712,4
15,2031792277000,-9.47,15.79,4.6036777,4
15,2031842296000,-9.0,15.24,4.2904096,4
15,2031892222000,-6.05,12.45,-2.5606253,4
15,2031942271000,-4.63,10.92,-1.3075534,4
15,2031992198000,-5.13,10.04,2.2609777,4
15,2032042277000,-6.09,3.72,0.9942854,4
15,2032092204000,-1.84,1.14,-1.9885708,4
15,2032142284000,-2.34,5.33,0.19068487,4
15,2032192210000,-4.37,5.01,-1.2258313,4
15,2032242259000,-5.98,2.96,-1.7978859,4
15,2032292216000,-1.99,8.69,-4.630918,4
15,2032342265000,-8.12,19.57,1.879608,4
15,2032392253000,-1.23,7.44,0.88532263,4
15,2032442332000,-6.09,10.84,-1.4573772,4
15,2032492290000,-7.74,10.69,-2.0294318,4
15,2032542308000,-2.26,5.75,-0.46309182,4
15,2032592235000,-0.72,4.48,-0.19068487,4
15,2032642284000,-0.19,4.75,-0.53119355,4
15,2032692241000,-3.17,6.24,0.10896278,4
15,2032692241000,-3.17,6.24,0.10896278,4
15,2032762309000,-6.05,14.37,-2.982856,4
15,2032812389000,-9.3,14.14,4.140586,4
15,2032862346000,-6.82,14.25,3.405087,4
15,2032862346000,-6.82,14.25,3.405087,4
15,2032972301000,-4.75,8.81,-2.7240696,4
15,2033022288000,-6.21,10.08,1.6480621,4
15,2033072246000,-5.18,6.24,4.399372,4
15,2033122233000,-4.63,0.84,-4.7126403,4
15,2033172282000,-2.79,6.89,2.4108016,4
15,2033222301000,-6.13,5.28,-0.61291564,4
15,2033272227000,-5.48,0.89,-0.6537767,4
15,2033322246000,-2.14,3.91,-2.6014864,4
15,2033372295000,-7.93,18.5,-9.275456,4
15,2033422252000,-2.26,11.3,8.471856,4
15,2033472331000,-2.22,10.12,-1.3075534,4
15,2033522227000,-6.93,13.1,-1.6889231,4
15,2033572307000,-2.6,6.51,-0.7627395,4
15,2033622264000,-1.84,4.79,-1.2666923,4
15,2033672313000,-2.34,4.94,-1.1441092,4
15,2033722270000,-3.36,5.9,-0.42223078,4
15,2033772288000,-5.41,8.77,1.1441092,4
15,2033822307000,-5.48,11.99,-1.1441092,4
15,2033872295000,-5.13,9.81,-0.61291564,4
15,2033922252000,-6.59,10.19,-0.46309182,4
15,2033972331000,-9.19,13.8,-0.9125633,4
15,2034022227000,-10.15,8.69,2.7921712,4
15,2034072337000,-4.44,9.19,1.1168685,4
15,2034122233000,-4.94,7.4,-2.3426998,4
15,2034172313000,-2.91,5.83,-1.6480621,4
15,2034222514000,-3.6,7.06,3.5276701,4
15,2034272288000,-6.55,4.67,-1.2666923,4
15,2034322246000,-5.28,3.64,-0.6946377,4
15,2034372264000,-4.59,4.75,0.53119355,4
15,2034422252000,-3.68,6.47,0.14982383,4
15,2034472270000,-8.08,17.47,1.7978859,4
15,2034522227000,-7.44,7.44,3.486809,4
15,2034572307000,-2.6,4.75,-1.3075534,4
15,2034622233000,-4.48,9.34,-1.4573772,4
15,2034672343000,-4.25,9.04,-2.1111538,4
15,2034722270000,-5.52,8.16,-1.7570249,4
15,2034772258000,-7.65,7.78,3.486809,4
15,2034822246000,-5.2,8.96,1.0760075,4
15,2034872264000,-3.79,9.0,-1.2666923,4
15,2034922252000,-4.59,8.47,-2.4516625,4
15,2034972331000,-5.71,8.01,-1.8387469,4
15,2035022319000,-6.43,8.31,0.95342433,4
15,2035072368000,-5.2,8.28,0.95342433,4
15,2035122417000,-5.01,8.12,-1.3756552,4
15,2035182353000,-5.37,8.16,-1.920469,4
15,2035242351000,-4.94,8.43,-0.88532263,4
15,2035302257000,-5.67,8.28,0.10896278,4
15,2035352214000,-5.48,8.2,-0.42223078,4
15,2035402232000,-4.94,8.31,-1.2666923,0
15,2036002269000,-3.64,8.28,-2.2609777,0
15,2036052257000,-5.05,8.89,-0.9125633,0
15,2036102275000,-4.79,9.19,3.1054392,0
15,2036152232000,-5.18,8.39,-2.1111538,0
15,2036202281000,-5.75,8.47,-2.9147544,0
15,2036252208000,-5.86,9.15,-1.7978859,0
15,2036302287000,-3.34,11.84,1.4982382,0
15,2036352214000,-4.21,10.19,5.7477865,0
15,2036402263000,-5.01,6.17,4.099725,0
15,2036452251000,-2.41,8.54,-2.1383946,0
15,2036502238000,1.65,11.3,2.4516625,0
15,2036552226000,-3.49,9.28,2.6423476,0
15,2036602275000,-4.9,8.28,1.7978859,0
15,2036652202000,-3.21,8.54,2.7649305,0
15,2036702281000,-3.34,8.39,1.56634,0
15,2036752238000,-3.57,6.89,0.7218784,0
15,2036802257000,-2.49,7.89,-0.040861044,0
15,2036852244000,-3.02,9.23,0.92618364,0
15,2036902232000,-1.88,10.34,-0.3405087,0
15,2036952220000,-2.96,14.9,-5.325556,0
15,2037002269000,-9.77,8.96,10.651112,0
15,2037052257000,-5.48,4.99,1.3756552,0
15,2037102275000,-7.78,10.12,-4.3312707,0
15,2037152904000,-5.37,8.73,-3.405087,0
15,2037202251000,-3.76,8.47,-2.4108016,0
15,2037252269000,-3.72,10.12,-1.0760075,0
15,2037302226000,-2.34,11.88,-0.88532263,0
15,2037352244000,1.42,11.5,6.4424243,0
15,2037402232000,-3.21,8.58,3.9499009,0
15,2037452281000,-5.48,10.65,-1.7978859,0
15,2037502238000,-8.81,13.14,2.6832085,0
15,2037552287000,-5.33,8.12,1.2258313,0
15,2037602244000,-3.79,7.16,-1.0760075,0
15,2037652263000,-3.3,7.25,0.27240697,0
15,2037702220000,-3.34,5.79,0.08172209,0
15,2037752269000,-1.92,8.96,0.88532263,0
15,2037802257000,-1.23,12.15,2.2609777,0
15,2037852275000,-4.86,9.72,0.6537767,0
15,2037902232000,-6.55,9.38,0.19068487,0
15,2037952312000,-4.37,6.7,-0.08172209,0
15,2037952312000,-4.37,6.7,-0.08172209,0
15,2038011272000,-5.09,9.04,-1.6889231,0
15,2038062358000,-3.6,8.62,-1.0760075,0
15,2038112285000,-3.83,9.58,-0.7627395,0
15,2038162303000,-2.56,8.47,0.6946377,0
15,2038212260000,-3.45,8.28,1.607201,0
15,2038262309000,-2.34,8.62,1.2258313,0
15,2038312327000,-1.65,8.69,0.50395286,0
15,2038362285000,0.23,8.62,1.7570249,0
15,2038412273000,-0.99,6.63,4.4810944,0
15,2038462291000,-4.48,5.13,-4.0180025,0
15,2038512309000,-8.96,14.71,-7.3141265,0
15,2038562297000,-5.52,10.53,8.580819,0
15,2038612285000,-0.76,0.93,-0.95342433,0
15,2038662303000,-3.36,9.51,2.070293,0
15,2038712260000,-0.34,15.09,2.2609777,0
15,2038762462000,0.04,2.64,2.7921712,0
15,2038812266000,-4.37,13.72,-0.95342433,0
15,2038862468000,-10.15,18.16,-0.46309182,0
15,2038912273000,-5.09,8.28,0.42223078,0
15,2038962413000,-6.05,7.12,-0.9942854,0
15,2039012279000,-5.05,7.16,-0.8036005,0
15,2039062358000,1.04,4.06,-7.3549876,0
15,2039172282000,-2.68,4.06,-7.3549876,0
15,2039172282000,-2.68,4.06,-7.3549876,0
15,2039222362000,-3.53,4.18,-3.0645783,0
15,2039272380000,-7.08,17.08,5.2165933,0
15,2039322246000,-1.31,9.3,-0.46309182,0
15,2039372356000,1.8,11.96,4.372132,0
15,2039432262000,-2.79,12.37,-0.6946377,0
15,2039482249000,-13.06,17.39,1.9885708,0
15,2039532298000,-5.52,8.08,-0.61291564,0
15,2039582225000,-3.6,9.34,-2.070293,0
15,2039632274000,1.69,3.11,3.1463003,0
15,2039682201000,-1.12,1.42,-1.7570249,0
15,2039732463000,-1.18,2.15,-5.6252036,0
15,2039782207000,-6.36,7.97,-1.9477097,0
15,2039832316000,-6.82,18.01,4.4810944,0
15,2039882213000,-0.53,11.18,4.1814466,0
15,2039932262000,-1.53,7.63,4.6036777,0
15,2039982219000,-6.85,16.36,-1.9885708,0
15,2040032298000,-5.33,13.02,0.6537767,0
15,2040082255000,-3.91,9.19,-0.23154591,0
15,2040132304000,-5.13,9.04,-1.879608,0
15,2040182231000,1.57,7.5,-0.50395286,0
15,2040232524000,0.84,3.26,9.615966,0
15,2040282237000,-2.68,4.99,-6.1700177,0
15,2040332316000,-3.91,4.79,-5.9793324,0
15,2040382243000,-10.76,16.55,0.7627395,0
15,2040432292000,-3.15,10.34,5.5162406,0
15,2040482219000,-0.76,8.05,2.7240696,0
15,2040532298000,1.88,6.05,2.4516625,0
15,2040582255000,-5.24,16.44,-3.486809,0
15,2040632304000,-9.28,16.7,5.012288,0
15,2040682262000,-2.96,7.93,-0.19068487,0
15,2040732310000,-3.64,5.56,-0.6537767,0
15,2040782237000,-0.84,1.08,-1.6480621,0
15,2040832316000,-0.08,-0.27,-5.202973,0
15,2040882243000,-2.03,2.41,0.10896278,0
15,2040932292000,-8.54,12.37,-3.0645783,0
15,2040982219000,-2.45,18.31,7.6273947,0
15,2041032298000,-4.75,13.76,1.9477097,0
15,2041082225000,-8.12,17.2,1.9885708,0
15,2041132304000,-3.68,5.79,-1.1849703,0
15,2041182231000,-3.45,5.43,-1.607201,0
15,2041232371000,-1.31,1.08,-2.1792557,0
15,2041282268000,0.42,-1.23,-1.7297841,0
15,2041332286000,-2.37,2.64,-0.9125633,0
15,2041382213000,-14.06,16.82,-2.6014864,0
15,2041432262000,-1.12,13.44,11.686258,0
15,2041482219000,-2.26,7.78,-1.3756552,0
15,2041532298000,-9.11,19.31,-1.9885708,0
15,2041582255000,-0.15,6.05,1.4982382,0
15,2041632274000,0.19,6.4,-1.334794,0
15,2041682262000,-1.88,1.95,-1.6889231,0
15,2041732249000,0.23,-0.65,-2.4516625,0
15,2041782237000,-3.34,2.34,-3.214402,0
15,2041832286000,-15.7,18.28,1.9885708,0
15,2041882243000,0.53,13.67,13.375181,0
15,2041932353000,-3.15,5.18,0.9942854,0
15,2041982219000,-14.79,18.2,-4.440233,0
15,2042032298000,-8.43,13.33,2.3426998,0
15,2042082255000,-4.71,10.69,-0.46309182,0
15,2042132304000,-4.4,6.82,-2.5606253,0
15,2042182231000,-2.37,3.41,-1.7297841,0
15,2042232249000,-1.5,3.41,-0.46309182,0
15,2042282237000,-3.95,10.69,-0.95342433,0
15,2042332286000,-3.02,15.28,-0.84446156,0
15,2042382243000,-0.91,13.18,6.4015636,0
15,2042432292000,-6.82,8.92,4.6036777,0
15,2042482280000,-7.55,6.66,-4.944186,0
15,2042532298000,-7.25,8.66,-4.2904096,0
15,2042582255000,-3.79,8.43,0.23154591,0
15,2042632304000,-4.21,7.08,0.7627395,0
15,2042682201000,-4.9,7.21,-0.14982383,0
15,2042732280000,-5.52,12.03,2.7240696,0
15,2042782268000,-6.66,8.81,1.4982382,0
15,2042832316000,-5.2,3.72,-1.1441092,0
15,2042882213000,-6.02,8.81,-1.4165162,0
15,2042932262000,-4.59,10.53,-1.4165162,0
15,2042982249000,-3.36,8.5,3.0645783,0
15,2043032420000,-7.25,8.24,0.9942854,0
15,2043082255000,-5.79,7.97,-1.3075534,0
15,2044992259000,-5.67,8.35,8.117727,4
15,2045042277000,-6.85,9.0,-2.6423476,4
15,2045092265000,-8.01,9.85,-4.099725,4
15,2045142222000,-3.17,7.82,-1.3756552,4
15,2045192271000,-2.18,9.19,-0.19068487,4
15,2045192271000,-2.18,9.19,-0.19068487,4
15,2045292277000,-4.63,8.31,-1.3756552,4
15,2045342204000,-4.86,9.23,-2.4516625,4
15,2045392375000,-3.72,9.7,-0.8036005,4
15,2045442302000,-4.18,10.0,-0.61291564,4
15,2045492229000,-5.24,10.8,3.6774938,4
15,2045542277000,-4.99,12.41,-2.982856,4
15,2045592235000,1.65,18.47,4.6036777,4
15,2045642314000,-6.02,17.54,-0.50395286,4
15,2045692241000,-8.58,3.3,0.14982383,4
