user-id,timestamp,accX,accY,accZ,ActivityEncoded
27,11434572492000,4.63,-4.18,-12.217452,1
27,11434622266000,7.25,-1.46,-4.2904096,1
27,11434672284000,3.79,0.93,1.7978859,1
27,11434672284000,3.79,0.93,1.7978859,1
27,11434672284000,3.79,0.93,1.7978859,1
27,11434672284000,3.79,0.93,1.7978859,1
27,0,0.0,0.0,0.0,1
27,0,0.0,0.0,0.0,1
27,0,0.0,0.0,0.0,1
27,0,0.0,0.0,0.0,1
27,11435122083000,-3.79,5.41,-6.701211,1
27,11435172223000,-18.96,-15.28,0.040861044,1
27,11435222241000,-6.28,-7.74,13.211738,1
27,11435272260000,-3.17,-4.9,-4.944186,1
27,11435322309000,2.34,-4.79,-10.038197,1
27,11435372266000,6.85,-3.64,-5.175732,1
27,11435422284000,6.24,0.5,0.88532263,1
27,11435472150000,4.9,0.89,4.671779,1
27,11435472150000,4.9,0.89,4.671779,1
27,11435522779000,3.45,-3.68,-2.5606253,1
27,11435577008000,-15.6,-15.05,-17.120777,1
27,0,0.0,0.0,0.0,1
27,0,0.0,0.0,0.0,1
27,11435742139000,-7.21,4.63,3.718355,1
27,11435742139000,-7.21,4.63,3.718355,1
27,0,0.0,0.0,0.0,1
27,11435892285000,0.57,4.79,-0.27240697,1
27,11435942426000,-6.82,-9.11,-7.8589406,1
27,11435992169000,-19.57,-17.16,10.501288,1
27,11436042432000,-2.18,-6.28,3.2961242,1
27,11436093671000,-0.42,-5.13,-9.193735,1
27,11436143170000,6.32,-5.37,-10.310603,1
27,11436193708000,7.59,-0.46,-2.0294318,1
27,11436243177000,6.32,2.96,6.0474343,1
27,11436293683000,2.3,1.31,4.099725,1
27,11436343122000,-0.61,-4.37,-8.308413,1
27,11436393628000,-19.61,-16.97,-3.8273177,1
27,11436443128000,-19.61,-6.09,-4.9850473,1
27,11436493665000,-13.72,10.84,7.082581,1
27,11436543073000,-6.59,4.44,3.568531,1
27,11436593579000,0.08,14.94,3.486809,1
27,11436643079000,2.15,6.02,-0.040861044,1
27,11436693585000,-1.73,0.65,-6.891896,1
27,11436743115000,-18.35,-8.31,-0.61291564,1
27,11436793622000,-6.63,-12.91,13.756551,1
27,11436843122000,-3.72,-6.63,-8.240311,1
27,11436893628000,3.11,-6.78,-10.56939,1
27,11436943158000,18.09,-4.75,-14.015338,1
27,11436993695000,5.71,8.54,4.7535014,1
27,11437043164000,-6.36,4.02,-3.718355,1
27,11437093640000,-13.63,-17.2,-4.903325,1
27,11437143140000,-19.42,-10.95,-2.070293,1
27,11437193647000,-13.95,-13.14,10.528529,1
27,11437243177000,-7.93,2.68,1.56634,1
27,11437293714000,-7.82,9.38,1.5390993,1
27,11437343091000,-0.57,7.63,6.8237944,1
27,11437393659000,-4.63,-4.14,-2.7921712,1
27,11437443158000,-19.61,-16.02,0.42223078,1
27,11437493695000,-19.46,-13.95,-1.0760075,1
27,11437543103000,-10.0,-2.68,-1.0351465,1
27,11437593610000,0.11,-4.71,-6.238119,1
27,11437643140000,6.55,-5.43,-6.782933,1
27,11437702313000,13.18,0.76,2.5606253,1
27,11437752332000,-9.7,3.72,6.932757,1
27,11437802136000,-7.12,-16.04,-1.7297841,1
27,11437853101000,-16.55,-15.13,-5.5571017,1
27,11437853101000,-16.55,-15.13,-5.5571017,1
27,11437853101000,-16.55,-15.13,-5.5571017,1
27,0,0.0,0.0,0.0,1
27,11438032239000,-5.28,2.3,0.27240697,1
27,11438032239000,-5.28,2.3,0.27240697,1
27,11438032239000,-5.28,2.3,0.27240697,1
27,11438082196000,0.15,6.78,6.782933,1
27,11438082196000,0.15,6.78,6.782933,1
27,0,0.0,0.0,0.0,1
27,11438312299000,-3.34,-2.91,14.560152,1
27,11438362409000,-3.79,-5.43,-3.636633,1
27,11438412274000,-0.23,-2.91,-7.3549876,1
27,11438462262000,5.6,-1.73,-8.62168,1
27,11438512372000,3.87,1.38,0.88532263,1
27,11438512372000,3.87,1.38,0.88532263,1
27,11438562604000,3.83,0.08,0.6537767,1
27,11438562604000,3.83,0.08,0.6537767,1
27,0,0.0,0.0,0.0,1
27,0,0.0,0.0,0.0,1
27,11438792676000,-11.26,4.02,-5.202973,1
27,11438792676000,-11.26,4.02,-5.202973,1
27,11438792676000,-11.26,4.02,-5.202973,1
27,11438852246000,-1.04,2.6,-1.56634,1
27,0,0.0,0.0,0.0,1
27,11439002240000,-15.28,-4.67,-2.2201166,1
27,11439052564000,-17.31,-13.59,4.099725,1
27,11439102216000,-1.5,-7.01,2.070293,1
27,11439152234000,1.42,-4.94,-9.00305,1
27,11439202313000,5.75,-5.94,-6.973618,1
27,11439252210000,5.37,-0.34,-2.2609777,1
27,11439302289000,8.12,4.71,6.742072,1
27,11439352216000,3.53,0.08,-0.19068487,1
27,11439402295000,-2.56,-8.81,-14.47843,1
27,11439458020000,-19.61,-17.97,3.9499009,1
27,11439512250000,-14.67,6.82,6.782933,1
27,11439512250000,-14.67,6.82,6.782933,1
27,0,0.0,0.0,0.0,1
27,0,0.0,0.0,0.0,1
27,11439643140000,1.95,5.37,4.9850473,1
27,0,0.0,0.0,0.0,1
27,11439752179000,-9.15,-6.05,-5.243834,1
27,11439802259000,-19.61,-14.14,0.7627395,1
27,11439852277000,-0.04,-6.05,8.539958,1
27,11439902326000,-1.18,-4.75,-8.499097,1
27,11439952405000,3.21,-6.74,-10.501288,1
27,11440002240000,5.52,-2.53,-3.8273177,1
27,11440052198000,6.13,1.84,5.434519,1
27,11440102277000,2.15,-0.61,-0.53119355,1
27,11440152326000,-1.65,-10.99,-8.962189,1
27,11440202344000,-19.61,-18.54,-5.284695,1
27,11440252301000,-15.32,6.63,7.3549876,1
27,11440302228000,-4.25,4.4,-5.284695,1
27,11440352307000,-0.57,2.98,-2.6832085,1
27,11440402234000,4.79,8.05,6.238119,1
27,11440452313000,-4.25,3.45,-5.09401,1
27,11440502210000,-19.61,-7.04,-1.2258313,1
27,11440552289000,-14.1,-8.77,10.119919,1
27,11440602490000,-1.08,-5.43,-0.9942854,1
27,11440652265000,0.08,-5.86,-8.771504,1
27,11440702222000,5.83,-7.5,-4.671779,1
27,11440752271000,4.02,-1.18,0.10896278,1
27,11440802259000,3.26,1.46,3.3778462,1
27,11440852124000,1.92,-4.52,-3.336985,1
27,11440852124000,1.92,-4.52,-3.336985,1
27,11440852124000,1.92,-4.52,-3.336985,1
27,11440932721000,-19.61,-18.85,-1.7978859,1
27,0,0.0,0.0,0.0,1
27,0,0.0,0.0,0.0,1
27,0,0.0,0.0,0.0,1
27,0,0.0,0.0,0.0,1
27,0,0.0,0.0,0.0,1
27,0,0.0,0.0,0.0,1
27,11441292523000,-19.61,-9.34,0.38136974,1
27,11441342267000,-1.73,-7.65,12.408136,1
27,11441392346000,-3.72,-5.48,-7.9679036,1
27,11441442212000,1.76,-4.1,-9.466142,1
27,11441492292000,5.9,-1.95,-4.944186,1
27,11441542279000,4.75,1.65,2.9556155,1
27,11441542279000,4.75,1.65,2.9556155,1
27,11441612409000,3.41,-4.86,0.313268,1
27,0,0.0,0.0,0.0,1
27,11441732434000,-19.61,-7.74,0.7218784,1
27,11441782147000,-12.03,11.03,9.534244,1
27,11441782147000,-12.03,11.03,9.534244,1
27,0,0.0,0.0,0.0,1
27,0,0.0,0.0,0.0,1
27,11441962201000,4.82,6.32,1.7978859,1
27,11442062299000,-19.61,-12.56,4.5628166,1
27,11442112317000,-4.33,-6.4,11.372991,1
27,11442162274000,-3.15,-5.05,-7.7772183,1
27,11442212262000,2.26,-9.28,-11.495573,1
27,11442262219000,5.94,-4.99,-4.903325,1
27,11442312268000,4.18,0.99,0.6946377,1
27,11442362134000,4.21,-0.5,3.1463003,1
27,11442362134000,4.21,-0.5,3.1463003,1
27,11442413282000,2.3,-3.36,-0.46309182,1
27,0,0.0,0.0,0.0,1
27,11442522168000,-16.97,1.42,2.2201166,1
27,11442572217000,-11.22,10.34,10.95076,1
27,11442622144000,-3.64,2.91,5.47538,1
27,0,0.0,0.0,0.0,1
27,11442743207000,-5.13,8.89,-7.246025,1
27,11442792279000,-19.04,-12.03,-7.3958488,1
27,11442842298000,-12.95,-13.53,9.534244,1
27,11442892346000,-3.91,-6.36,0.040861044,1
27,11442942273000,-0.69,-4.06,-7.43671,1
27,11442992292000,5.28,-3.45,-9.697687,1
27,11443042279000,4.82,-0.38,-1.1849703,1
27,11443042279000,4.82,-0.38,-1.1849703,1
27,11443092267000,3.68,0.53,3.6774938,1
27,0,0.0,0.0,0.0,1
27,0,0.0,0.0,0.0,1
27,11443322217000,-12.15,11.35,10.228881,1
27,11443372205000,-5.43,3.87,6.4015636,1
27,11443432294000,1.54,7.16,1.1441092,1
27,11443432294000,1.54,7.16,1.1441092,1
27,11443512128000,-0.8,7.27,-4.862464,1
27,0,0.0,0.0,0.0,1
27,11443622205000,-1.84,-5.86,14.09706,1
27,11443672284000,-3.3,-5.48,-7.082581,1
27,11443722241000,1.65,-4.44,-10.337844,1
27,11443772504000,7.06,-3.02,-7.3141265,1
27,11443822370000,6.05,0.65,-0.84446156,1
27,11443872205000,6.63,-0.3,3.7864566,1
27,11443872205000,6.63,-0.3,3.7864566,1
27,11443872205000,6.63,-0.3,3.7864566,1
27,0,0.0,0.0,0.0,1
27,0,0.0,0.0,0.0,1
27,0,0.0,0.0,0.0,1
27,0,0.0,0.0,0.0,1
27,0,0.0,0.0,0.0,1
27,11444252362000,2.79,8.43,0.6946377,1
27,11444252362000,2.79,8.43,0.6946377,1
27,11444302442000,-1.95,0.27,-10.528529,1
27,11444352429000,-19.61,-7.21,-1.1849703,1
27,11444403058000,-3.41,-7.93,14.9006605,1
27,11444453595000,-3.3,-4.63,-7.8861814,1
27,11444502301000,3.17,-4.48,-9.888372,1
27,11444553540000,7.06,-2.14,-9.084772,1
27,11444603070000,3.72,1.04,-1.0351465,1
27,11444653546000,2.76,0.34,3.336985,1
27,11444702130000,3.95,-5.41,3.9499009,1
27,11444752881000,-8.77,-19.27,-13.988097,1
27,0,0.0,0.0,0.0,1
27,0,0.0,0.0,0.0,1
27,11444922223000,-2.64,2.79,-0.8036005,1
27,11444972547000,3.21,6.51,0.7627395,1
27,11445022199000,2.53,7.06,2.152015,1
27,11445022199000,2.53,7.06,2.152015,1
27,0,0.0,0.0,0.0,1
27,11445202222000,1.95,-4.71,7.014479,1
27,11445252515000,-1.18,-4.29,-7.3141265,1
27,11445302198000,3.91,-4.18,-6.5922484,1
27,11445352277000,2.83,-0.23,-1.2258313,1
27,11445352277000,2.83,-0.23,-1.2258313,1
27,11445352277000,2.83,-0.23,-1.2258313,1
27,11445463483000,4.18,-6.36,1.1168685,1
27,0,0.0,0.0,0.0,1
27,11445562177000,-16.47,-11.6,8.349273,1
27,11445612653000,-11.95,7.59,5.706926,1
27,11445612653000,-11.95,7.59,5.706926,1
27,0,0.0,0.0,0.0,1
27,11445762494000,3.11,8.69,1.334794,1
27,11445812146000,-2.18,3.91,-6.851035,1
27,11445862500000,-13.99,-8.73,-5.8976107,1
27,11445912396000,-13.95,-14.37,13.565866,1
27,11445962232000,-2.79,-6.47,-3.6774938,1
27,11446012281000,1.61,-4.99,-7.43671,1
27,11446062238000,5.67,-4.44,-9.043911,1
27,11446112287000,4.48,0.93,-1.1441092,1
27,11446162274000,5.63,1.38,6.6331096,1
27,11446212262000,1.99,-0.53,2.3018389,1
27,11446272382000,-0.42,-14.14,-14.246883,1
27,11446322126000,-19.61,-17.58,12.299174,1
27,11446383008000,-14.18,8.5,5.5571017,1
27,0,0.0,0.0,0.0,1
27,0,0.0,0.0,0.0,1
27,0,0.0,0.0,0.0,1
27,0,0.0,0.0,0.0,1
27,11446592237000,-4.37,2.34,-9.466142,1
27,11446692670000,-2.45,-5.79,13.211738,1
27,11446742200000,-2.79,-4.94,-5.7886477,1
27,11446742200000,-2.79,-4.94,-5.7886477,1
27,11446792432000,1.73,-3.83,-9.193735,1
27,11446902509000,3.15,0.89,-0.08172209,1
27,11446902509000,3.15,0.89,-0.08172209,1
27,11447002271000,5.13,-3.06,4.140586,1
27,11447102246000,-18.69,-7.46,5.2165933,1
27,11447102246000,-18.69,-7.46,5.2165933,1
27,11447102246000,-18.69,-7.46,5.2165933,1
27,11447202252000,-3.36,2.26,2.3426998,1
27,11447252210000,1.5,13.29,3.405087,1
27,11447252210000,1.5,13.29,3.405087,1
27,11447302259000,1.46,6.66,-0.46309182,1
27,11447352246000,-8.43,1.38,-5.597963,1
27,11447452252000,-3.68,-3.45,12.789507,1
27,11447452252000,-3.68,-3.45,12.789507,1
27,11447552228000,2.11,-6.02,-13.593107,1
27,11447552228000,2.11,-6.02,-13.593107,1
27,11447602277000,5.98,-3.72,-4.862464,1
27,11447702313000,5.41,1.31,3.3778462,1
27,11447702313000,5.41,1.31,3.3778462,1
27,11447752118000,2.41,-2.98,0.08172209,1
27,11447804578000,-13.67,-18.12,-17.502148,1
27,11447862744000,-19.57,-12.18,8.962189,1
27,0,0.0,0.0,0.0,1
27,0,0.0,0.0,0.0,1
27,11447972303000,-4.94,3.15,2.7240696,1
27,0,0.0,0.0,0.0,1
27,11448132306000,-8.58,-7.31,-5.366417,1
27,11448182172000,-19.61,-16.24,1.7978859,1
27,11448232221000,0.46,-7.7,9.697687,1
27,11448282239000,-0.11,-6.55,-9.152874,1
27,11448332257000,4.44,-6.82,-12.367276,1
27,11448382306000,5.86,-1.73,-3.5276701,1
27,11448432233000,7.16,4.33,6.0882955,1
27,11448482312000,2.96,1.65,3.445948,1
27,11448532209000,0.72,-3.41,-3.8273177,1
27,11448582318000,-19.61,-17.67,-10.310603,1
27,11448632215000,-19.61,-8.73,-3.6774938,1
27,11448692395000,-14.25,9.72,2.7649305,1
27,11448742200000,-6.13,4.67,5.7886477,1
27,11448792371000,-1.53,10.38,1.2666923,1
27,11448842267000,0.57,9.28,-0.61291564,1
27,11448892316000,1.84,-5.67,-5.938472,1
27,11448942273000,-18.92,-2.07,-1.7978859,1
27,11448992261000,-4.4,-10.19,13.906375,1
27,11449042310000,-3.17,-4.79,-8.853226,1
27,11449092298000,3.3,-7.59,-13.33432,1
27,11449142285000,8.47,-4.21,-6.932757,1
27,11449192304000,6.02,1.88,1.4573772,1
27,11449242200000,4.6,0.93,5.012288,1
27,11449292310000,0.08,-4.14,-3.6774938,1
27,11449292310000,0.08,-4.14,-3.6774938,1
27,0,0.0,0.0,0.0,1
27,0,0.0,0.0,0.0,1
27,0,0.0,0.0,0.0,1
27,0,0.0,0.0,0.0,1
27,11449570600000,0.95,12.53,2.5333846,1
27,0,0.0,0.0,0.0,1
27,11449672223000,-9.3,-6.02,-5.8567495,1
27,11449722516000,-19.61,-14.63,1.9885708,1
27,11449772412000,-1.73,-8.66,7.4639506,1
27,11449822370000,-0.3,-6.89,-11.645397,1
27,11449872235000,6.4,-7.93,-10.460427,1
27,11449922376000,6.93,-1.76,-2.0294318,1
27,11449972241000,3.91,1.12,7.5865335,1
27,11450022260000,1.8,-3.64,-1.7297841,1
27,11450072309000,-4.63,-7.63,-5.5571017,1
27,11450122235000,-19.61,-19.61,-4.440233,1
27,11450172284000,-19.61,0.31,-1.3756552,1
27,11450222394000,-12.83,9.38,6.8237944,1
27,11450273297000,-6.13,4.63,1.7570249,1
27,11450322278000,0.31,16.02,2.0294318,1
27,11450372266000,1.38,6.36,-0.84446156,1
27,11450422284000,-1.73,-4.63,-7.4639506,1
27,11450472241000,-19.61,-9.3,1.879608,1
27,11450522260000,-2.68,-8.27,13.33432,1
27,11450572248000,-3.11,-3.95,-8.267551,1
27,11450622296000,3.45,-4.25,-10.991621,1
27,11450672254000,6.78,-1.8,-6.701211,1
27,11450722272000,5.09,0.95,-1.920469,1
27,11450772229000,2.64,-0.84,2.070293,1
27,11450822309000,3.17,-7.21,2.982856,1
27,11450872113000,-12.37,-18.12,-11.75436,1
27,11450924176000,-17.62,-13.06,5.366417,1
27,11450924176000,-17.62,-13.06,5.366417,1
27,11450924176000,-17.62,-13.06,5.366417,1
27,11450924176000,-17.62,-13.06,5.366417,1
27,11450924176000,-17.62,-13.06,5.366417,1
27,11450924176000,-17.62,-13.06,5.366417,1
27,0,0.0,0.0,0.0,1
27,0,0.0,0.0,0.0,1
27,11451282331000,-10.61,-11.3,10.501288,1
27,11451332318000,-4.14,-5.9,-3.9499009,1
27,11451382276000,0.34,-3.68,-6.469665,1
27,11451432386000,4.99,-1.12,-7.1234417,1
27,11451482282000,6.82,0.11,-3.568531,1
27,11451532270000,2.64,0.08,2.4925237,1
27,11451532270000,2.64,0.08,2.4925237,1
27,11451532270000,2.64,0.08,2.4925237,1
27,11451625379000,5.24,-11.56,-2.4925237,1
27,0,0.0,0.0,0.0,1
27,11451782178000,-11.33,2.83,-1.4573772,1
27,11451832318000,-2.72,6.66,2.0294318,1
27,11451882245000,2.3,7.12,2.0294318,1
27,11451932202000,0.95,8.31,-3.1463003,1
27,11451982373000,-11.33,-3.06,-9.656827,1
27,11451982373000,-11.33,-3.06,-9.656827,1
27,11451982373000,-11.33,-3.06,-9.656827,1
27,0,0.0,0.0,0.0,1
27,11452162732000,2.72,-3.49,-7.3958488,1
27,11452212201000,6.55,0.11,-7.273266,1
27,11452262311000,4.9,1.5,-1.1441092,1
27,11452312238000,4.37,-0.15,4.862464,1
27,11452312238000,4.37,-0.15,4.862464,1
27,11452312238000,4.37,-0.15,4.862464,1
27,0,0.0,0.0,0.0,1
27,11452495313000,-17.5,-0.27,6.4424243,1
27,11452562268000,-10.46,3.99,7.504812,1
27,11452612256000,-1.8,6.85,4.0588636,1
27,11452612256000,-1.8,6.85,4.0588636,1
27,11452612256000,-1.8,6.85,4.0588636,1
27,11452684186000,-0.08,7.27,-2.5606253,1
27,0,0.0,0.0,0.0,1
27,11452812238000,-9.11,-10.72,14.206022,1
27,11452862287000,-3.6,-6.55,-3.5276701,1
27,11452912274000,1.08,-3.49,-7.8180795,1
27,11452962445000,4.67,-1.84,-6.469665,1
27,11453012525000,6.09,1.27,-2.0294318,1
27,11453063092000,3.3,0.95,4.1814466,1
27,11453113568000,2.87,-2.68,3.255263,1
27,11453163037000,0.04,-16.28,-14.328606,1
27,11453213544000,-19.61,-19.04,10.419566,1
27,11453263013000,-18.31,3.34,-2.5333846,1
27,11453313459000,-9.7,6.4,5.6252036,1
27,11453362958000,-4.71,4.25,3.255263,1
27,11453413373000,1.92,13.33,1.56634,1
27,11453462842000,-0.15,6.28,-1.7297841,1
27,11453513318000,-7.25,-6.02,-3.636633,1
27,11453562879000,-19.61,-14.37,-2.070293,1
27,11453613263000,-3.53,-8.2,12.830367,1
27,11453663648000,-1.27,-5.98,-6.1700177,1
27,11453713208000,3.06,-3.36,-6.4015636,1
27,11453763654000,5.05,0.04,-5.09401,1
27,11453813123000,7.46,2.15,-3.1463003,1
27,11453863599000,2.83,-0.15,1.879608,1
27,11453913098000,1.95,-4.14,0.10896278,1
27,11453962506000,-11.11,-19.0,-12.408136,1
27,11454022779000,-18.24,-11.99,4.5628166,1
27,11454022779000,-18.24,-11.99,4.5628166,1
27,11454022779000,-18.24,-11.99,4.5628166,1
27,0,0.0,0.0,0.0,1
27,0,0.0,0.0,0.0,1
27,0,0.0,0.0,0.0,1
27,11454385419000,-4.06,-5.56,11.604536,1
27,11454442273000,-1.92,-5.09,-7.3549876,1
27,11454492230000,3.3,-4.48,-7.5865335,1
27,11454542218000,5.67,-1.38,-4.903325,1
27,11454592298000,4.1,1.73,2.6832085,1
27,11454642224000,3.11,0.27,6.238119,1
27,11454692304000,4.14,-4.63,-5.8158884,1
27,11454742230000,-16.74,-19.61,-7.3958488,1
27,11454792279000,-18.39,-7.4,1.2258313,1
27,11454842237000,-7.04,6.74,9.343558,1
27,11454892316000,-7.82,3.41,3.1463003,1
27,11454942273000,-0.42,5.67,2.9147544,1
27,11454992230000,2.98,4.56,2.4925237,1
27,11455042218000,-4.44,7.44,-8.471856,1
27,11455092267000,-19.46,-11.03,-7.246025,1
27,11455142224000,-11.8,-13.1,13.715691,1
27,11455192334000,-6.85,-7.44,-0.7627395,1
27,11455242200000,-1.42,-3.26,-9.112013,1
27,11455292310000,5.01,-1.31,-6.66035,1
27,11455342237000,6.09,1.08,-3.445948,1
27,11455392316000,2.96,0.53,2.2201166,1
27,11455442212000,3.83,-4.02,1.7297841,1
27,11455492261000,-7.08,-16.17,-11.795221,1
27,11455542340000,-19.61,-15.21,3.336985,1
27,11455542340000,-19.61,-15.21,3.336985,1
27,0,0.0,0.0,0.0,1
27,0,0.0,0.0,0.0,1
27,0,0.0,0.0,0.0,1
27,11455762525000,4.02,7.16,3.405087,1
27,0,0.0,0.0,0.0,1
27,0,0.0,0.0,0.0,1
27,11455932691000,-9.62,-7.31,14.669114,1
27,11456032147000,1.46,-3.68,-8.62168,1
27,11456082227000,4.56,-1.53,-6.973618,1
27,11456082227000,4.56,-1.53,-6.973618,1
27,11456132367000,4.94,1.27,-2.3018389,1
27,11456132367000,4.94,1.27,-2.3018389,1
27,11456182355000,4.4,-0.23,1.56634,1
27,11456352399000,-19.42,-3.41,3.3778462,1
27,11456352399000,-19.42,-3.41,3.3778462,1
27,11456402143000,-9.85,9.34,9.656827,1
27,11456452161000,-6.21,4.86,5.284695,1
27,11456502362000,0.27,5.37,0.92618364,1
27,0,0.0,0.0,0.0,1
27,0,0.0,0.0,0.0,1
27,11456703015000,-11.11,-10.08,12.871228,1
27,11456752210000,-5.41,-6.63,-1.7297841,1
27,11456802198000,-0.15,-2.72,-5.366417,1
27,11456852277000,3.83,-1.33,-5.8976107,1
27,11456902204000,5.09,0.34,-3.9771416,1
27,11456952283000,4.29,-0.23,-1.879608,1
27,11457002271000,3.83,-9.0,0.23154591,1
27,11457052228000,-11.56,-18.66,0.27240697,1
27,11457102246000,-19.61,-16.66,1.3075534,1
27,11457152326000,-15.55,6.7,11.073342,1
27,11457202252000,-11.6,3.49,-2.070293,1
27,11457252271000,1.57,5.83,2.9556155,1
27,11457302228000,5.9,10.61,2.8738933,1
27,11457302228000,5.9,10.61,2.8738933,1
27,11457402234000,-11.3,9.58,-11.304889,1
27,11457452252000,-19.61,-18.62,11.304889,1
27,11457502240000,0.57,-4.02,14.669114,1
27,11457552289000,-4.71,-5.41,-3.214402,1
27,11457602246000,0.42,-0.76,-6.932757,1
27,11457652295000,4.99,3.79,-7.014479,1
27,11457702283000,3.49,1.95,-2.2609777,1
27,11457752271000,2.41,0.11,0.3405087,1
27,11457802136000,6.7,-10.34,2.9147544,1
27,11457852277000,-12.37,-19.61,-1.1849703,1
27,11457852277000,-12.37,-19.61,-1.1849703,1
27,11457852277000,-12.37,-19.61,-1.1849703,1
27,11457852277000,-12.37,-19.61,-1.1849703,1
27,11457852277000,-12.37,-19.61,-1.1849703,1
27,0,0.0,0.0,0.0,1
27,11458072309000,-0.27,4.86,-0.95342433,1
27,11458122357000,3.15,9.85,1.1849703,1
27,11458122357000,3.15,9.85,1.1849703,1
27,0,0.0,0.0,0.0,1
27,11458292218000,0.08,-3.57,5.5571017,1
27,11458342206000,3.26,-3.72,-6.2789803,1
27,11458392346000,13.14,-2.41,-7.205164,1
27,11458442273000,10.08,1.31,0.46309182,1
27,11458442273000,10.08,1.31,0.46309182,1
27,11458442273000,10.08,1.31,0.46309182,1
27,0,0.0,0.0,0.0,1
27,11458612195000,-11.11,-18.43,-10.337844,1
27,11458662305000,-19.61,-19.15,0.8036005,1
27,11458712262000,-18.77,7.55,3.486809,1
27,11458762403000,-13.87,4.48,4.099725,1
27,11458812268000,-6.85,14.86,3.568531,1
27,11458862317000,-0.91,11.07,0.8036005,1
27,11458912122000,2.03,3.26,-0.9942854,1
27,11458962232000,-0.38,-11.69,-9.493382,1
27,0,0.0,0.0,0.0,1
27,11459073712000,0.15,-4.75,6.5922484,1
27,11459122205000,-1.92,-4.44,-12.14935,1
27,11459172376000,8.47,-1.69,-13.402422,1
27,11459222241000,9.04,2.53,-4.440233,1
27,11459272321000,1.99,2.34,4.7943625,1
27,11459322339000,3.3,0.42,6.701211,1
27,11459372266000,1.27,-2.83,-3.3642259,1
27,11459422284000,-18.92,-18.92,-14.206022,1
27,11459472272000,-19.3,-9.34,-1.8387469,1
27,11459522260000,-10.04,9.19,8.430995,1
27,11459572919000,-6.7,2.49,2.070293,1
27,11459622266000,0.27,14.18,2.4925237,1
27,11459672315000,0.69,5.33,-0.19068487,1
27,11459722272000,-7.93,-1.38,-6.4015636,1
27,11459772260000,-19.61,-18.85,2.9556155,1
27,11459822278000,-0.8,-4.86,10.760075,1
27,11459872296000,-2.45,-5.71,-9.00305,1
27,11459922284000,4.14,-5.63,-10.841797,1
27,11459972303000,8.16,-1.57,-4.8216033,1
27,11460022260000,5.86,3.68,1.4982382,1
27,11460072309000,4.44,4.06,7.7772183,1
27,11460122266000,2.76,-5.24,-1.9885708,1
27,11460172284000,-12.76,-15.55,-17.052675,1
27,11460222272000,-19.61,-17.97,2.982856,1
27,11460272290000,-19.23,5.37,1.334794,1
27,11460322278000,-15.36,3.79,1.2258313,1
27,11460372266000,-5.41,10.46,4.630918,1
27,11460422284000,-0.27,12.95,0.3405087,1
27,11460472333000,0.84,4.14,-1.9477097,1
27,11460523145000,-3.91,-8.5,-9.615966,1
27,11460573072000,-19.61,-18.35,10.528529,1
27,11460622296000,1.5,-3.21,7.8589406,1
27,11460672376000,-0.72,-4.75,-6.6331096,1
27,11460722272000,3.68,-0.04,-8.662541,1
27,11460772290000,7.67,2.68,-6.701211,1
27,11460822400000,2.22,2.79,2.6423476,1
27,11460872296000,3.83,-0.38,3.3778462,1
27,11460922223000,7.55,-13.06,-1.334794,1
27,11460972272000,-18.39,-17.5,-13.947236,1
27,11460972272000,-18.39,-17.5,-13.947236,1
27,0,0.0,0.0,0.0,1
27,0,0.0,0.0,0.0,1
27,11461152204000,-1.38,5.01,0.23154591,1
27,11461215314000,2.64,8.69,2.3018389,1
27,11461215314000,2.64,8.69,2.3018389,1
27,11461215314000,2.64,8.69,2.3018389,1
27,0,0.0,0.0,0.0,1
27,0,0.0,0.0,0.0,1
27,11461442273000,0.89,-7.4,-12.53072,1
27,11461492292000,8.96,-7.89,-8.812365,1
27,11461492292000,8.96,-7.89,-8.812365,1
27,11461542249000,6.74,1.14,0.6537767,1
27,0,0.0,0.0,0.0,1
27,0,0.0,0.0,0.0,1
27,11461802289000,-17.12,8.62,4.099725,1
27,11461852399000,-10.19,3.99,0.6946377,1
27,11461902204000,-4.94,15.89,4.630918,1
27,11461902204000,-4.94,15.89,4.630918,1
27,11462002179000,1.27,2.76,-3.445948,1
27,11462002179000,1.27,2.76,-3.445948,1
27,11462052198000,-1.69,-9.04,-12.639683,1
27,0,0.0,0.0,0.0,1
27,11462163617000,-3.26,-3.87,-1.9885708,1
27,11462212537000,0.42,-4.94,-11.495573,1
27,11462262281000,8.47,-3.83,-11.454713,1
27,11462312238000,5.13,0.99,-1.525479,1
27,11462362287000,5.01,0.76,4.2086873,1
27,11462362287000,5.01,0.76,4.2086873,1
27,11462362287000,5.01,0.76,4.2086873,1
27,0,0.0,0.0,0.0,1
27,11462544385000,-17.77,2.68,2.6423476,1
27,11462592176000,-15.36,6.05,7.6954966,1
27,11462642346000,-4.82,5.01,3.6774938,1
27,11462642346000,-4.82,5.01,3.6774938,1
27,11462642346000,-4.82,5.01,3.6774938,1
27,0,0.0,0.0,0.0,1
27,11462822217000,-15.4,-8.96,-7.164303,1
27,11462872266000,-7.89,-10.31,17.692831,1
27,11462872266000,-7.89,-10.31,17.692831,1
27,11462972547000,1.31,-4.18,-8.689782,1
27,11463022412000,5.79,-2.03,-9.302697,1
27,11463072309000,5.37,0.93,-2.2201166,1
27,11463122357000,3.3,-0.23,4.7943625,1
27,11463172284000,2.22,-1.99,2.0294318,1
27,11463222913000,-2.96,-16.97,-13.1708765,1
27,11463222913000,-2.96,-16.97,-13.1708765,1
27,0,0.0,0.0,0.0,1
27,0,0.0,0.0,0.0,1
27,11463382215000,-7.25,3.26,1.607201,1
27,11463382215000,-7.25,3.26,1.607201,1
27,11463382215000,-7.25,3.26,1.607201,1
27,0,0.0,0.0,0.0,1
27,11463602185000,-19.61,-17.86,0.08172209,1
27,11463652173000,-0.69,-3.26,11.645397,1
27,11463702313000,-3.64,-3.95,-5.5162406,1
27,11463752271000,1.46,-2.45,-6.6331096,1
27,11463802289000,6.09,-1.92,-8.689782,1
27,11463852307000,3.38,0.99,-1.879608,1
27,11463902265000,2.18,-0.8,1.7297841,1
27,11463972882000,3.64,-12.03,3.568531,1
27,11463972882000,3.64,-12.03,3.568531,1
27,11463972882000,3.64,-12.03,3.568531,1
27,11463972882000,3.64,-12.03,3.568531,1
27,0,0.0,0.0,0.0,1
27,11464282239000,2.3,2.41,-0.50395286,1
27,11464332227000,-15.01,-8.92,2.8738933,1
27,11464382215000,-18.92,-12.98,-2.4516625,1
27,11464432294000,-2.64,-4.33,7.4639506,1
27,11464482282000,-1.8,-3.64,-7.9679036,1
27,11464532331000,4.37,-2.56,-10.269742,1
27,11464582288000,6.05,1.27,-4.1814466,1
27,11464632306000,4.4,2.6,7.164303,1
27,11464682202000,1.31,0.11,2.152015,1
27,11464732312000,-0.69,-3.76,-5.325556,1
27,11464782239000,-19.61,-19.3,-8.117727,1
27,11464832837000,-18.62,-7.78,-0.14982383,1
27,11464882337000,-11.6,10.5,4.7535014,1
27,11464932294000,-6.43,2.72,0.23154591,1
27,11464982251000,0.5,7.93,5.09401,1
27,11465032270000,2.34,9.23,-0.88532263,1
27,11465082288000,-2.96,0.5,-4.7126403,1
27,11465132215000,-19.38,-10.92,0.23154591,1
27,11465182233000,-8.85,-11.37,13.375181,1
27,11465232282000,-1.18,-7.08,-5.175732,1
27,11465282209000,1.31,-5.41,-9.193735,1
27,11465332318000,6.89,-4.56,-6.510526,1
27,11465382215000,5.37,2.07,-1.0351465,1
27,11465432263000,4.4,4.02,10.501288,1
27,11465482282000,1.23,-2.07,-1.0351465,1
27,11465532239000,-6.4,-2.14,-0.19068487,1
27,11465582257000,-19.61,-19.61,-5.938472,1
27,11465632337000,-10.61,-0.91,6.0882955,1
27,11465682263000,-13.59,5.41,1.1849703,1
27,11465732282000,-3.79,2.98,0.8036005,1
27,11465782239000,1.61,4.63,3.486809,1
27,11465832288000,2.34,3.38,-1.1441092,1
27,11465882215000,-8.2,-4.99,-4.630918,1
27,11465932263000,-19.38,-12.37,2.2609777,1
27,11465982251000,0.57,-3.49,7.3549876,1
27,11466032270000,-1.69,-3.83,-9.302697,1
27,11466082288000,3.64,-3.3,-9.384419,1
27,11466132306000,5.56,0.46,-3.5276701,1
27,11466182263000,8.12,3.06,4.671779,1
27,11466232343000,3.45,0.72,4.399372,1
27,11466282697000,-1.57,-8.08,-7.1234417,1
27,11466332624000,-19.61,-19.61,-2.5333846,1
27,11466382123000,-19.61,-0.53,-3.173541,1
27,11466432233000,-13.44,9.47,12.408136,1
27,11466482373000,-5.01,2.96,3.7864566,1
27,11466532300000,-0.3,10.15,1.7570249,1
27,11466592206000,1.61,8.73,-0.9125633,1
27,11466642224000,-4.82,4.02,-5.134871,1
27,11466692578000,-19.57,-13.76,-6.3198414,1
27,11466742230000,-3.79,-11.99,16.88923,1
27,11466792310000,-2.68,-6.28,-5.366417,1
27,11466842267000,3.21,-2.98,-8.580819,1
27,11466842267000,3.21,-2.98,-8.580819,1
27,11466902356000,5.63,1.31,-3.445948,1
27,11466962293000,2.64,1.92,2.3018389,1
27,11466962293000,2.64,1.92,2.3018389,1
27,11467071973000,3.3,-12.6,-9.425281,1
27,11467071973000,3.3,-12.6,-9.425281,1
27,11467123395000,-19.61,-18.12,10.800936,1
27,0,0.0,0.0,0.0,1
27,11467272168000,-4.33,3.34,2.982856,1
27,11467272168000,-4.33,3.34,2.982856,1
27,11467272168000,-4.33,3.34,2.982856,1
27,0,0.0,0.0,0.0,1
27,11467442151000,-14.29,-8.69,-0.9125633,1
27,11467492139000,-16.85,-16.51,7.9270425,1
27,11467542249000,-1.69,-6.02,2.3018389,1
27,11467592237000,-0.42,-4.63,-5.8976107,1
27,11467642316000,5.94,-3.11,-7.5456724,1
27,11467692243000,7.01,1.23,-2.6423476,1
27,11467742261000,2.87,1.31,6.1700177,1
27,11467742261000,2.87,1.31,6.1700177,1
27,11467742261000,2.87,1.31,6.1700177,1
27,11467862409000,-5.43,-12.91,-12.721405,1
27,0,0.0,0.0,0.0,1
27,0,0.0,0.0,0.0,1
27,11468002179000,-10.8,7.78,1.4982382,1
27,11468092115000,2.34,6.74,1.4982382,1
27,11468092115000,2.34,6.74,1.4982382,1
27,11468092115000,2.34,6.74,1.4982382,1
27,0,0.0,0.0,0.0,1
27,0,0.0,0.0,0.0,1
27,11468312329000,1.33,-3.49,5.6252036,1
27,11468362378000,-0.72,-5.2,-6.6331096,1
27,11468412427000,6.36,-4.82,-8.921328,1
27,11468462201000,7.27,-0.46,-3.1463003,1
27,11468512250000,2.83,1.8,4.903325,1
27,11468562238000,1.84,-0.8,4.440233,1
27,11468612287000,4.6,-8.88,-4.1814466,1
27,11468662274000,-18.89,-19.46,-5.938472,1
27,11468712293000,-19.19,-4.37,-4.4810944,1
27,11468762250000,-9.04,7.89,10.651112,1
27,11468812238000,-3.83,5.22,-0.6946377,1
27,11468862226000,-0.5,4.06,-3.759216,1
27,11468912305000,3.83,5.71,5.012288,1
27,11468962201000,-3.72,4.99,-6.0882955,1
27,11469012311000,-19.46,-15.24,1.6889231,1
27,11469062268000,-8.88,-7.16,7.273266,1
27,11469112348000,-1.23,-5.9,-5.7477865,1
27,11469162244000,0.72,-9.08,-11.985906,1
27,11469212293000,7.12,-8.54,-5.7477865,1
27,11469262219000,7.25,5.05,5.325556,1
27,11469312299000,2.45,5.6,1.7978859,1
27,11469362256000,1.42,-4.75,-4.0588636,1
27,11469412244000,-17.5,-17.86,1.2666923,1
27,11469462232000,-19.61,-11.37,-2.0294318,1
27,11469512281000,-8.08,9.11,4.5219555,1
27,11469562268000,-9.04,5.33,3.1054392,1
27,11469612317000,0.15,2.79,4.2086873,1
27,11469672376000,5.01,5.63,-0.38136974,1
27,11469722241000,0.38,6.55,-3.9771416,1
27,11469772321000,-17.35,-7.04,-7.8861814,1
27,11469822278000,-8.73,-8.24,16.467001,1
27,11469872235000,-2.11,-8.12,1.2258313,1
27,11469922284000,-1.18,-4.99,-8.049625,1
27,11469972547000,6.51,-2.26,-5.5162406,1
27,11470022229000,7.06,2.98,-2.1792557,1
27,11470072278000,4.37,3.49,5.243834,1
27,11470122266000,2.56,-2.64,0.7218784,1
27,11470172284000,-1.53,-17.67,-10.269742,1
27,11470222303000,-19.61,-15.05,0.23154591,1
27,11470222303000,-19.61,-15.05,0.23154591,1
27,11470282361000,-16.21,6.93,10.419566,1
27,11470332257000,-6.7,4.1,-3.336985,1
27,11470382276000,-0.08,3.41,-2.6423476,1
27,11470432263000,4.21,7.78,8.049625,1
27,11470482282000,-1.33,5.6,-4.2904096,1
27,11470532300000,-18.31,-9.72,-2.8330324,1
27,11470592267000,-6.78,-8.05,11.917805,1
27,11470642255000,-1.84,-5.67,-2.982856,1
27,11470692273000,1.31,-7.86,-10.460427,1
27,11470742230000,7.5,-5.37,-5.8567495,1
27,11470792310000,4.9,4.6,6.5513873,1
27,11470842237000,4.56,2.79,2.2609777,1
27,11470892316000,2.03,-4.71,-5.597963,1
27,11470942243000,-16.17,-17.69,-16.698545,1
27,11470992261000,-19.61,-12.3,4.0180025,1
27,11471042249000,-11.03,9.58,7.8589406,1
27,11471092298000,-8.05,4.71,0.19068487,1
27,11471142255000,-1.57,2.83,-0.10896278,1
27,11471192304000,4.71,9.08,2.2201166,1
27,11471242230000,1.04,6.13,-0.14982383,1
27,11471292249000,-12.34,-2.34,-10.691973,1
27,11471342237000,-19.61,-16.09,4.7535014,1
27,11471392346000,3.34,-3.41,6.3607025,1
27,11471442243000,1.08,-5.67,-11.9450445,1
27,11471492292000,7.25,-5.82,-9.493382,1
27,11471542249000,8.73,1.57,-2.4516625,1
27,11471592328000,3.68,5.6,8.539958,1
27,11471642255000,2.91,-0.57,1.3075534,1
27,11471642255000,2.91,-0.57,1.3075534,1
27,11471712995000,-6.43,-15.43,-14.47843,1
27,0,0.0,0.0,0.0,1
27,11471832410000,-11.41,13.91,9.615966,1
27,11471882520000,-4.02,4.02,-1.4573772,1
27,11471882520000,-4.02,4.02,-1.4573772,1
27,11471952130000,0.23,3.91,-0.7627395,1
27,0,0.0,0.0,0.0,1
27,11472102216000,-19.61,-12.91,9.765789,1
27,11472152295000,3.49,-5.09,12.176591,1
27,11472152295000,3.49,-5.09,12.176591,1
27,11472252515000,5.48,-7.04,-14.519291,1
27,11472302320000,8.31,0.57,-2.1111538,1
27,11472352277000,7.63,12.83,10.800936,1
27,11472402265000,1.8,-0.42,-2.0294318,1
27,11472453687000,1.46,-5.13,-9.112013,1
27,11472502362000,-19.61,-19.61,-6.510526,1
27,11472552442000,-16.36,-1.38,1.1441092,1
27,11472602307000,-9.23,9.85,-0.42223078,1
27,11472652295000,-2.49,5.71,1.2666923,1
27,11472752301000,1.31,4.82,1.2666923,1
27,11472752301000,1.31,4.82,1.2666923,1
27,11472812268000,-17.5,-7.46,-7.246025,1
27,11472862287000,-6.93,-5.13,14.1787815,1
27,11472912244000,-3.49,-4.9,-2.2201166,1
27,11472962293000,0.5,-6.85,-14.015338,1
27,11473022229000,6.55,-3.26,-2.1111538,1
27,11473072248000,6.51,7.4,7.7772183,1
27,11473122296000,4.44,1.73,-2.1792557,1
27,11473172254000,1.95,-3.21,0.19068487,1
27,11473222272000,-12.11,-17.77,-0.53119355,1
27,11473272229000,-19.61,-13.14,-1.1168685,1
27,11473322278000,-3.06,12.6,7.5456724,1
27,11473372235000,-7.31,4.37,0.95342433,1
27,11473422284000,-1.04,5.28,-0.19068487,1
27,11473472303000,2.96,3.11,4.7535014,1
27,11473522290000,-4.48,-1.53,-2.6014864,1
27,11473572278000,-19.61,-12.56,-2.4516625,1
27,11473622296000,-8.31,-5.33,9.112013,1
27,11473672223000,-3.11,-6.02,-5.407278,1
27,11473722303000,2.22,-10.99,-14.246883,1
27,11473772565000,7.97,-7.74,-3.1054392,1
27,11473822309000,7.82,6.32,10.119919,1
27,11473872235000,1.23,0.15,0.6537767,1
27,11473922315000,-2.79,-0.91,-4.140586,1
27,11473972119000,-19.19,-14.44,-11.686258,1
27,11474024152000,-18.58,-8.24,5.9793324,1
27,11474024152000,-18.58,-8.24,5.9793324,1
27,11474024152000,-18.58,-8.24,5.9793324,1
27,11474072766000,-13.76,12.34,6.701211,1
27,11474072766000,-13.76,12.34,6.701211,1
27,0,0.0,0.0,0.0,1
27,11474292157000,-15.43,-0.95,-6.1291566,1
27,11474342176000,-18.85,-15.36,4.399372,1
27,11474392224000,-3.17,-9.47,-4.8216033,1
27,11474442243000,1.04,-16.13,-16.04477,1
27,11474492261000,10.15,-10.0,-2.4516625,1
27,11474542310000,5.6,1.76,0.8036005,1
27,11474592267000,2.83,6.51,5.47538,1
27,11474642316000,-0.46,-1.38,-4.0588636,1
27,11474692243000,-17.31,-10.88,-12.217452,1
27,11474742322000,-19.61,-18.16,5.7477865,1
27,11474792218000,-19.61,7.21,-1.334794,1
27,11474842298000,-16.04,8.47,7.668256,1
27,11474892316000,-4.71,10.92,4.903325,1
27,11474942304000,0.27,12.98,1.2666923,1
27,11474992230000,2.87,6.44,-2.1111538,1
27,11475042279000,10.84,-12.18,-3.636633,1
27,11475092267000,-19.61,1.65,3.2961242,1
27,11475142316000,-4.18,-6.43,10.61025,1
27,11475192273000,-2.56,-4.48,-10.841797,1
27,11475242292000,1.54,-10.5,-18.687117,1
27,11475292279000,10.34,-5.71,-5.134871,1
27,11475342267000,9.89,6.55,5.829509,1
27,11475392255000,-2.03,-1.65,-1.525479,1
27,11475442273000,-17.46,4.18,-16.317177,1
27,11475492261000,-17.16,-19.5,8.390134,1
27,11475542279000,-19.42,0.65,-6.0474343,1
27,11475592237000,-9.49,8.05,4.2495484,1
27,11475642346000,-7.82,6.36,3.8273177,1
27,11475692243000,-2.22,14.06,4.671779,1
27,11475742292000,0.19,9.28,-1.1849703,1
27,11475793256000,5.28,-6.66,-7.504812,1
27,11475842237000,-19.5,1.27,5.829509,1
27,11475892224000,-3.98,-10.69,15.28203,1
27,11475942304000,-5.37,-4.9,-11.985906,1
27,11475992261000,7.97,-14.6,-19.422615,1
27,11476042279000,11.73,-7.16,0.5720546,1
27,11476092298000,6.82,14.98,17.161638,1
27,11476142133000,0.31,0.69,-4.903325,1
27,11476194287000,-8.88,-1.46,-6.428804,1
27,11476194287000,-8.88,-1.46,-6.428804,1
27,11476252423000,-19.61,-16.17,-11.304889,1
27,0,0.0,0.0,0.0,1
27,0,0.0,0.0,0.0,1
27,0,0.0,0.0,0.0,1
27,11476412305000,-5.63,4.37,4.2086873,1
27,0,0.0,0.0,0.0,1
27,11476522473000,1.04,4.67,-3.9090397,1
27,11476572187000,-5.94,-7.7,-13.402422,1
27,11476622602000,-19.61,-10.31,12.9529505,1
27,11476673200000,-1.12,-4.56,5.134871,1
27,11476723645000,-1.38,-4.82,-9.234595,1
27,11476773084000,4.94,-5.56,-12.340035,1
27,11476823560000,7.35,-1.84,-3.0237172,1
27,11476873059000,4.63,1.18,4.3312707,1
27,11476942304000,2.41,-1.46,3.214402,1
27,11476942304000,2.41,-1.46,3.214402,1
27,11477013623000,-19.61,-19.57,1.0351465,1
27,11477013623000,-19.61,-19.57,1.0351465,1
27,11477013623000,-19.61,-19.57,1.0351465,1
27,11477013623000,-19.61,-19.57,1.0351465,1
27,11477013623000,-19.61,-19.57,1.0351465,1
27,0,0.0,0.0,0.0,1
27,11477352185000,-16.44,-2.87,-10.56939,1
27,11477402295000,-9.43,-13.95,18.428331,1
27,11477452222000,-4.4,-7.63,-3.2961242,1
27,11477502484000,-0.38,-6.66,-10.528529,1
27,11477552259000,7.59,-7.97,-8.771504,1
27,11477602246000,4.82,-0.08,1.1168685,1
27,11477652387000,3.72,4.94,8.580819,1
27,11477702130000,0.23,-3.15,-2.6014864,1
27,11477755933000,-15.51,-11.37,-7.6546354,1
27,11477755933000,-15.51,-11.37,-7.6546354,1
27,11477755933000,-15.51,-11.37,-7.6546354,1
27,0,0.0,0.0,0.0,1
27,0,0.0,0.0,0.0,1
27,0,0.0,0.0,0.0,1
27,11477992139000,-0.42,13.59,3.5276701,1
27,0,0.0,0.0,0.0,1
27,11478152539000,-19.61,-12.37,18.115063,1
27,11478202313000,-1.57,-4.25,2.982856,1
27,11478252362000,0.99,-5.6,-12.871228,1
27,11478302259000,9.58,-8.2,-14.859799,1
27,11478352277000,5.63,-0.3,0.14982383,1
27,11478352277000,5.63,-0.3,0.14982383,1
27,11478352277000,5.63,-0.3,0.14982383,1
27,0,0.0,0.0,0.0,1
27,11478532178000,-19.34,-17.2,-11.9450445,1
27,11478592145000,-19.5,-5.63,1.56634,1
27,11478642194000,-10.53,12.72,6.4424243,1
27,11478692334000,-4.99,3.72,0.6537767,1
27,11478742139000,-0.19,3.57,2.3699405,1
27,11478802533000,4.4,9.89,-0.46309182,1
27,11478802533000,4.4,9.89,-0.46309182,1
27,11478802533000,4.4,9.89,-0.46309182,1
27,0,0.0,0.0,0.0,1
27,11478982404000,-5.48,-6.32,-5.243834,1
27,11478982404000,-5.48,-6.32,-5.243834,1
27,11479032300000,1.31,-5.18,-12.176591,1
27,11479132276000,5.41,0.53,-1.4573772,1
27,11479182294000,2.41,-0.69,7.4639506,1
27,11479232251000,4.29,-4.99,0.313268,1
27,11479282239000,-6.47,-18.96,-16.780268,1
27,11479332227000,-19.61,-14.25,12.980191,1
27,11479382276000,-11.41,9.0,11.75436,1
27,11479432233000,-6.74,3.34,-1.920469,1
27,11479482221000,-1.31,7.25,3.990762,1
27,11479532239000,3.15,10.08,0.10896278,1
27,11479582257000,-1.18,5.94,-2.8738933,1
27,11479632245000,-15.6,-7.97,-2.0294318,1
27,11479682263000,-14.79,-14.63,7.014479,1
27,11479732221000,-1.46,-4.79,-1.525479,1
27,11479782239000,0.5,-8.2,-11.413852,1
27,11479832227000,8.12,-8.12,-11.114203,1
27,11479882306000,6.63,0.76,3.568531,1
27,11479932141000,5.18,8.28,5.6660647,1
27,11479982282000,0.65,-3.64,-3.718355,1
27,11480032636000,-9.81,-15.55,-17.583868,1
27,11480032636000,-9.81,-15.55,-17.583868,1
27,11480102155000,-19.61,-17.27,9.915613,1
27,11480102155000,-19.61,-17.27,9.915613,1
27,11480102155000,-19.61,-17.27,9.915613,1
27,11480102155000,-19.61,-17.27,9.915613,1
27,11480102155000,-19.61,-17.27,9.915613,1
27,0,0.0,0.0,0.0,1
27,0,0.0,0.0,0.0,1
27,11480412366000,-12.11,1.08,-4.4810944,1
27,11480462354000,-7.65,-12.22,15.935807,1
27,11480512281000,-5.43,-2.75,-8.076866,1
27,11480562207000,-0.89,-5.94,-13.865514,1
27,11480612561000,9.15,-5.6,-11.3321295,1
27,11480612561000,9.15,-5.6,-11.3321295,1
27,11480612561000,9.15,-5.6,-11.3321295,1
27,11480662397000,6.24,0.95,2.4108016,1
27,0,0.0,0.0,0.0,1
27,11480832196000,-19.61,-18.81,5.829509,1
27,11480882123000,-18.01,-0.3,-3.2961242,1
27,11480932294000,-11.99,9.96,3.9499009,1
27,11480982251000,-1.99,3.38,-1.607201,1
27,11481032117000,2.18,8.73,2.3018389,1
27,11481082257000,2.45,6.4,0.84446156,1
27,0,0.0,0.0,0.0,1
27,0,0.0,0.0,0.0,1
27,11481262220000,-0.5,-5.37,-3.445948,1
27,11481312360000,0.84,-5.67,-8.580819,1
27,11481362256000,6.32,-5.9,-2.5333846,1
27,11481412274000,4.33,-0.08,-0.38136974,1
27,11481412274000,4.33,-0.08,-0.38136974,1
27,11481412274000,4.33,-0.08,-0.38136974,1
27,0,0.0,0.0,0.0,1
27,11481592206000,-19.61,-19.61,-1.1168685,1
27,11481642133000,-17.54,-3.53,-7.7772183,1
27,11481642133000,-17.54,-3.53,-7.7772183,1
27,11481692426000,-9.7,5.71,11.75436,1
27,0,0.0,0.0,0.0,1
27,11481854413000,1.99,3.45,2.8738933,1
27,11481902204000,-3.83,-2.72,6.1291566,1
27,11481952283000,-19.61,-16.63,-11.985906,1
27,11482002332000,-8.16,-0.76,15.173067,1
27,11482052259000,-4.86,-6.02,-9.425281,1
27,11482102338000,2.53,-5.71,-11.304889,1
27,11482162244000,6.82,-3.98,-3.405087,1
27,11482212201000,4.9,7.21,11.073342,1
27,11482262311000,2.26,-1.27,-3.9771416,1
27,11482312268000,-1.18,-1.95,-2.6014864,1
27,11482362287000,-19.53,-18.39,0.7627395,1
27,11482412213000,-19.61,-8.2,1.3075534,1
27,11482462293000,-8.27,12.83,7.3958488,1
27,11482512250000,-7.78,3.34,1.1168685,1
27,11482562299000,1.65,4.21,6.510526,1
27,11482612256000,2.6,6.24,0.6537767,1
27,11482662305000,-3.6,3.57,-8.19945,1
27,11482712232000,-16.66,-3.64,-2.3699405,1
27,11482762311000,-13.82,-13.91,16.249075,1
27,11482812238000,-6.36,-8.01,-5.09401,1
27,11482862287000,0.72,-7.04,-9.302697,1
27,11482912213000,6.51,-6.63,-6.428804,1
27,11482962293000,7.89,1.38,0.7627395,1
27,11483012250000,5.13,2.41,1.9477097,1
27,11483062360000,1.8,-1.8,-1.334794,1
27,11483062360000,1.8,-1.8,-1.334794,1
27,11483062360000,1.8,-1.8,-1.334794,1
27,0,0.0,0.0,0.0,1
27,0,0.0,0.0,0.0,1
27,0,0.0,0.0,0.0,1
27,11483294171000,-1.33,2.76,-1.2258313,1
27,11483294171000,-1.33,2.76,-1.2258313,1
27,11483294171000,-1.33,2.76,-1.2258313,1
27,0,0.0,0.0,0.0,1
27,11483504468000,-19.61,-14.75,8.771504,1
27,11483552869000,-2.11,-5.79,10.310603,1
27,11483602307000,-3.49,-4.75,-10.038197,1
27,11483652478000,2.96,-5.71,-10.56939,1
27,11483702283000,5.41,-3.17,-2.4516625,1
27,11483752362000,6.51,3.3,5.243834,1
27,11483802259000,5.09,0.95,1.879608,1
27,11483802259000,5.09,0.95,1.879608,1
27,11483872296000,-2.03,-11.6,-12.721405,1
27,0,0.0,0.0,0.0,1
27,0,0.0,0.0,0.0,1
27,11484052289000,-6.47,5.86,-0.9942854,1
27,11484052289000,-6.47,5.86,-0.9942854,1
27,11484052289000,-6.47,5.86,-0.9942854,1
27,0,0.0,0.0,0.0,1
27,11484233686000,-3.26,-4.1,-10.460427,1
27,11484282300000,-19.61,-13.38,10.079058,1
27,11484282300000,-19.61,-13.38,10.079058,1
27,11484382367000,-1.99,-5.18,-7.4639506,1
27,11484432386000,4.56,-2.87,-9.112013,1
27,11484482373000,9.34,0.15,-5.597963,1
27,11484532270000,1.95,0.65,5.09401,1
27,11484582318000,1.18,-1.12,4.2086873,1
27,11484632306000,5.01,-10.76,-7.3549876,1
27,11484682294000,-19.61,-18.92,1.7297841,1
27,11484732282000,-13.76,2.15,6.742072,1
27,11484782331000,-9.0,7.4,-2.3699405,1
27,11484832318000,-1.88,4.63,-3.255263,1
27,11484882276000,0.61,3.6,0.08172209,1
27,11484932294000,2.49,3.11,2.8330324,1
27,11484982282000,-15.7,-4.18,-1.525479,1
27,11485032300000,-19.61,-16.97,-5.8158884,1
27,11485082288000,-0.76,-4.82,9.765789,1
27,11485132306000,-1.8,-6.32,-7.7772183,1
27,11485182324000,5.43,-5.09,-7.3141265,1
27,11485232343000,9.62,0.65,-2.3699405,1
27,11485282270000,-1.53,5.22,7.9679036,1
27,11485332318000,4.33,-1.04,0.61291564,1
27,11485382215000,0.99,-7.63,-8.662541,1
27,11485433240000,-19.61,-19.61,-10.760075,1
27,0,0.0,0.0,0.0,1
27,11485552228000,-6.55,5.22,-2.3699405,1
27,11485602826000,-1.5,3.3,-1.9885708,1
27,11485652173000,4.6,8.85,2.2201166,1
27,11485652173000,4.6,8.85,2.2201166,1
27,0,0.0,0.0,0.0,1
27,11485802228000,-15.75,-12.76,11.032481,1
27,11485852216000,0.23,-7.78,3.0645783,1
27,11485902204000,0.53,-4.48,-8.076866,1
27,11485952344000,8.66,-2.3,-8.390134,1
27,11486002271000,8.58,2.26,-2.1111538,1
27,11486052259000,-0.19,2.3,7.6954966,1
27,11486052259000,-0.19,2.3,7.6954966,1
27,11486052259000,-0.19,2.3,7.6954966,1
27,11486162335000,-4.1,-15.89,-14.982383,1
27,0,0.0,0.0,0.0,1
27,0,0.0,0.0,0.0,1
27,11486302503000,-13.29,7.27,2.1792557,1
27,11486363233000,-2.3,2.87,-1.3075534,1
27,11486412366000,4.02,10.99,1.7978859,1
27,11486462262000,-0.91,7.93,-0.14982383,1
27,11486512250000,-14.71,-6.09,-4.944186,1
27,11486562451000,-19.61,-17.35,6.0474343,1
27,11486562451000,-19.61,-17.35,6.0474343,1
27,11486562451000,-19.61,-17.35,6.0474343,1
27,11486562451000,-19.61,-17.35,6.0474343,1
27,0,0.0,0.0,0.0,1
27,11486762158000,8.96,1.27,-1.525479,1
27,11486812665000,-0.69,7.16,8.499097,1
27,11486862256000,4.1,-1.27,-0.19068487,1
27,11486862256000,4.1,-1.27,-0.19068487,1
27,11486862256000,4.1,-1.27,-0.19068487,1
27,0,0.0,0.0,0.0,1
27,0,0.0,0.0,0.0,1
27,11487085889000,-9.19,5.05,-3.1054392,1
27,11487193799000,2.56,11.96,-0.23154591,1
27,11487193799000,2.56,11.96,-0.23154591,1
27,11487242597000,1.38,5.05,0.95342433,1
27,11487293103000,-7.65,-3.76,-8.158588,1
27,11487342267000,-19.61,-16.93,8.349273,1
27,11487392407000,6.44,-3.15,9.915613,1
27,11487392407000,6.44,-3.15,9.915613,1
27,11487392407000,6.44,-3.15,9.915613,1
27,0,0.0,0.0,0.0,1
27,0,0.0,0.0,0.0,1
27,11487622144000,0.61,0.08,7.43671,1
27,11487672284000,3.41,-7.12,-0.61291564,1
27,11487672284000,3.41,-7.12,-0.61291564,1
27,11487772290000,-19.61,-10.76,-0.50395286,1
27,11487822370000,-9.3,8.77,11.727119,1
27,11487872205000,-4.75,4.25,-3.0645783,1
27,11487922132000,-0.99,2.96,-2.3426998,1
27,11487972608000,3.26,6.66,3.445948,1
27,11487972608000,3.26,6.66,3.445948,1
27,0,0.0,0.0,0.0,1
27,11488142499000,-2.26,-4.86,10.841797,1
27,11488192304000,-2.68,-7.12,-9.888372,1
27,11488242322000,1.8,-10.15,-11.304889,1
27,11488292279000,10.65,-5.82,-1.4573772,1
27,11488292279000,10.65,-5.82,-1.4573772,1
27,11488292279000,10.65,-5.82,-1.4573772,1
27,11488292279000,10.65,-5.82,-1.4573772,1
27,0,0.0,0.0,0.0,1
27,11488612134000,-12.98,6.05,2.4516625,1
27,11488612134000,-12.98,6.05,2.4516625,1
27,11488712384000,0.76,5.48,-0.08172209,1
27,11488762342000,1.76,8.43,1.9477097,1
27,11488812299000,-11.69,-3.11,-14.137921,1
27,11488862317000,-19.61,-13.25,10.95076,1
27,11488912305000,1.38,-7.63,9.615966,1
27,11488962201000,1.04,-9.11,-11.645397,1
27,11489012219000,5.37,-14.86,-9.956474,1
27,11489062329000,9.62,-3.11,4.7535014,1
27,11489112256000,3.72,9.11,5.8976107,1
27,11489163739000,0.11,-3.26,-4.3312707,1
27,11489163739000,0.11,-3.26,-4.3312707,1
27,11489163739000,0.11,-3.26,-4.3312707,1
27,11489163739000,0.11,-3.26,-4.3312707,1
27,0,0.0,0.0,0.0,1
27,11489502301000,1.69,8.62,-1.3075534,1
27,11489552289000,2.07,-0.65,-4.7535014,1
27,11489552289000,2.07,-0.65,-4.7535014,1
27,11489662244000,-3.36,-6.66,17.079916,1
27,11489712201000,-1.76,-5.48,-9.234595,1
27,11489762372000,2.79,-2.98,-10.56939,1
27,11489812238000,9.96,0.61,-6.973618,1
27,11489862317000,4.37,1.57,-0.8036005,1
27,11489912213000,0.65,0.27,5.366417,1
27,11489962293000,4.71,-6.28,2.3699405,1
27,11490012281000,-9.34,-19.61,-14.206022,1
27,11490062329000,-18.5,-11.65,11.876944,1
27,11490112226000,-15.13,4.29,11.264028,1
27,11490162274000,-3.68,3.76,-2.1383946,1
27,11490212232000,0.0,8.16,-0.5720546,1
27,11490264325000,0.34,3.87,-0.7627395,1
27,11490322309000,-3.3,3.76,-2.5333846,1
27,11490372235000,-19.61,-19.46,1.7570249,1
27,11490422315000,-5.9,-3.91,14.628253,1
27,11490472241000,-4.75,-5.52,-6.66035,1
27,11490522290000,-0.15,-6.93,-11.372991,1
27,11490572248000,7.63,-5.01,-5.6252036,1
27,11490622388000,4.99,1.99,3.3778462,1
27,11490672559000,2.6,2.68,4.7535014,1
27,11490722241000,3.83,-5.13,-5.202973,1
27,11490772321000,-12.15,-17.35,-18.38747,1
27,11490822400000,-19.61,-14.75,4.372132,1
27,11490872266000,-17.58,9.96,10.310603,1
27,11490922284000,-3.68,4.44,-3.0645783,1
27,11490972333000,-2.26,4.33,-1.6889231,1
27,11491022229000,2.79,9.58,0.7627395,1
27,11491072309000,-1.69,5.43,-2.5606253,1
27,11491122235000,-13.67,-9.66,-6.2789803,1
27,11491172315000,-15.62,-13.82,7.6954966,1
27,11491222241000,0.11,-6.7,-0.42223078,1
27,11491272229000,0.65,-6.21,-9.697687,1
27,11491322431000,9.85,-5.67,-7.8861814,1
27,11491372266000,7.21,1.54,-1.4573772,1
27,11491422315000,0.61,3.87,7.3549876,1
27,11491472303000,2.64,-4.82,-1.4573772,1
27,11491522290000,-6.89,-16.89,-9.765789,1
27,11491572339000,-19.61,-16.82,2.9556155,1
27,11491622113000,-14.79,4.18,4.8216033,1
27,11491672284000,-12.3,4.75,6.5922484,1
27,11491722272000,-1.88,5.22,4.903325,1
27,11491772229000,3.3,6.51,1.7978859,1
27,11491822614000,0.61,6.02,-3.1463003,1
27,11491882245000,-9.81,-5.48,-9.615966,1
27,11491932202000,-12.64,-14.48,17.352324,1
27,11491982312000,-2.34,-6.89,2.4925237,1
27,11492032209000,-1.69,-4.52,-11.182305,1
27,11492082318000,9.34,-5.43,-11.032481,1
27,11492132245000,6.85,1.54,-1.607201,1
27,11492182263000,2.72,4.86,11.182305,1
27,11492232221000,1.18,-2.96,-3.1463003,1
27,11492282300000,-7.78,-14.52,-10.310603,1
27,11492332318000,-19.61,-17.39,-1.7297841,1
27,11492382337000,-14.18,7.97,7.6954966,1
27,11492432202000,-6.36,7.21,-2.0294318,1
27,11492482282000,-3.15,3.64,-3.214402,1
27,11492532239000,2.64,6.05,5.325556,1
27,11492582288000,2.72,6.4,-0.6946377,1
27,11492632306000,-9.47,-1.38,-3.636633,1
27,11492682294000,-19.61,-15.21,3.9499009,1
27,11492732251000,2.3,-6.51,9.847511,1
27,11492782270000,-0.08,-7.82,-11.413852,1
27,11492832257000,6.13,-11.14,-11.264028,1
27,11492882276000,8.96,-2.98,1.3756552,1
27,11492882276000,8.96,-2.98,1.3756552,1
27,11492882276000,8.96,-2.98,1.3756552,1
27,11492882276000,8.96,-2.98,1.3756552,1
27,0,0.0,0.0,0.0,1
27,11493072156000,-19.46,-19.61,-6.3198414,1
27,11493122205000,-19.61,-6.63,4.3312707,1
27,11493172254000,-9.92,11.84,6.0474343,1
27,11493172254000,-9.92,11.84,6.0474343,1
27,11493172254000,-9.92,11.84,6.0474343,1
27,11493252393000,-1.33,2.87,-0.10896278,1
27,0,0.0,0.0,0.0,1
27,11493412549000,-10.19,2.98,-13.906375,1
27,11493462293000,-17.24,-14.75,16.167353,1
27,11493512342000,2.07,-5.79,3.486809,1
27,11493562238000,-0.5,-4.63,-9.152874,1
27,11493612348000,6.82,-1.42,-6.701211,1
27,11493662335000,9.0,2.64,-4.1814466,1
27,11493712354000,1.65,2.22,6.5513873,1
27,11493762891000,3.64,-0.99,2.4516625,1
27,11493762891000,3.64,-0.99,2.4516625,1
27,11493762891000,3.64,-0.99,2.4516625,1
27,11493762891000,3.64,-0.99,2.4516625,1
27,11493762891000,3.64,-0.99,2.4516625,1
27,0,0.0,0.0,0.0,1
27,0,0.0,0.0,0.0,1
27,0,0.0,0.0,0.0,1
27,11494092237000,3.15,8.31,-0.08172209,1
27,11494092237000,3.15,8.31,-0.08172209,1
27,11494157056000,-0.76,5.56,-5.366417,1
27,0,0.0,0.0,0.0,1
27,0,0.0,0.0,0.0,1
27,11494312574000,-1.53,-6.13,-4.903325,1
27,11494422315000,8.85,-1.73,-2.4925237,1
27,11494472180000,1.65,4.44,5.8976107,1
27,11494472180000,1.65,4.44,5.8976107,1
27,11494472180000,1.65,4.44,5.8976107,1
27,11494582654000,1.23,-6.59,-4.372132,1
27,11494582654000,1.23,-6.59,-4.372132,1
27,0,0.0,0.0,0.0,1
27,11494734174000,-14.02,7.35,2.9147544,1
27,11494782209000,-3.06,2.96,2.5606253,1
27,0,0.0,0.0,0.0,1
27,0,0.0,0.0,0.0,1
27,11494993756000,-19.61,-11.07,4.2904096,1
27,11495042249000,3.11,-5.52,11.372991,1
27,11495092237000,-3.53,-6.28,-8.730643,1
27,11495142346000,4.25,-6.89,-13.1708765,1
27,11495192243000,7.63,-0.89,-3.636633,1
27,11495242261000,4.67,8.01,9.193735,1
27,11495292249000,3.57,-1.99,-2.4516625,1
27,11495342267000,-0.61,-3.3,-0.0,1
27,11495392255000,-19.27,-17.77,-2.3699405,1
27,11495442304000,-19.61,-12.53,-0.7627395,1
27,11495492200000,-11.8,10.15,2.6832085,1
27,11495542310000,-5.82,4.21,7.8861814,1
27,11495592206000,-2.68,5.41,1.1168685,1
27,11495642285000,1.8,12.98,1.4982382,1
27,11495692243000,0.57,-0.19,-6.238119,1
27,11495742261000,-14.6,1.65,-4.5628166,1
27,11495792218000,-9.62,-15.05,17.352324,1
27,11495842267000,-3.6,-5.13,-7.246025,1
27,11495892255000,1.33,-7.35,-15.935807,1
27,11495942304000,11.54,-4.86,-7.9679036,1
27,11495992230000,5.98,2.41,0.5720546,1
27,11496042310000,0.99,3.57,6.851035,1
27,11496092237000,4.18,-4.71,-2.2201166,1
27,11496142346000,-8.01,-12.6,-5.7477865,1
27,11496192243000,-19.61,-17.08,-12.639683,1
27,11496242292000,-15.32,7.16,7.9270425,1
27,11496292249000,-7.08,4.25,2.152015,1
27,11496342267000,-0.99,3.72,4.7126403,1
27,11496392255000,5.41,7.93,-1.56634,1
27,11496442304000,-1.08,5.22,-3.445948,1
27,11496492230000,-17.31,-6.93,-5.597963,1
27,11496542310000,-11.6,-10.27,10.651112,1
27,11496592237000,-5.41,-6.4,-0.7627395,1
27,11496642285000,-0.5,-6.13,-14.7916975,1
27,11496692273000,9.15,-6.66,-9.697687,1
27,11496742261000,7.25,1.46,1.920469,1
27,11496792157000,5.94,6.74,7.3141265,1
27,11496843305000,2.91,-4.59,-1.1168685,1
27,11496843305000,2.91,-4.59,-1.1168685,1
27,0,0.0,0.0,0.0,1
27,0,0.0,0.0,0.0,1
27,11497012158000,-16.04,11.35,3.1463003,1
27,11497012158000,-16.04,11.35,3.1463003,1
27,0,0.0,0.0,0.0,1
27,11497252118000,-2.83,-8.73,-9.302697,1
27,11497302289000,-19.61,-11.11,8.894087,1
27,11497352307000,1.57,-3.98,7.504812,1
27,11497402265000,-1.88,-5.09,-10.310603,1
27,11497452252000,6.47,-3.11,-11.454713,1
27,11497502301000,9.28,1.23,-5.325556,1
27,11497552198000,2.15,2.53,5.9793324,1
27,11497602277000,1.84,1.88,4.440233,1
27,11497652234000,4.14,-4.25,-8.049625,1
27,11497702252000,-19.61,-19.61,0.27240697,1
27,11497752240000,-11.92,-2.22,3.5276701,1
27,11497802289000,-10.19,10.53,1.4165162,1
27,11497852307000,-2.11,4.79,-2.4516625,1
27,11497902265000,0.42,4.99,-2.6832085,1
27,11497952283000,1.73,2.53,5.284695,1
27,11498002271000,-13.99,-9.23,3.255263,1
27,11498052228000,-19.61,-12.95,-7.3141265,1
27,11498102277000,-1.18,-2.6,6.851035,1
27,11498152265000,-1.65,-7.65,-12.489859,1
27,11498219495000,11.18,-8.69,-8.499097,1
27,11498272229000,4.82,6.74,8.19945,1
27,11498322370000,3.53,1.04,1.1441092,1
27,11498372205000,-1.08,-6.4,1.4982382,1
27,11498422132000,-10.65,-14.48,-14.437569,1
27,11498473706000,-19.61,-19.61,2.4925237,1
27,11498473706000,-19.61,-19.61,2.4925237,1
27,11498473706000,-19.61,-19.61,2.4925237,1
27,0,0.0,0.0,0.0,1
27,0,0.0,0.0,0.0,1
27,0,0.0,0.0,0.0,1
27,11498693677000,0.65,8.31,-1.4982382,1
27,11498693677000,0.65,8.31,-1.4982382,1
27,0,0.0,0.0,0.0,1
27,0,0.0,0.0,0.0,1
27,11498922345000,-0.46,-5.67,-9.575105,1
27,11498972364000,6.51,-3.06,-11.604536,1
27,11499022260000,10.92,1.31,-5.597963,1
27,11499072309000,6.36,3.34,-1.2666923,1
27,11499122296000,1.18,-0.84,6.4015636,1
27,11499172284000,2.72,-8.92,1.7978859,1
27,11499222241000,-16.09,-18.39,-15.363752,1
27,11499272260000,-19.61,-8.39,0.53119355,1
27,11499322217000,-15.75,7.5,7.8589406,1
27,11499322217000,-15.75,7.5,7.8589406,1
27,11499382855000,-3.02,3.41,-1.2666923,1
27,11499432874000,3.17,10.57,4.944186,1
27,11499482862000,1.88,5.37,-0.10896278,1
27,11499532819000,-8.31,-2.91,-5.407278,1
27,11499582898000,-19.61,-17.39,4.0180025,1
27,11499632917000,0.99,-4.67,11.372991,1
27,11499682874000,-2.79,-7.16,-8.921328,1
27,11499732801000,4.86,-6.7,-11.264028,1
27,11499782849000,10.0,-0.3,-3.759216,1
27,11499832837000,0.99,6.44,8.471856,1
27,11499882825000,3.79,-0.19,0.88532263,1
27,11499932904000,2.76,-4.9,0.23154591,1
27,11499982129000,-17.08,-17.5,-6.66035,1
27,11500034894000,-19.61,-13.38,-4.0180025,1
27,11500034894000,-19.61,-13.38,-4.0180025,1
27,0,0.0,0.0,0.0,1
27,0,0.0,0.0,0.0,1
27,0,0.0,0.0,0.0,1
27,0,0.0,0.0,0.0,1
27,0,0.0,0.0,0.0,1
27,11500442304000,-5.33,-7.4,-7.3549876,1
27,11500492322000,3.64,-6.17,-14.941522,1
27,11500542310000,11.69,-0.69,-6.8237944,1
27,11500592237000,3.91,6.59,5.7477865,1
27,11500642682000,2.96,2.37,1.7978859,1
27,11500692334000,0.76,-3.17,0.5720546,1
27,11500742261000,-14.56,-15.09,-12.53072,1
27,11500792249000,-19.61,-17.82,1.4982382,1
27,11500842328000,-17.2,8.43,4.4810944,1
27,11500892285000,-10.23,4.52,6.2789803,1
27,11500942243000,-4.67,11.37,5.706926,1
27,11500992200000,0.46,11.88,-0.88532263,1
27,11501042279000,1.04,3.57,-2.9556155,1
27,11501092298000,4.33,-11.11,-9.615966,1
27,11501142285000,-19.61,-10.08,15.173067,1
27,11501192212000,0.53,-0.19,4.0180025,1
27,11501242261000,0.53,-5.48,-15.091345,1
27,11501292249000,11.65,-6.93,-13.443283,1
27,11501342267000,9.85,1.5,11.372991,1
27,11501392224000,0.93,5.13,11.372991,1
27,11501442334000,2.56,-5.98,4.7943625,1
27,11501442334000,2.56,-5.98,4.7943625,1
27,11501542249000,-19.61,-19.61,-9.275456,1
27,11501592206000,-19.61,-1.18,1.6480621,1
27,11501592206000,-19.61,-1.18,1.6480621,1
27,11501702283000,-6.24,7.59,5.7477865,1
27,11501702283000,-6.24,7.59,5.7477865,1
27,11501752240000,2.07,14.41,1.4573772,1
27,11501802289000,1.73,5.24,-1.3075534,1
27,11501902234000,-19.61,-8.85,13.565866,1
27,11501902234000,-19.61,-8.85,13.565866,1
27,11502002301000,-1.31,-4.71,-10.691973,1
27,11502002301000,-1.31,-4.71,-10.691973,1
27,11502052259000,7.44,-6.93,-14.9006605,1
27,11502152234000,4.86,1.76,3.718355,1
27,11502152234000,4.86,1.76,3.718355,1
27,11502202252000,1.18,-2.37,5.829509,1
27,11502302259000,-18.66,-19.42,-6.782933,1
27,11502302259000,-18.66,-19.42,-6.782933,1
27,11502352246000,-19.61,-4.06,-5.202973,1
27,11502402295000,-11.65,10.38,12.912089,1
27,11502452161000,-5.18,4.25,3.6774938,1
27,11502552198000,1.88,4.56,0.61291564,1
27,11502552198000,1.88,4.56,0.61291564,1
27,11502602277000,-9.15,-2.41,-8.240311,1
27,11502662305000,-19.61,-17.46,3.8681788,1
27,11502722241000,1.12,-4.06,4.5219555,1
27,11502772199000,-2.53,-6.09,-10.310603,1
27,11502822309000,6.82,-4.4,-8.662541,1
27,11502872205000,7.89,1.69,-2.1792557,1
27,11502922315000,1.61,2.79,6.2789803,1
27,11502972241000,3.6,-2.37,2.9556155,1
27,11502972241000,3.6,-2.37,2.9556155,1
27,11503043592000,-6.4,-17.43,-17.079916,1
27,0,0.0,0.0,0.0,1
27,11503162274000,-12.79,6.85,4.6036777,1
27,11503212445000,-2.96,3.64,0.313268,1
27,11503212445000,-2.96,3.64,0.313268,1
27,0,0.0,0.0,0.0,1
27,11503372876000,-7.63,0.53,-11.563675,1
27,11503432294000,-19.61,-17.86,10.269742,1
27,11503482221000,2.3,-1.04,7.3958488,1
27,11503532361000,-2.96,-4.59,-8.308413,1
27,11503582318000,6.97,-1.76,-13.1708765,1
27,11503632245000,10.08,2.6,-4.630918,1
27,11503682263000,-1.99,5.37,9.466142,1
27,11503732312000,4.14,-0.5,1.1849703,1
27,11503732312000,4.14,-0.5,1.1849703,1
27,11503732312000,4.14,-0.5,1.1849703,1
27,0,0.0,0.0,0.0,1
27,11503932172000,-14.4,6.66,2.3018389,1
27,11503982190000,-2.3,3.3,-2.3426998,1
27,11504032239000,-0.38,2.98,-0.040861044,1
27,11504082257000,4.14,8.47,2.2609777,1
27,11504132123000,-4.82,1.88,-7.8180795,1
27,11504182141000,-19.61,-12.72,7.3549876,1
27,0,0.0,0.0,0.0,1
27,0,0.0,0.0,0.0,1
27,11504372205000,9.96,-3.68,-8.580819,1
27,11504422284000,5.33,2.34,0.7627395,1
27,11504472241000,3.15,3.64,8.076866,1
27,11504522260000,2.68,-3.34,-1.4165162,1
27,11504572278000,-10.23,-14.82,2.6423476,1
27,11504622266000,-19.61,-16.09,-3.6774938,1
27,11504672223000,-5.6,6.66,7.8589406,1
27,11504722241000,-6.32,3.11,0.6537767,1
27,11504772229000,-2.37,2.07,-1.3075534,1
27,11504822278000,2.45,4.25,1.334794,1
27,11504872266000,3.02,7.12,0.313268,1
27,11504922223000,-17.58,-0.42,-5.7886477,1
27,11504972241000,-19.61,-15.85,3.6774938,1
27,11505022229000,1.46,-6.85,8.390134,1
27,11505072217000,0.04,-6.21,-10.147159,1
27,11505122266000,7.78,-6.89,-9.847511,1
27,11505172254000,8.01,0.08,-2.4108016,1
27,11505222241000,1.76,3.17,7.164303,1
27,11505272260000,2.41,-1.04,2.5333846,1
27,11505272260000,2.41,-1.04,2.5333846,1
27,11505372113000,-19.61,-19.46,-0.27240697,1
27,0,0.0,0.0,0.0,1
27,11505662580000,-8.12,4.1,-5.09401,1
27,11505712171000,-19.61,-17.67,-0.50395286,1
27,11505762342000,-4.02,-2.26,14.709975,1
27,11505812299000,-2.87,-6.63,-7.6273947,1
27,11505862317000,3.02,-7.82,-12.762266,1
27,11505912274000,9.23,-4.18,-3.5276701,1
27,11505962323000,4.06,5.98,6.3607025,1
27,11506012281000,4.25,1.99,0.92618364,1
27,11506062268000,3.06,-4.9,-1.2258313,1
27,11506112287000,-17.05,-19.0,-1.334794,1
27,11506162305000,-19.61,-8.66,-3.405087,1
27,11506212262000,-7.27,8.58,7.6273947,1
27,11506262311000,-4.52,2.76,0.040861044,1
27,11506312268000,-0.38,3.6,1.0351465,1
27,11506362287000,4.75,9.47,-0.8036005,1
27,11506412274000,-7.08,5.71,-5.434519,1
27,11506462293000,-19.61,-15.28,-2.3426998,1
27,11506512281000,-5.71,-4.56,14.328606,1
27,11506562360000,-4.99,-6.93,-3.3642259,1
27,11506612287000,1.42,-5.48,-12.762266,1
27,11506662305000,8.5,-1.76,-6.2789803,1
27,11506712293000,5.01,2.53,3.214402,1
27,11506762311000,4.21,2.41,3.8681788,1
27,11506812268000,1.76,-3.3,-2.0294318,1
27,11506862317000,-12.3,-14.67,-9.493382,1
27,11506912274000,-19.61,-15.09,-2.070293,1
27,11506962293000,-9.15,9.66,7.9679036,1
27,11507012281000,-6.47,3.91,0.5720546,1
27,11507062299000,-2.14,4.4,1.607201,1
27,11507112287000,3.15,8.81,1.920469,1
27,11507162335000,-2.64,4.56,-6.1291566,1
27,11507212262000,-18.07,-5.09,-2.3699405,1
27,11507262311000,-11.75,-12.26,13.443283,1
27,11507312268000,-2.98,-9.34,-2.2609777,1
27,11507362287000,-0.8,-7.65,-11.454713,1
27,11507412274000,8.66,-7.5,-8.880466,1
27,11507462293000,5.22,1.23,1.607201,1
27,11507512219000,2.34,5.71,4.944186,1
27,11507562268000,1.92,-2.83,-2.6014864,1
27,11507612866000,-5.75,-7.27,-4.8216033,1
27,11507612866000,-5.75,-7.27,-4.8216033,1
27,11507612866000,-5.75,-7.27,-4.8216033,1
27,11507612866000,-5.75,-7.27,-4.8216033,1
27,0,0.0,0.0,0.0,1
27,11507882245000,2.98,7.89,3.7864566,1
27,11507932782000,-2.49,-0.72,-7.6546354,1
27,11507982221000,-19.61,-1.33,2.2609777,1
27,11508032636000,-11.03,-4.94,15.976667,1
27,11508082257000,-6.7,-7.08,-4.2086873,1
27,11508132306000,0.65,-7.74,-14.982383,1
27,11508182233000,9.0,-6.82,-3.8273177,1
27,11508232343000,6.17,4.6,3.636633,1
27,11508282270000,2.68,5.41,2.8738933,1
27,11508332318000,1.57,-3.06,-3.759216,1
27,11508382245000,-10.08,-15.75,-16.3989,1
27,11508432263000,-19.61,-16.63,10.269742,1
27,11508482251000,-15.09,7.01,4.2086873,1
27,11508532270000,-12.37,4.99,0.38136974,1
27,11508582349000,-3.79,4.48,0.3405087,1
27,11508632276000,1.61,11.37,2.4108016,1
27,11508682233000,0.31,6.09,-2.1111538,1
27,11508732648000,-5.09,-6.59,-7.1234417,1
27,11508782239000,-19.61,-10.08,7.7363577,1
27,11508832288000,2.56,-5.33,9.152874,1
27,11508882245000,-3.91,-5.75,-11.795221,1
27,11508932294000,6.97,-5.48,-13.988097,1
27,11508982282000,11.07,0.34,-4.671779,1
27,11509032270000,-0.38,3.95,8.662541,1
27,11509082288000,2.96,1.42,2.4516625,1
27,11509132306000,2.6,-4.02,-6.4015636,1
27,11509182233000,-14.29,-19.5,-12.680544,1
27,11509232312000,-19.61,-9.19,3.173541,1
27,11509282270000,-14.56,14.52,9.043911,1
27,11509332288000,-5.05,4.21,-3.636633,1
27,11509382215000,-0.8,4.56,-0.0,1
27,11509432294000,3.99,8.12,2.5606253,1
27,11509482282000,-3.3,2.6,-7.8861814,1
27,11509532300000,-19.42,-6.7,0.61291564,1
27,11509582288000,-4.48,-5.48,15.363752,1
27,11509632306000,-4.18,-7.31,-5.284695,1
27,11509682294000,2.98,-5.48,-13.565866,1
27,11509732312000,11.69,-2.83,-7.04172,1
27,11509782239000,3.72,3.26,7.205164,1
27,11509832288000,4.75,0.89,3.214402,1
27,11509882276000,2.11,-2.96,-3.173541,1
27,11509932263000,-17.01,-12.87,-15.935807,1
27,11509932263000,-17.01,-12.87,-15.935807,1
27,11510013257000,-15.83,5.05,8.539958,1
27,0,0.0,0.0,0.0,1
27,0,0.0,0.0,0.0,1
27,11510162763000,2.34,3.41,0.313268,1
27,11510162763000,2.34,3.41,0.313268,1
27,11510262311000,-17.86,-7.21,-1.3756552,1
27,11510312299000,-13.63,-8.81,12.639683,1
27,11510362409000,-1.46,-6.17,3.336985,1
27,11510412244000,-1.04,-5.79,-10.106298,1
27,11510462293000,6.13,-7.12,-7.4639506,1
27,11510512250000,5.28,-0.46,-0.14982383,1
27,11510562299000,2.64,1.8,1.6889231,1
27,11510612256000,2.41,0.42,1.5390993,1
27,11510662305000,-2.91,-13.67,-13.824653,1
27,11510712232000,-19.61,-17.62,6.701211,1
27,11510762311000,-12.56,7.12,12.4489975,1
27,11510762311000,-12.56,7.12,12.4489975,1
27,11510762311000,-12.56,7.12,12.4489975,1
27,0,0.0,0.0,0.0,1
27,0,0.0,0.0,0.0,1
27,11511012311000,-13.78,9.77,-14.560152,1
27,11511062329000,-19.61,-16.63,15.595298,1
27,11511112409000,4.6,-4.67,9.425281,1
27,11511162213000,-2.45,-5.75,-7.4639506,1
27,11511212415000,4.63,-1.99,-6.0201936,1
27,11511262403000,10.69,1.33,-6.5513873,1
27,11511312268000,3.45,0.65,1.5390993,1
27,11511362256000,6.17,-10.38,9.425281,1
27,11511412274000,-0.38,-19.5,-11.686258,1
27,11511412274000,-0.38,-19.5,-11.686258,1
27,0,0.0,0.0,0.0,1
27,0,0.0,0.0,0.0,1
27,11511582257000,0.61,2.37,-2.4516625,1
27,11511582257000,0.61,2.37,-2.4516625,1
27,11511632337000,-0.53,6.21,0.46309182,1
27,0,0.0,0.0,0.0,1
27,11511792157000,-19.61,-18.07,-7.43671,1
27,11511842176000,3.72,-10.76,17.583868,1
27,11511892469000,1.46,-8.69,-6.5513873,1
27,11511942304000,7.06,-2.34,-7.8589406,1
27,11511992383000,11.03,2.07,-2.7240696,1
27,11512042249000,0.57,2.37,2.6832085,1
27,11512092328000,-0.15,0.23,5.706926,1
27,11512142316000,16.89,-18.62,-7.5865335,1
27,11512192243000,-17.05,-15.55,7.164303,1
27,11512242292000,-18.5,-4.9,-4.862464,1
27,11512292249000,-13.59,3.21,-3.336985,1
27,11512342298000,-2.72,2.41,-1.7570249,1
27,11512392255000,0.53,4.37,1.2258313,1
27,11512442304000,4.67,9.34,2.3018389,1
27,11512492200000,-13.06,8.92,-6.1700177,1
27,11512542310000,-19.61,-19.19,6.1291566,1
27,11512592481000,-0.99,-4.71,13.756551,1
27,11512642285000,-1.08,-8.69,-9.384419,1
27,11512692243000,4.29,-7.78,-9.656827,1
27,11512742261000,14.71,-0.91,-4.7535014,1
27,11512792249000,-0.89,4.82,5.5571017,1
27,11512842298000,3.68,2.07,2.8738933,1
27,11512892316000,4.63,-7.12,-7.9270425,1
27,11512942273000,-18.24,-19.11,-15.213928,1
27,11512992230000,-19.61,-9.53,-2.1111538,1
27,11513042340000,-14.98,10.38,6.782933,1
27,11513092298000,-3.17,3.64,0.95342433,1
27,11513142224000,1.04,9.53,-0.6537767,1
27,11513192212000,2.6,7.21,1.5390993,1
27,11513242261000,-5.18,6.13,-3.718355,1
27,11513292249000,-19.57,-17.88,-8.076866,1
27,11513342298000,-2.26,-5.82,15.636159,1
27,11513392224000,-2.49,-6.32,-6.851035,1
27,11513442304000,4.25,-4.44,-13.293459,1
27,11513492230000,12.79,-1.5,-5.284695,1
27,11513542279000,7.06,1.04,2.5333846,1
27,11513592206000,1.42,2.49,7.6273947,1
27,11513642133000,6.51,-10.5,-1.0760075,1
27,11513692243000,-14.98,-15.32,-14.669114,1
27,0,0.0,0.0,0.0,1
27,0,0.0,0.0,0.0,1
27,11513802167000,-12.98,6.44,13.402422,1
27,11513902265000,-0.11,9.77,4.2904096,1
27,11513902265000,-0.11,9.77,4.2904096,1
27,11513902265000,-0.11,9.77,4.2904096,1
27,11513902265000,-0.11,9.77,4.2904096,1
27,0,0.0,0.0,0.0,1
27,11514122205000,4.75,0.8,10.732834,1
27,11514172315000,-2.49,-8.01,-8.62168,1
27,11514222272000,6.59,-3.95,-14.437569,1
27,11514272382000,15.02,1.18,-4.399372,1
27,11514322278000,-4.14,5.01,6.932757,1
27,11514372266000,0.95,-2.96,1.5390993,1
27,11514422315000,6.97,-6.21,-0.27240697,1
27,11514472241000,-9.77,-17.67,-14.601013,1
27,11514522229000,-19.61,-14.56,5.706926,1
27,11514572309000,-14.52,7.27,11.182305,1
27,11514622205000,-2.87,3.83,-2.982856,1
27,11514672315000,-0.61,2.72,-2.3426998,1
27,11514722241000,4.21,7.25,-0.14982383,1
27,11514772260000,-4.52,6.63,-4.399372,1
27,11514822217000,-19.23,-11.07,0.313268,1
27,11514872296000,-8.77,-9.47,14.818938,1
27,11514922223000,0.42,-6.28,-3.759216,1
27,11514972303000,1.46,-10.5,-10.691973,1
27,11515022199000,7.97,-11.41,-8.267551,1
27,11515072309000,9.34,5.28,9.112013,1
27,11515122235000,2.72,4.99,-1.2258313,1
27,11515172284000,0.76,-6.17,-4.862464,1
27,11515222211000,-14.02,-17.58,-14.09706,1
27,11515272260000,-19.61,-16.17,5.434519,1
27,11515322248000,-14.44,7.5,9.425281,1
27,11515372296000,-7.08,6.24,-6.0474343,1
27,11515423139000,-2.37,3.6,-1.4573772,1
27,11515473004000,2.96,11.75,3.759216,1
27,11515522321000,-3.21,5.28,-3.0645783,1
27,11515572248000,-17.54,-2.68,-7.3958488,1
27,11515622205000,-15.75,-15.13,13.484144,1
27,11515672284000,-0.65,-8.05,-0.7218784,1
27,11515722241000,0.27,-11.84,-13.33432,1
27,11515772290000,8.12,-15.28,-8.008764,1
27,11515822248000,9.62,2.07,8.349273,1
27,11515872327000,0.04,9.72,6.891896,1
27,11515922132000,-1.65,-3.36,-3.9499009,1
27,11515972211000,-18.35,-8.01,-8.158588,1
27,11516023572000,-19.61,-18.05,-0.42223078,1
27,11516023572000,-19.61,-18.05,-0.42223078,1
27,0,0.0,0.0,0.0,1
27,0,0.0,0.0,0.0,1
27,0,0.0,0.0,0.0,1
27,11516232160000,4.33,10.57,-1.0760075,1
27,11516282270000,1.04,5.37,-0.8036005,1
27,11516332288000,-8.92,-5.98,-12.217452,1
27,11516382398000,-19.61,-15.4,7.8180795,1
27,11516432233000,0.57,-0.76,7.0553403,1
27,11516482373000,-3.72,-5.6,-10.691973,1
27,11516532239000,7.59,-6.24,-13.252599,1
27,11516582288000,9.53,0.19,-2.4516625,1
27,11516632245000,5.41,4.25,4.7535014,1
27,11516682263000,0.93,0.04,6.701211,1
27,11516732312000,3.06,-6.09,-5.407278,1
27,11516782239000,-18.81,-19.61,-6.1700177,1
27,11516832227000,-16.97,-2.64,2.9556155,1
27,11516882306000,-10.15,9.11,-1.6480621,1
27,11516932202000,-0.99,3.57,-4.099725,1
27,11516982343000,-0.34,3.02,0.88532263,1
27,11517032239000,1.61,5.71,1.7297841,1
27,11517082257000,-14.33,-2.49,-1.6480621,1
27,11517132215000,-19.34,-14.18,4.8216033,1
27,11517182294000,-0.27,-5.13,4.0588636,1
27,11517232221000,-2.45,-11.03,-13.021052,1
27,11517282270000,8.28,-18.28,-12.721405,1
27,11517332624000,12.18,1.73,10.882658,1
27,11517382459000,1.27,13.4,9.343558,1
27,11517432111000,0.53,-3.17,-4.2495484,1
27,11517482862000,-7.16,-7.86,-12.721405,1
27,11517482862000,-7.16,-7.86,-12.721405,1
27,11517482862000,-7.16,-7.86,-12.721405,1
27,11517482862000,-7.16,-7.86,-12.721405,1
27,0,0.0,0.0,0.0,1
27,11517742169000,-0.3,12.95,1.2666923,1
27,11517792188000,0.08,6.36,-3.1463003,1
27,11517842298000,1.84,-10.65,-3.568531,1
27,11517892285000,-19.61,-11.37,2.9556155,1
27,11517942304000,2.22,-4.33,8.471856,1
27,11517992230000,0.04,-5.6,-10.923519,1
27,11518042279000,12.26,-5.79,-14.246883,1
27,11518092267000,11.8,1.61,-1.0760075,1
27,11518142285000,-6.43,7.89,7.246025,1
27,11518202313000,6.82,-5.71,-0.50395286,1
27,11518262311000,-2.79,-10.23,-3.759216,1
27,11518262311000,-2.79,-10.23,-3.759216,1
27,11518362226000,-15.83,-0.15,5.597963,1
27,11518412305000,-14.4,7.74,4.5628166,1
27,11518412305000,-14.4,7.74,4.5628166,1
27,11518472303000,-3.49,3.79,-0.19068487,1
27,11518522260000,3.72,12.15,0.19068487,1
27,11518572309000,0.76,5.71,0.50395286,1
27,11518622266000,-9.47,-4.99,-8.076866,1
27,11518672315000,-19.61,-16.13,12.53072,1
27,11518722272000,3.91,-5.13,8.281172,1
27,11518772290000,-1.38,-7.04,-11.223166,1
27,11518822278000,11.92,-8.05,-13.375181,1
27,11518872296000,9.7,0.11,0.38136974,1
27,11518922254000,-2.18,5.86,9.152874,1
27,11518972303000,5.33,-4.56,-2.4108016,1
27,11518972303000,5.33,-4.56,-2.4108016,1
27,11518972303000,5.33,-4.56,-2.4108016,1
27,11519052808000,-14.6,-16.63,-10.228881,1
27,0,0.0,0.0,0.0,1
27,11519262342000,5.98,11.03,3.759216,1
27,11519312207000,0.8,5.94,-0.5720546,1
27,11519362348000,-13.99,-1.65,-7.3141265,1
27,11519412274000,-19.3,-16.51,14.601013,1
27,11519462293000,2.72,-3.72,9.193735,1
27,11519512189000,-2.87,-5.41,-8.921328,1
27,11519562207000,8.39,-6.05,-11.114203,1
27,11519612256000,8.58,-0.53,-0.7218784,1
27,11519612256000,8.58,-0.53,-0.7218784,1
27,11519612256000,8.58,-0.53,-0.7218784,1
27,11519684095000,-3.79,5.43,8.499097,1
27,0,0.0,0.0,0.0,1
27,11519843183000,-19.61,-13.67,-5.7477865,1
27,11519902326000,-11.73,6.51,10.95076,1
27,11519952222000,-1.65,4.33,-3.405087,1
27,11520002271000,-0.19,2.6,-1.9885708,1
27,11520052228000,3.99,6.55,1.3756552,1
27,11520105207000,-7.21,0.95,-9.466142,1
27,11520162274000,-19.61,-14.67,12.4489975,1
27,11520212232000,1.27,-6.89,8.62168,1
27,11520263196000,-1.53,-8.43,-12.14935,1
27,11520312268000,11.69,-12.56,-12.489859,1
27,11520362287000,7.59,2.03,6.66035,1
27,11520412244000,0.93,6.85,5.407278,1
27,11520462293000,3.21,-3.11,-1.2258313,1
27,11520512250000,-6.66,-7.46,-4.099725,1
27,11520562238000,-19.61,-19.42,-5.938472,1
27,11520612256000,-19.61,1.88,0.27240697,1
27,11520662244000,-14.67,9.72,9.956474,1
27,11520712232000,-4.18,3.83,2.0294318,1
27,11520762342000,0.69,13.48,2.4925237,1
27,11520812238000,2.18,7.55,-0.7627395,1
27,11520862256000,-0.89,2.37,-6.1700177,1
27,11520912305000,-14.67,-7.12,-10.079058,1
27,11520962262000,-4.94,-11.95,19.19107,1
27,11521012281000,-3.53,-8.05,-7.4639506,1
27,11521062299000,1.99,-7.16,-12.680544,1
27,11521112226000,13.76,-5.41,-8.390134,1
27,11521162305000,6.28,3.45,1.6889231,1
27,11521212201000,1.92,3.17,6.1700177,1
27,11521262403000,1.92,-6.21,0.27240697,1
27,11521312238000,-11.73,-16.55,-5.5162406,1
27,11521362317000,-19.61,-12.18,-3.0237172,1
27,11521412244000,-7.12,1.92,8.689782,1
27,11521462293000,-6.74,2.72,0.9942854,1
27,11521512342000,-0.57,4.4,4.671779,1
27,11521562299000,4.67,8.05,-0.10896278,1
27,11521612256000,-1.76,4.37,-6.1700177,1
27,11521662305000,-16.74,-6.63,1.1168685,1
27,11521712232000,-7.44,-6.89,15.595298,1
27,11521762281000,-1.65,-6.63,-1.4982382,1
27,11521812238000,-0.27,-7.01,-13.906375,1
27,11521863263000,8.39,-4.48,-6.2108784,1
27,11521912152000,5.63,3.6,4.7943625,1
27,11521963025000,4.75,3.41,4.671779,1
27,11522012250000,3.6,-6.05,-0.3405087,1
27,11522062299000,-12.3,-14.02,-7.04172,1
27,11522122266000,-19.61,-10.76,-7.205164,1
27,11522122266000,-19.61,-10.76,-7.205164,1
27,11522182843000,-12.91,9.23,5.9793324,1
27,11522232862000,-3.76,3.34,-1.2666923,1
27,11522282788000,-0.04,4.82,0.46309182,1
27,11522332898000,4.02,8.66,2.3018389,1
27,11522382917000,-7.82,0.5,-10.841797,1
27,11522432874000,-19.61,-8.96,5.597963,1
27,11522482831000,-0.27,-7.31,11.686258,1
27,11522532788000,-0.27,-9.23,-8.730643,1
27,11522582837000,4.44,-15.94,-11.876944,1
27,11522632825000,10.19,-7.04,2.7649305,1
27,11522712445000,1.54,5.05,-1.3075534,1
27,11522712445000,1.54,5.05,-1.3075534,1
27,0,0.0,0.0,0.0,1
27,11522922376000,-13.06,7.78,11.454713,1
27,11522922376000,-13.06,7.78,11.454713,1
27,11522922376000,-13.06,7.78,11.454713,1
27,0,0.0,0.0,0.0,1
27,0,0.0,0.0,0.0,1
27,11523152295000,-10.23,7.44,-10.18802,1
27,11523202252000,-19.61,-16.97,10.991621,1
27,11523252362000,6.21,-2.6,6.0201936,1
27,11523252362000,6.21,-2.6,6.0201936,1
27,11523252362000,6.21,-2.6,6.0201936,1
27,0,0.0,0.0,0.0,1
27,11523432263000,3.49,1.95,3.9090397,1
27,11523482221000,-2.64,4.63,8.349273,1
27,11523482221000,-2.64,4.63,8.349273,1
27,11523482221000,-2.64,4.63,8.349273,1
27,0,0.0,0.0,0.0,1
27,11523692304000,-11.92,1.31,6.66035,1
27,11523742200000,-2.98,4.02,-1.8387469,1
27,11523742200000,-2.98,4.02,-1.8387469,1
27,11523792371000,0.34,8.05,0.42223078,1
27,11523892285000,-0.61,4.06,-1.7570249,1
27,11523892285000,-0.61,4.06,-1.7570249,1
27,11523992230000,-6.36,-6.74,15.091345,1
27,11523992230000,-6.36,-6.74,15.091345,1
27,11524092237000,1.84,-7.55,-9.765789,1
27,11524092237000,1.84,-7.55,-9.765789,1
27,11524192243000,6.44,1.99,0.7627395,1
27,11524192243000,6.44,1.99,0.7627395,1
27,11524292249000,4.4,-6.05,-2.3699405,1
27,11524292249000,4.4,-6.05,-2.3699405,1
27,11524392285000,-19.61,-13.59,9.656827,1
27,11524392285000,-19.61,-13.59,9.656827,1
27,11524492230000,-6.97,3.17,-0.95342433,1
27,11524492230000,-6.97,3.17,-0.95342433,1
27,11524592237000,5.05,8.08,1.0760075,1
27,11524592237000,5.05,8.08,1.0760075,1
27,11524692304000,-12.41,0.42,-1.525479,1
27,11524692304000,-12.41,0.42,-1.525479,1
27,11524792218000,2.49,-10.19,7.0553403,1
27,11524842267000,0.95,-11.03,-11.836082,1
27,11524892255000,8.66,-13.14,-8.962189,1
27,11524892255000,8.66,-13.14,-8.962189,1
27,11524992139000,1.57,8.16,7.205164,1
27,11524992139000,1.57,8.16,7.205164,1
27,11525042523000,1.14,-4.33,-1.7297841,1
27,11525096814000,-6.55,-8.69,-2.6014864,1
27,0,0.0,0.0,0.0,1
27,0,0.0,0.0,0.0,1
27,0,0.0,0.0,0.0,1
27,0,0.0,0.0,0.0,1
27,11525312146000,-1.12,3.38,-2.5333846,1
27,11525412244000,-0.53,4.56,-5.938472,1
27,11525462354000,-19.23,-5.24,-1.2666923,1
27,11525512250000,-8.54,-6.47,14.246883,1
27,11525562268000,-2.6,-7.97,-3.759216,1
27,11525612317000,1.31,-11.26,-16.467001,1
27,11525662366000,10.46,-6.74,-4.9850473,1
27,11525712201000,6.97,9.85,11.958665,1
27,11525762281000,3.79,3.64,-0.19068487,1
27,11525812238000,0.99,-5.43,-2.1383946,1
27,11525862500000,-8.66,-14.79,-4.944186,1
27,11525912213000,-19.61,-19.42,-1.334794,1
27,11525962262000,-16.55,9.11,2.152015,1
27,11526012281000,-9.58,6.09,3.1463003,1
27,11526062390000,-0.04,5.24,4.3312707,1
27,11526112256000,4.94,10.0,-0.14982383,1
27,11526112256000,4.94,10.0,-0.14982383,1
27,11526112256000,4.94,10.0,-0.14982383,1
27,11526262342000,-19.61,-11.37,5.5571017,1
27,11526312238000,4.86,-3.06,8.580819,1
27,11526362348000,-2.49,-6.02,-11.223166,1
27,11526412122000,7.01,-4.52,-11.75436,1
27,11526462659000,9.38,0.89,-2.4108016,1
27,11526462659000,9.38,0.89,-2.4108016,1
27,11526462659000,9.38,0.89,-2.4108016,1
27,0,0.0,0.0,0.0,1
27,0,0.0,0.0,0.0,1
27,11526672132000,-19.61,-16.32,10.460427,1
27,11526722333000,-13.91,6.13,7.9679036,1
27,11526772290000,-5.28,6.51,-7.7772183,1
27,11526822248000,-0.8,3.99,-3.1054392,1
27,11526882337000,1.88,4.37,1.7297841,1
27,11526882337000,1.88,4.37,1.7297841,1
27,11526948804000,-4.14,4.02,-2.8738933,1
27,0,0.0,0.0,0.0,1
27,11527102185000,-2.18,-6.78,-9.084772,1
27,11527152204000,5.75,-11.84,-15.4046135,1
27,11527202313000,9.7,-5.82,-1.9885708,1
27,11527202313000,9.7,-5.82,-1.9885708,1
27,11527202313000,9.7,-5.82,-1.9885708,1
27,11527202313000,9.7,-5.82,-1.9885708,1
27,11527202313000,9.7,-5.82,-1.9885708,1
27,0,0.0,0.0,0.0,1
27,0,0.0,0.0,0.0,1
27,11527602338000,0.27,6.32,4.7943625,1
27,11527652173000,3.87,7.89,0.92618364,1
27,11527702710000,-5.6,5.83,-7.7772183,1
27,11527752271000,-18.66,-8.92,-8.117727,1
27,11527802320000,-7.78,-7.5,17.079916,1
27,11527852216000,-4.75,-5.86,-3.0645783,1
27,11527902295000,-1.46,-7.55,-16.821129,1
27,11527952283000,10.84,-5.94,-9.888372,1
27,11528002271000,8.12,4.25,4.862464,1
27,11528052228000,1.99,5.48,3.6774938,1
27,11528102277000,4.1,-1.08,1.7297841,1
27,11528152143000,-18.31,-14.1,6.701211,1
27,11528202313000,-19.61,-16.85,-11.114203,1
27,11528202313000,-19.61,-16.85,-11.114203,1
27,0,0.0,0.0,0.0,1
27,11528332318000,-2.96,3.06,-0.42223078,1
27,11528332318000,-2.96,3.06,-0.42223078,1
27,11528332318000,-2.96,3.06,-0.42223078,1
27,0,0.0,0.0,0.0,1
27,11528542279000,-19.61,-10.0,4.372132,1
27,11528542279000,-19.61,-10.0,4.372132,1
27,11528592206000,2.07,-4.52,13.102775,1
27,11528642591000,-3.45,-5.43,-9.956474,1
27,11528742261000,8.62,-2.53,-4.671779,1
27,11528742261000,8.62,-2.53,-4.671779,1
27,11528742261000,8.62,-2.53,-4.671779,1
27,11528873761000,2.6,-0.15,1.6480621,1
27,11528873761000,2.6,-0.15,1.6480621,1
27,0,0.0,0.0,0.0,1
27,11528992139000,-18.89,-4.29,-4.0588636,1
27,11529042127000,-10.88,8.16,4.440233,1
27,11529042127000,-10.88,8.16,4.440233,1
27,0,0.0,0.0,0.0,1
27,0,0.0,0.0,0.0,1
27,11529262158000,-14.14,0.72,-6.5513873,1
27,11529362195000,-1.65,-9.38,7.3549876,1
27,11529412549000,-1.23,-7.08,-11.454713,1
27,11529462262000,7.12,-10.19,-11.75436,1
27,11529512281000,6.89,-2.18,-0.14982383,1
27,11529562177000,3.57,7.16,9.384419,1
27,11529612165000,2.53,-3.91,-3.9771416,1
27,11529612165000,2.53,-3.91,-3.9771416,1
27,0,0.0,0.0,0.0,1
27,0,0.0,0.0,0.0,1
27,11529782209000,-12.07,10.8,8.308413,1
27,11529782209000,-12.07,10.8,8.308413,1
27,11529832410000,-6.4,4.33,-0.7627395,1
27,0,0.0,0.0,0.0,1
27,11530012403000,-10.11,5.28,-8.62168,1
27,11530062390000,-19.61,-16.21,8.539958,1
27,11530112226000,1.33,-6.59,10.419566,1
27,11530162213000,-4.44,-6.55,-10.269742,1
27,11530212262000,8.39,-7.01,-14.2877445,1
27,11530263043000,8.66,0.0,-0.7218784,1
27,11530263043000,8.66,0.0,-0.7218784,1
27,11530263043000,8.66,0.0,-0.7218784,1
27,0,0.0,0.0,0.0,1
27,11530422895000,-1.23,-12.11,-4.903325,1
27,11530472211000,-19.61,-19.61,-2.3018389,1
27,11530522351000,-15.43,3.26,4.440233,1
27,11530572339000,-12.41,8.12,1.8387469,1
27,11530622235000,-1.42,3.15,-3.5957718,1
27,11530672284000,3.26,7.06,0.38136974,1
27,11530672284000,3.26,7.06,0.38136974,1
27,11530750165000,0.11,8.31,0.10896278,1
27,0,0.0,0.0,0.0,1
27,11530913068000,-2.07,-7.78,-9.234595,1
27,11530962232000,9.92,-6.74,-14.437569,1
27,11531012433000,15.36,1.18,-1.9477097,1
27,11531062238000,-8.81,6.63,9.425281,1
27,11531112287000,8.31,-1.38,-2.070293,1
27,11531162213000,-1.27,-7.12,-1.6480621,1
27,11531212262000,-17.67,-19.61,-10.991621,1
27,11531262403000,-19.61,-6.66,-2.5333846,1
27,11531312268000,-8.92,12.45,8.853226,1
27,11531362287000,-2.18,2.91,-2.1383946,1
27,11531412274000,1.18,5.94,0.6946377,1
27,11531462262000,2.45,7.4,1.334794,1
27,11531512311000,-11.18,-0.5,-8.921328,1
27,11531562238000,-19.61,-10.42,8.390134,1
27,11531612287000,-2.83,-6.17,12.408136,1
27,11531662244000,-0.84,-7.97,-6.469665,1
27,11531712201000,1.73,-11.8,-10.56939,1
27,11531762342000,9.08,-8.54,-0.5720546,1
27,11531812299000,2.34,6.7,8.117727,1
27,11531862287000,-1.08,-0.34,-1.7978859,1
27,11531862287000,-1.08,-0.34,-1.7978859,1
27,11531962262000,-19.61,-19.61,1.3756552,1
27,11532012219000,-19.61,-1.42,0.7218784,1
27,11532062268000,-13.29,10.23,8.771504,1
27,11532112836000,-3.91,3.99,1.1849703,1
27,11532162305000,1.73,10.73,3.0645783,1
27,11532212262000,2.34,7.44,0.8036005,1
27,11532262311000,-3.95,4.21,-7.3141265,1
27,11532312238000,-18.62,-8.39,-6.469665,1
27,11532362256000,-2.37,-5.33,17.583868,1
27,11532412274000,-1.53,-7.46,-5.434519,1
27,11532462201000,2.56,-6.85,-12.598822,1
27,11532512281000,10.8,-2.68,-4.8216033,1
27,11532562268000,5.28,2.22,2.152015,1
27,11532562268000,5.28,2.22,2.152015,1
27,11532662122000,4.37,-5.48,-3.255263,1
27,11532662122000,4.37,-5.48,-3.255263,1
27,11532662122000,4.37,-5.48,-3.255263,1
27,11532662122000,4.37,-5.48,-3.255263,1
27,11532714246000,-10.76,-18.16,-4.903325,1
27,11532714246000,-10.76,-18.16,-4.903325,1
27,11532714246000,-10.76,-18.16,-4.903325,1
27,0,0.0,0.0,0.0,1
27,0,0.0,0.0,0.0,1
27,11533102429000,-14.52,-14.4,14.137921,1
27,11533152173000,-2.03,-7.44,-1.607201,1
27,11533202375000,1.08,-8.24,-13.988097,1
27,11533252271000,12.6,-11.92,-11.114203,1
27,11533302259000,5.9,1.69,5.407278,1
27,11533352216000,2.26,5.28,3.990762,1
27,11533402295000,-0.19,-3.79,3.9090397,1
27,11533452283000,-12.26,-6.59,-14.628253,1
27,11533502301000,-19.61,-17.54,8.281172,1
27,11533552198000,-17.27,7.44,3.214402,1
27,11533602277000,-10.0,6.59,0.88532263,1
27,11533652234000,-2.41,3.72,4.2086873,1
27,11533702252000,3.6,8.73,0.040861044,1
27,11533752210000,-2.3,7.25,-4.440233,1
27,11533802289000,-15.24,-3.15,-7.6546354,1
27,11533852246000,-14.79,-15.09,15.785983,1
27,11533902234000,-2.49,-5.75,1.4982382,1
27,11533952252000,-3.36,-5.48,-12.912089,1
27,11534002271000,9.96,-5.94,-16.04477,1
27,11534052259000,8.58,0.84,-1.6480621,1
27,11534102277000,1.31,6.89,10.991621,1
27,11534152295000,3.34,-2.68,-0.50395286,1
27,11534202313000,0.72,-3.57,-1.920469,1
27,11534252271000,-17.67,-19.04,-11.985906,1
27,11534302228000,-19.3,-5.75,-1.1441092,1
27,11534352216000,-7.44,12.15,4.903325,1
27,11534402234000,-2.91,3.38,-3.1054392,1
27,11534452222000,0.31,4.18,0.14982383,1
27,11534502271000,1.69,6.51,1.4573772,1
27,11534552289000,-16.24,-1.73,-6.428804,1
27,11534602246000,-19.46,-14.25,8.158588,1
27,11534652204000,-1.5,-3.98,6.3607025,1
27,11534702313000,-2.83,-7.74,-11.9450445,1
27,11534752210000,4.67,-12.49,-11.727119,1
27,11534802259000,8.08,-5.13,-2.4925237,1
27,11534852216000,7.63,9.15,9.956474,1
27,11534902234000,-0.08,-2.37,-2.4108016,1
27,11534952222000,-8.39,-9.81,-12.721405,1
27,11535002271000,-19.61,-19.57,2.7240696,1
27,11535052228000,-19.61,-0.23,-2.6423476,1
27,11535052228000,-19.61,-0.23,-2.6423476,1
27,11535112500000,-13.76,8.69,3.0237172,1
27,11535162213000,-4.18,4.56,-1.6889231,1
27,11535212323000,0.27,9.72,3.5957718,1
27,11535263166000,1.23,7.5,-0.10896278,1
27,11535312940000,0.27,-6.59,-5.434519,1
27,11535362500000,-19.61,-1.99,-0.61291564,1
27,11535412305000,-2.03,-5.67,14.7916975,1
27,11535462537000,-1.92,-6.7,-9.112013,1
27,11535512281000,4.33,-7.35,-15.132206,1
27,11535562543000,12.91,-3.06,-5.053149,1
27,11535612287000,3.34,3.3,5.407278,1
27,11535662458000,2.72,0.99,3.3778462,1
27,11535712262000,3.15,-6.13,-4.372132,1
27,11535762433000,-16.32,-17.35,-13.593107,1
27,11535812268000,-19.61,-14.63,0.7218784,1
27,11535862470000,-17.97,13.33,7.668256,1
27,11535912305000,-4.02,4.52,-2.8330324,1
27,11535962506000,-1.33,4.25,-0.9942854,1
27,11536012281000,5.09,9.38,-0.50395286,1
27,11536062451000,0.31,6.09,-0.0,1
27,11536112287000,-13.67,-5.52,-11.604536,1
27,11536162274000,-11.41,-12.6,18.659876,1
27,11536212689000,0.23,-5.24,1.6889231,1
27,11536262281000,-0.69,-3.91,-8.19945,1
27,11536312940000,9.34,-1.76,-9.724928,1
27,11536362439000,7.89,1.73,-1.9477097,1
27,11536362439000,7.89,1.73,-1.9477097,1
27,11536412274000,3.17,-0.27,4.3312707,1
27,11536412274000,3.17,-0.27,4.3312707,1
27,0,0.0,0.0,0.0,1
27,0,0.0,0.0,0.0,1
27,0,0.0,0.0,0.0,1
27,11536682447000,-0.42,4.75,-4.1814466,1
27,11536682447000,-0.42,4.75,-4.1814466,1
27,11536682447000,-0.42,4.75,-4.1814466,1
27,11536853314000,-17.08,-4.79,-2.5333846,1
27,11536853314000,-17.08,-4.79,-2.5333846,1
27,11536902295000,-16.74,-10.04,11.876944,1
27,11536902295000,-16.74,-10.04,11.876944,1
27,11537002698000,-3.34,-7.35,-7.5456724,1
27,11537062177000,8.08,-7.35,-7.5456724,1
27,11537122266000,7.44,0.46,1.0760075,1
27,11537122266000,7.44,0.46,1.0760075,1
27,0,0.0,0.0,0.0,1
27,0,0.0,0.0,0.0,1
27,11537282300000,-17.62,-18.05,-12.176591,1
27,11537382215000,-11.45,7.67,9.00305,1
27,11537382215000,-11.45,7.67,9.00305,1
27,11537382215000,-11.45,7.67,9.00305,1
27,11537382215000,-11.45,7.67,9.00305,1
27,0,0.0,0.0,0.0,1
27,11537602429000,-18.05,-9.04,-3.486809,1
27,11537602429000,-18.05,-9.04,-3.486809,1
27,11537602429000,-18.05,-9.04,-3.486809,1
27,11537752851000,-2.45,-7.44,-12.067628,1
27,11537802228000,9.15,-8.2,-11.372991,1
27,11537802228000,9.15,-8.2,-11.372991,1
27,11537902265000,-1.27,9.66,10.800936,1
27,11537952313000,3.38,-5.41,-1.4982382,1
27,11537952313000,3.38,-5.41,-1.4982382,1
27,11538052259000,-19.61,-19.61,1.5390993,1
27,11538102246000,-18.54,2.79,1.334794,1
27,11538152265000,-12.34,5.79,1.879608,1
27,11538152265000,-12.34,5.79,1.879608,1
27,11538252271000,2.18,10.38,-0.84446156,1
27,11538252271000,2.18,10.38,-0.84446156,1
27,11538352277000,-5.94,-1.69,-6.3198414,1
27,11538352277000,-5.94,-1.69,-6.3198414,1
27,11538452222000,6.02,-1.38,12.108489,1
27,11538452222000,6.02,-1.38,12.108489,1
27,11538552106000,10.15,0.15,-13.375181,1
27,11538552106000,10.15,0.15,-13.375181,1
27,11538602216000,10.84,0.27,-3.1054392,1
27,11538602216000,10.84,0.27,-3.1054392,1
27,0,0.0,0.0,0.0,1
27,0,0.0,0.0,0.0,1
27,11538842176000,-19.61,-13.14,-0.53119355,1
27,11538892224000,-14.14,5.37,10.228881,1
27,11538942273000,-5.05,3.11,-3.718355,1
27,11538992230000,0.84,4.18,-2.2201166,1
27,11539042310000,6.09,7.86,4.2495484,1
27,11539092267000,-10.34,9.3,-9.765789,1
27,11539142316000,-19.61,-16.97,11.073342,1
27,11539192243000,-4.29,-4.56,13.756551,1
27,11539242261000,-0.72,-7.01,-5.8976107,1
27,11539302350000,5.37,-7.25,-11.141444,1
27,11539352277000,10.5,-0.91,-1.607201,1
27,11539402265000,-1.88,4.4,10.147159,1
27,11539402265000,-1.88,4.4,10.147159,1
27,11539402265000,-1.88,4.4,10.147159,1
27,0,0.0,0.0,0.0,1
27,11539592145000,-19.61,-7.93,-4.862464,1
27,11539642377000,-10.72,11.22,9.765789,1
27,11539692304000,-3.64,2.87,0.23154591,1
27,11539692304000,-3.64,2.87,0.23154591,1
27,11539802320000,2.41,6.82,2.3699405,1
27,11539852368000,-12.3,4.06,-6.891896,1
27,11539902234000,-19.61,-18.69,8.894087,1
27,11539952283000,6.66,-6.7,13.525005,1
27,11540002271000,-1.04,-6.97,-6.3607025,1
27,11540052259000,5.41,-3.49,-6.510526,1
27,11540102216000,10.19,0.0,-3.6774938,1
27,11540152265000,3.76,0.8,3.5957718,1
27,11540202222000,-0.99,-1.69,7.6954966,1
27,11540252118000,12.41,-14.21,-8.076866,1
27,11540302930000,-15.05,-14.33,0.88532263,1
27,11540302930000,-15.05,-14.33,0.88532263,1
27,11540372296000,-15.05,2.03,3.0645783,1
27,0,0.0,0.0,0.0,1
27,11540472180000,-0.27,2.91,6.2108784,1
27,11540522199000,5.94,9.81,6.2108784,1
27,11540522199000,5.94,9.81,6.2108784,1
27,11540522199000,5.94,9.81,6.2108784,1
27,0,0.0,0.0,0.0,1
27,11540722303000,-0.65,-5.82,2.4925237,1
27,11540772321000,-0.72,-7.55,-11.645397,1
27,11540832410000,10.95,-8.43,-6.469665,1
27,11540882550000,3.15,3.21,5.6660647,1
27,11540932202000,2.37,0.53,0.8036005,1
27,11540932202000,2.37,0.53,0.8036005,1
27,11540932202000,2.37,0.53,0.8036005,1
27,11540932202000,2.37,0.53,0.8036005,1
27,0,0.0,0.0,0.0,1
27,0,0.0,0.0,0.0,1
27,11541155988000,-9.0,7.16,11.34575,1
27,0,0.0,0.0,0.0,1
27,0,0.0,0.0,0.0,1
27,11541382276000,-16.51,-3.34,-3.1054392,1
27,11541432233000,-17.58,-13.59,8.689782,1
27,11541482221000,2.22,-6.17,1.7570249,1
27,11541532239000,0.57,-10.11,-12.067628,1
27,11541582288000,9.62,-15.85,-6.510526,1
27,11541632215000,8.28,-0.27,4.440233,1
27,11541682294000,-0.08,9.3,5.5162406,1
27,11541732129000,-0.23,-4.25,2.1792557,1
27,11541782209000,-14.6,-6.55,-12.340035,1
27,11541782209000,-14.6,-6.55,-12.340035,1
27,0,0.0,0.0,0.0,1
27,0,0.0,0.0,0.0,1
27,0,0.0,0.0,0.0,1
27,11542052167000,3.11,9.85,0.6946377,1
27,11542052167000,3.11,9.85,0.6946377,1
27,11542052167000,3.11,9.85,0.6946377,1
27,11542202313000,-4.06,-4.37,16.358038,1
27,11542252301000,-0.65,-6.59,-7.9679036,1
27,11542302228000,7.44,-10.11,-15.6634,1
27,11542352246000,11.92,-1.23,-0.19068487,1
27,11542352246000,11.92,-1.23,-0.19068487,1
27,11542422162000,-4.99,5.6,7.9679036,1
27,11542422162000,-4.99,5.6,7.9679036,1
27,11542422162000,-4.99,5.6,7.9679036,1
27,11542422162000,-4.99,5.6,7.9679036,1
27,0,0.0,0.0,0.0,1
27,0,0.0,0.0,0.0,1
27,11542762311000,2.22,13.06,0.6537767,1
27,11542762311000,2.22,13.06,0.6537767,1
27,11542762311000,2.22,13.06,0.6537767,1
27,0,0.0,0.0,0.0,1
27,11542932141000,-17.46,-15.85,14.941522,1
27,11542982526000,0.61,-4.48,3.759216,1
27,11543032270000,-2.56,-6.51,-13.211738,1
27,11543082288000,11.26,-9.11,-13.865514,1
27,11543132367000,10.5,1.8,-0.0,1
27,11543182233000,-3.79,8.5,10.528529,1
27,11543232373000,3.6,-4.9,0.50395286,1
27,11543282270000,-10.31,-5.37,-6.742072,1
27,11543282270000,-10.31,-5.37,-6.742072,1
27,11543382337000,-18.77,0.19,1.8387469,1
27,11543432263000,-11.75,8.54,1.0760075,1
27,11543482312000,-3.17,3.79,2.2609777,1
27,11543532270000,5.71,11.84,1.920469,1
27,11543582318000,0.23,6.21,-0.9125633,1
27,11543632306000,-13.99,-2.91,-9.384419,1
27,11543682386000,-17.58,-16.09,15.704261,1
27,11543732282000,1.61,-6.47,6.0474343,1
27,11543782300000,-1.95,-6.7,-10.95076,1
27,11543832288000,10.23,-8.39,-12.489859,1
27,11543882276000,9.04,1.18,0.27240697,1
27,11543932416000,-2.56,6.05,9.466142,1
27,11543982160000,4.02,-3.34,-1.334794,1
27,11544032758000,-5.98,-5.18,-5.202973,1
27,11544032758000,-5.98,-5.18,-5.202973,1
27,11544132489000,-15.32,1.23,2.6832085,1
27,0,0.0,0.0,0.0,1
27,11544232160000,-1.76,2.56,-2.9556155,1
27,11544282483000,1.57,2.98,1.2258313,1
27,11544332318000,6.02,7.86,0.27240697,1
27,11544382276000,-8.05,3.02,-8.117727,1
27,11544432355000,-19.61,-13.91,5.6660647,1
27,11544482251000,2.26,-3.79,13.252599,1
27,11544532392000,-3.49,-8.05,-10.228881,1
27,11544582379000,7.78,-12.64,-14.09706,1
27,11544632306000,9.51,-2.56,2.1792557,1
27,11544712293000,1.8,5.86,2.3699405,1
27,11544712293000,1.8,5.86,2.3699405,1
27,11544712293000,1.8,5.86,2.3699405,1
27,11544902967000,-17.31,5.22,2.6014864,1
27,11544902967000,-17.31,5.22,2.6014864,1
27,11544962506000,-8.88,6.4,-0.38136974,1
27,11545012342000,-0.99,3.68,-1.1168685,1
27,11545062299000,3.95,8.58,1.4165162,1
27,11545112195000,2.37,5.83,0.6537767,1
27,11545163282000,-7.44,-2.07,-9.112013,1
27,11545212232000,-19.57,-14.98,12.9529505,1
27,11545265546000,3.17,-6.28,7.8861814,1
27,11545322248000,-1.33,-6.02,-9.466142,1
27,11545372205000,11.45,-4.48,-11.727119,1
27,11545422284000,9.34,1.65,0.84446156,1
27,11545472211000,-2.53,7.93,10.079058,1
27,11545522534000,4.18,-5.18,-1.525479,1
27,11545522534000,4.18,-5.18,-1.525479,1
27,0,0.0,0.0,0.0,1
27,0,0.0,0.0,0.0,1
27,0,0.0,0.0,0.0,1
27,11545802167000,-1.18,2.11,-1.3075534,1
27,11545802167000,-1.18,2.11,-1.3075534,1
27,11545902234000,-1.53,7.44,-0.53119355,1
27,11545952313000,-16.66,-2.68,-8.880466,1
27,11546002210000,-14.29,-14.82,13.824653,1
27,11546052198000,0.0,-9.0,3.1054392,1
27,11546102674000,1.5,-11.33,-10.147159,1
27,11546152326000,5.52,-15.62,-7.5456724,1
27,11546202283000,7.06,1.76,7.6954966,1
27,11546252240000,-0.5,6.78,2.6423476,1
27,11546302259000,-0.76,-3.17,-2.070293,1
27,11546352246000,-16.82,-11.88,-15.976667,1
27,11546402265000,-19.61,-15.66,7.1234417,1
27,11546452252000,-14.82,6.63,3.214402,1
27,11546502271000,-11.8,5.24,0.19068487,1
27,11546552228000,-2.96,3.99,0.08172209,1
27,11546602277000,3.99,10.8,2.1792557,1
27,11546652265000,2.45,5.86,0.61291564,1
27,11546703168000,-7.93,-1.23,-8.689782,1
27,11546752240000,-19.61,-14.1,7.9679036,1
27,11546802320000,4.6,-4.71,9.534244,1
27,11546852246000,-2.87,-7.7,-8.076866,1
27,11546902265000,6.17,-3.53,-10.038197,1
27,11546952222000,11.11,-0.15,-5.325556,1
27,11547002271000,1.31,5.18,6.469665,1
27,11547052259000,1.27,-1.18,2.1792557,1
27,11547102277000,4.02,-3.95,0.7218784,1
27,11547152265000,-12.98,5.63,8.812365,1
27,11547252118000,-12.34,5.63,8.812365,1
27,11547252118000,-12.34,5.63,8.812365,1
27,11547252118000,-12.34,5.63,8.812365,1
27,11547352277000,1.73,3.57,-1.0351465,1
27,11547402204000,1.57,3.83,-1.9477097,1
27,11547452313000,-9.66,5.75,8.689782,1
27,11547502210000,-19.61,-15.24,-4.5219555,1
27,11547552289000,-5.13,0.99,9.80665,1
27,11547552289000,-5.13,0.99,9.80665,1
27,11547602735000,-4.44,-8.5,-15.976667,1
27,11547702252000,13.8,2.72,9.302697,1
27,11547752179000,0.53,11.22,10.18802,1
27,11547802289000,-5.28,-8.69,0.23154591,1
27,11547802289000,-5.28,-8.69,0.23154591,1
27,0,0.0,0.0,0.0,1
27,0,0.0,0.0,0.0,1
27,0,0.0,0.0,0.0,1
27,11548072156000,-1.99,3.91,3.1054392,1
27,11548122266000,4.06,8.47,0.6537767,1
27,11548172528000,2.11,8.39,-2.6014864,1
27,11548172528000,2.11,8.39,-2.6014864,1
27,11548272321000,-19.61,-17.86,9.425281,1
27,11548322248000,3.72,-7.46,9.656827,1
27,11548372327000,-1.99,-7.01,-6.6331096,1
27,11548422284000,6.4,-4.75,-11.372991,1
27,11548472272000,12.3,-0.08,-4.2086873,1
27,11548522199000,-2.91,5.48,7.246025,1
27,11548572278000,5.52,-0.19,2.4925237,1
27,11548572278000,5.52,-0.19,2.4925237,1
27,11548652295000,-10.5,-16.63,-18.428331,1
27,11548652295000,-10.5,-16.63,-18.428331,1
27,0,0.0,0.0,0.0,1
27,0,0.0,0.0,0.0,1
27,0,0.0,0.0,0.0,1
27,0,0.0,0.0,0.0,1
27,0,0.0,0.0,0.0,1
27,11549002332000,-13.48,-4.48,-8.308413,1
27,11549002332000,-13.48,-4.48,-8.308413,1
27,11549102460000,-0.53,-7.08,2.8738933,1
27,11549152204000,-2.3,-6.21,-12.721405,1
27,11549202313000,12.49,-5.94,-12.721405,1
27,11549202313000,12.49,-5.94,-12.721405,1
27,11549302228000,-2.14,8.54,9.997335,1
27,11549302228000,-2.14,8.54,9.997335,1
27,11549402234000,-1.53,-4.48,-2.1792557,1
27,11549402234000,-1.53,-4.48,-2.1792557,1
27,11549502210000,-19.27,-4.94,-3.1463003,1
27,11549552228000,-13.53,8.62,6.742072,1
27,11549602246000,-1.84,3.38,-2.1383946,1
27,11549602246000,-1.84,3.38,-2.1383946,1
27,11549702252000,2.64,6.44,2.2201166,1
27,11549702252000,2.64,6.44,2.2201166,1
27,11549802228000,-19.11,-14.44,6.701211,1
27,11549802228000,-19.11,-14.44,6.701211,1
27,11549902234000,-2.83,-8.69,-14.09706,1
27,11549952283000,11.14,-13.4,-14.859799,1
27,11550002271000,8.08,-0.65,2.7921712,1
27,11550002271000,8.08,-0.65,2.7921712,1
27,11550102124000,1.73,-3.17,-0.7627395,1
27,11550102124000,1.73,-3.17,-0.7627395,1
27,11550153089000,-5.01,-4.02,-9.193735,1
27,11550153089000,-5.01,-4.02,-9.193735,1
27,11550153089000,-5.01,-4.02,-9.193735,1
27,11550220288000,-19.61,-19.61,4.099725,1
27,0,0.0,0.0,0.0,1
27,11550402295000,2.34,13.44,1.1441092,1
27,11550452252000,1.99,6.7,1.2666923,1
27,11550502271000,-2.98,-0.89,-7.3958488,1
27,11550552259000,-19.42,0.34,-12.53072,1
27,11550602216000,-3.64,-8.96,18.04696,1
27,11550652265000,-1.99,-8.39,-5.243834,1
27,11550702252000,0.15,-5.24,-10.079058,1
27,11550752271000,10.08,-3.26,-9.112013,1
27,11550802228000,6.55,2.26,-0.10896278,1
27,11550852277000,1.23,3.76,7.9679036,1
27,11550902356000,2.91,-4.82,-0.88532263,1
27,11550902356000,2.91,-4.82,-0.88532263,1
27,11550902356000,2.91,-4.82,-0.88532263,1
27,11551062238000,-15.32,8.35,12.871228,1
27,11551112256000,-4.25,3.17,-3.5276701,1
27,11551162244000,-0.53,2.45,-0.3405087,1
27,11551212262000,5.79,9.08,4.099725,1
27,11551262342000,-3.87,4.75,-5.597963,1
27,11551312268000,-19.61,-11.88,1.4982382,1
27,11551362256000,-8.88,-8.47,12.14935,1
27,11551412244000,-2.75,-8.01,-4.5219555,1
27,11551462201000,3.53,-9.77,-14.9006605,1
27,11551512281000,9.77,-5.98,-5.6660647,1
27,11551562268000,4.29,9.15,8.117727,1
27,11551612287000,4.6,2.07,0.040861044,1
27,11551662213000,1.42,-8.35,1.9885708,1
27,11551712201000,-17.08,-13.95,-16.698545,1
27,11551762219000,-19.61,-16.13,10.337844,1
27,11551812268000,-15.6,11.84,1.9885708,1
27,11551862226000,-10.42,4.71,5.134871,1
27,11551862226000,-10.42,4.71,5.134871,1
27,11551915906000,-0.65,7.82,4.4810944,1
27,11551973554000,3.6,9.53,-0.7627395,1
27,11552022534000,-1.5,2.6,-4.944186,1
27,11552073102000,-16.28,-8.5,-10.882658,1
27,11552123639000,-2.07,-5.98,17.052675,1
27,11552173230000,-4.48,-7.04,-3.255263,1
27,11552223676000,-0.46,-4.29,-13.756551,1
27,11552273206000,10.19,-2.03,-11.032481,1
27,11552323682000,5.83,2.3,0.50395286,1
27,11552373242000,1.92,3.76,9.193735,1
27,11552442395000,4.79,-5.41,0.23154591,1
27,11552492108000,-19.04,-19.57,-8.853226,1
27,11552552320000,-19.61,-7.78,3.759216,1
27,11552602246000,-14.29,4.37,4.4810944,1
27,11552652265000,-2.75,3.3,-2.6832085,1
27,11552702252000,0.11,4.21,0.53119355,1
27,11552752271000,3.68,8.58,1.9477097,1
27,11552802289000,-4.63,4.9,-6.428804,1
27,11552852277000,-19.53,-10.61,2.4516625,1
27,11552902265000,-6.97,-10.15,14.941522,1
27,11552952222000,-3.15,-8.31,-5.09401,1
27,11553002271000,2.3,-7.12,-12.4489975,1
27,11553052228000,9.72,-4.67,-5.7477865,1
27,11553052228000,9.72,-4.67,-5.7477865,1
27,11553102277000,8.89,1.76,0.95342433,1
27,11553102277000,8.89,1.76,0.95342433,1
27,0,0.0,0.0,0.0,1
27,0,0.0,0.0,0.0,1
27,11553342145000,-17.97,1.42,3.0645783,1
27,11553392438000,-13.14,6.74,1.7570249,1
27,11553392438000,-13.14,6.74,1.7570249,1
27,11553392438000,-13.14,6.74,1.7570249,1
27,11553504254000,2.98,10.46,-0.9125633,1
27,0,0.0,0.0,0.0,1
27,0,0.0,0.0,0.0,1
27,11553662122000,-7.46,-9.89,19.231932,1
27,11553712262000,-3.3,-6.97,-2.982856,1
27,11553762219000,-2.87,-3.45,-12.026767,1
27,11553812238000,9.85,-0.57,-12.067628,1
27,11553862378000,9.0,3.26,-1.7297841,1
27,11553912274000,4.02,4.56,9.466142,1
27,11553962354000,1.42,-3.87,2.2201166,1
27,11554012647000,1.57,-5.98,-4.8216033,1
27,11554062268000,-19.61,-19.61,-8.771504,1
27,11554112256000,-14.44,-2.6,0.3405087,1
27,11554162274000,-13.4,6.02,4.399372,1
27,11554212293000,-1.61,4.82,-5.47538,1
27,11554262250000,0.11,2.76,-1.4573772,1
27,11554312299000,4.1,6.4,2.152015,1
27,11554362775000,-8.69,3.68,-7.3141265,1
27,11554412244000,-19.61,-15.89,6.851035,1
27,11554462262000,0.08,-1.42,14.437569,1
27,11554512250000,-3.45,-7.16,-7.04172,1
27,11554562268000,2.53,-8.08,-9.152874,1
27,11554612226000,8.96,-2.56,-3.759216,1
27,11554662305000,5.41,2.34,2.4516625,1
27,11554712201000,2.41,2.15,5.09401,1
27,11554762311000,5.24,-8.85,-6.973618,1
27,11554824079000,-16.28,-19.46,-11.795221,1
27,11554824079000,-16.28,-19.46,-11.795221,1
27,0,0.0,0.0,0.0,1
27,11554932111000,-12.45,8.54,5.09401,1
27,11554932111000,-12.45,8.54,5.09401,1
27,11554982251000,-3.68,3.87,-2.3699405,1
27,0,0.0,0.0,0.0,1
27,0,0.0,0.0,0.0,1
27,11555222852000,-13.1,-11.45,14.750836,1
27,11555272290000,-1.8,-6.93,-2.6014864,1
27,11555322339000,-0.95,-7.27,-12.299174,1
27,11555372266000,9.58,-8.73,-9.615966,1
27,11555372266000,9.58,-8.73,-9.615966,1
27,11555422284000,6.78,0.19,0.92618364,1
27,0,0.0,0.0,0.0,1
27,11555562116000,-11.65,-8.58,-7.04172,1
27,11555612226000,-19.61,-19.27,2.9556155,1
27,11555662213000,-14.25,6.05,6.238119,1
27,11555712323000,-10.27,7.21,2.6014864,1
27,11555762403000,-1.95,3.3,-3.5276701,1
27,11555812085000,1.95,6.85,1.2666923,1
27,11555862195000,2.15,7.89,-3.1054392,1
27,11555912824000,-10.27,-0.08,-5.6252036,1
27,11555912824000,-10.27,-0.08,-5.6252036,1
27,0,0.0,0.0,0.0,1
27,11556092450000,-0.8,-5.63,-9.724928,1
27,11556142407000,12.03,-1.95,-6.5513873,1
27,11556192273000,6.36,1.08,0.7627395,1
27,11556192273000,6.36,1.08,0.7627395,1
27,11556192273000,6.36,1.08,0.7627395,1
27,0,0.0,0.0,0.0,1
27,0,0.0,0.0,0.0,1
27,11556412183000,-13.44,3.11,3.8273177,1
27,11556462354000,-13.02,6.21,2.4925237,1
27,11556512250000,-1.33,3.41,-4.2086873,1
27,11556562268000,0.57,6.09,-0.29964766,1
27,11556562268000,0.57,6.09,-0.29964766,1
27,11556562268000,0.57,6.09,-0.29964766,1
27,0,0.0,0.0,0.0,1
27,11556752332000,-11.84,-9.92,11.141444,1
27,11556802198000,-2.07,-7.63,-1.8387469,1
27,11556852246000,-0.65,-9.58,-12.639683,1
27,11556902234000,9.11,-10.5,-7.1234417,1
27,11556952222000,6.66,0.11,4.6036777,1
27,11557002332000,2.68,7.12,4.3312707,1
27,11557052106000,0.76,-3.83,-3.214402,1
27,11557102246000,-14.29,-15.28,-15.173067,1
27,11557102246000,-14.29,-15.28,-15.173067,1
27,0,0.0,0.0,0.0,1
27,0,0.0,0.0,0.0,1
27,0,0.0,0.0,0.0,1
27,11557322156000,0.19,3.21,-1.920469,1
27,11557372480000,3.02,5.09,0.14982383,1
27,11557372480000,3.02,5.09,0.14982383,1
27,11557472638000,-19.61,-9.28,4.903325,1
27,11557522351000,-10.69,-9.62,9.00305,1
27,11557572400000,-1.08,-8.24,-2.6832085,1
27,11557622266000,2.41,-10.76,-12.217452,1
27,11557672315000,10.76,-12.3,-4.2495484,1
27,11557722272000,5.6,3.49,9.765789,1
27,11557772290000,0.57,4.99,2.2201166,1
27,11557822278000,-0.8,-2.72,-2.4108016,1
27,11557872266000,-18.62,-4.82,-13.715691,1
27,11557922284000,-19.61,-14.6,8.158588,1
27,11557972333000,-15.94,6.21,6.701211,1
27,11558022260000,-6.7,5.63,-2.7921712,1
27,11558072309000,-1.14,2.26,-1.8387469,1
27,11558122266000,3.57,5.37,3.9090397,1
27,11558172315000,0.19,4.79,-2.3699405,1
27,11558222272000,-19.57,-8.24,0.42223078,1
27,11558272290000,-15.79,-7.44,-13.375181,1
27,11558372327000,-2.68,-7.44,-13.375181,1
27,11558372327000,-2.68,-7.44,-13.375181,1
27,11558432660000,9.85,-6.43,-7.6273947,1
27,11558482251000,5.48,1.14,2.4925237,1
27,11558532300000,2.87,7.97,5.012288,1
27,11558582135000,0.11,-5.6,-0.9942854,1
27,11558632276000,-11.07,-11.41,-5.053149,1
27,11558632276000,-11.07,-11.41,-5.053149,1
27,11558683484000,-19.61,-19.08,-2.9147544,1
27,11558683484000,-19.61,-19.08,-2.9147544,1
27,11558683484000,-19.61,-19.08,-2.9147544,1
27,11558732251000,-16.85,10.23,8.117727,1
27,0,0.0,0.0,0.0,1
27,11558962262000,-3.79,-0.23,-9.084772,1
27,11559012342000,-19.61,-12.76,5.243834,1
27,11559062299000,-0.19,-2.03,14.2877445,1
27,11559112409000,-4.67,-7.44,-7.5865335,1
27,11559162244000,4.33,-5.63,-10.079058,1
27,11559212232000,13.53,-1.61,-5.938472,1
27,11559262250000,-0.57,4.14,7.164303,1
27,11559312299000,3.45,1.27,2.6832085,1
27,11559362256000,4.37,-6.24,-2.3426998,1
27,11559412274000,-14.6,-16.55,-9.80665,1
27,11559462201000,-19.61,-11.95,-2.4516625,1
27,11559512311000,-11.07,11.22,10.56939,1
27,11559562207000,-5.13,3.91,-3.5276701,1
27,11559612287000,-1.18,7.08,6.8237944,1
27,11559662274000,1.57,6.97,1.0351465,1
27,11559712293000,-6.32,6.85,-8.390134,1
27,11559762281000,-19.0,-5.67,-5.5571017,1
27,11559812268000,-11.3,-12.72,17.774553,1
27,11559862226000,-3.15,-8.92,-1.0760075,1
27,11559912274000,-2.41,-5.79,-12.598822,1
27,11559962201000,11.75,-6.21,-9.466142,1
27,11560012311000,8.85,0.38,1.7570249,1
27,11560062451000,-6.02,7.93,8.349273,1
27,11560112134000,6.17,-4.06,-2.5606253,1
27,11560162305000,-7.44,-12.72,-14.628253,1
27,11560162305000,-7.44,-12.72,-14.628253,1
27,11560162305000,-7.44,-12.72,-14.628253,1
27,11560212934000,-19.61,-18.62,0.9942854,1
27,11560262494000,-18.54,6.82,3.255263,1
27,0,0.0,0.0,0.0,1
27,11560412824000,2.41,7.5,2.1111538,1
27,11560462232000,2.15,7.46,-1.879608,1
27,11560512281000,-6.78,0.04,-6.0201936,1
27,11560562360000,-19.61,-16.4,9.724928,1
27,11560612317000,2.96,-3.15,10.923519,1
27,11560662702000,-3.3,-6.55,-5.8976107,1
27,11560712323000,5.09,-3.34,-11.836082,1
27,11560762403000,11.35,-0.95,-6.6331096,1
27,11560812360000,3.45,1.23,2.9556155,1
27,11560862317000,-0.34,-0.53,7.6954966,1
27,11560912671000,8.43,-10.38,-4.7126403,1
27,11560962262000,-9.19,-17.62,-9.152874,1
27,11561012555000,-19.04,-8.69,6.851035,1
27,11561062268000,-14.33,13.29,4.0180025,1
27,11561112409000,-0.53,4.56,-4.5628166,1
27,11561162274000,0.31,2.53,-2.1792557,1
27,11561212384000,4.37,6.13,3.5957718,1
27,11561263135000,-11.6,2.18,-5.47538,1
27,11561312360000,-19.61,-16.21,8.308413,1
27,11561362683000,-3.57,-3.72,13.824653,1
27,11561412274000,-2.07,-6.21,-7.3958488,1
27,11561462628000,2.98,-8.47,-10.147159,1
27,11561512281000,9.58,-3.11,-4.7943625,1
27,11561562543000,3.6,2.91,5.053149,1
27,11561612287000,3.72,2.3,2.9556155,1
27,11561662427000,5.01,-6.17,-3.759216,1
27,11561712262000,-14.4,-19.3,-10.841797,1
27,11561762342000,-19.61,-9.62,-1.4165162,1
27,11561812757000,-12.26,13.44,7.504812,1
27,11561862287000,-1.76,3.68,-5.6252036,1
27,11561912763000,-0.23,2.56,-1.334794,1
27,11561962293000,3.06,6.28,1.7570249,1
27,11562012677000,-9.72,9.28,-6.1291566,1
27,11562062268000,-19.61,-14.4,9.234595,1
27,11562112622000,-10.08,-8.35,12.176591,1
27,11562162274000,-1.27,-8.24,-5.325556,1
27,11562212567000,3.91,-11.88,-13.293459,1
27,11562262281000,11.8,-8.54,-3.3642259,1
27,11562312512000,4.18,6.13,9.615966,1
27,11562362287000,2.18,1.54,0.7627395,1
27,11562412427000,-1.65,-3.36,-0.08172209,1
27,11562472150000,-17.58,-14.79,-17.62473,1
27,11562522809000,-19.61,-13.14,8.853226,1
27,11562572431000,-18.01,7.63,-0.6537767,1
27,11562672162000,-0.57,2.96,-0.6537767,1
27,11562672162000,-0.57,2.96,-0.6537767,1
27,11562722303000,4.29,9.72,1.0351465,1
27,11562772260000,-5.52,5.71,-5.7477865,1
27,11562822278000,-19.15,-10.19,-0.95342433,1
27,11562872266000,-7.08,-8.24,15.132206,1
27,11562933332000,-2.14,-7.5,-6.851035,1
27,11562982251000,4.9,-9.92,-13.375181,1
27,11563032270000,11.54,-2.75,-4.0180025,1
27,11563082227000,0.93,6.4,8.662541,1
27,11563132306000,4.02,-0.99,1.7297841,1
27,11563132306000,4.02,-0.99,1.7297841,1
27,11563132306000,4.02,-0.99,1.7297841,1
27,0,0.0,0.0,0.0,1
27,0,0.0,0.0,0.0,1
27,0,0.0,0.0,0.0,1
27,11563382459000,-3.53,3.68,-1.6480621,1
27,0,0.0,0.0,0.0,1
27,0,0.0,0.0,0.0,1
27,11563602307000,-19.61,-15.47,4.903325,1
27,11563652326000,1.42,-3.26,13.824653,1
27,11563702252000,-4.48,-6.28,-6.932757,1
27,11563752271000,3.26,-8.05,-13.947236,1
27,11563802198000,11.26,-2.03,-5.325556,1
27,11563852277000,-0.65,6.05,9.112013,1
27,11563902234000,4.79,-1.18,-1.1441092,1
27,11563952252000,4.82,-4.82,0.8036005,1
27,11564002301000,-12.64,-13.21,-1.920469,1
27,11564052228000,-19.61,-15.36,-12.4489975,1
27,11564102246000,-11.75,14.41,11.413852,1
27,11564152265000,-2.45,2.49,-4.7535014,1
27,11564202222000,-0.53,2.53,-0.9125633,1
27,11564252271000,2.41,4.1,1.1168685,1
27,11564302228000,-9.11,5.63,0.61291564,1
27,11564352338000,-19.61,-19.57,-1.8387469,1
27,11564402234000,-8.08,-5.09,10.228881,1
27,11564452283000,-1.69,-7.08,-10.882658,1
27,11564502210000,8.47,-12.15,-14.859799,1
27,11564552289000,17.39,-3.6,0.95342433,1
27,11564602216000,-5.94,11.84,11.917805,1
27,11564652265000,1.73,-2.14,-2.3018389,1
27,11564652265000,1.73,-2.14,-2.3018389,1
27,0,0.0,0.0,0.0,1
27,0,0.0,0.0,0.0,1
27,11564823102000,-19.61,-1.57,-6.0882955,1
27,0,0.0,0.0,0.0,1
27,11564922406000,-4.4,4.99,5.6252036,1
27,11565022229000,0.72,6.36,0.6946377,1
27,11565072248000,-3.41,-2.96,-2.6832085,1
27,11565072248000,-3.41,-2.96,-2.6832085,1
27,11565172223000,-2.98,-8.01,15.241169,1
27,11565172223000,-2.98,-8.01,15.241169,1
27,11565272229000,1.46,-5.18,-12.830367,1
27,11565272229000,1.46,-5.18,-12.830367,1
27,11565372235000,-0.61,4.94,5.284695,1
27,11565372235000,-0.61,4.94,5.284695,1
27,11565472241000,6.17,-5.28,-0.27240697,1
27,11565472241000,6.17,-5.28,-0.27240697,1
27,11565572339000,-19.61,-13.78,-4.3312707,1
27,11565572339000,-19.61,-13.78,-4.3312707,1
27,11565672284000,-1.61,2.79,-4.9850473,1
27,11565672284000,-1.61,2.79,-4.9850473,1
27,11565722303000,-0.61,2.45,-0.84446156,1
27,11565772229000,3.41,6.24,1.1849703,1
27,11565822248000,-8.16,7.21,-5.597963,1
27,11565872235000,-19.61,-14.75,11.727119,1
27,11565922254000,-7.08,-6.89,12.871228,1
27,11565972211000,-0.8,-6.85,-6.891896,1
27,11566022199000,2.64,-10.46,-11.795221,1
27,11566072248000,12.37,-4.21,-2.9556155,1
27,11566122235000,-0.99,7.46,9.697687,1
27,11566172254000,5.41,0.04,-1.7570249,1
27,11566222241000,0.72,-5.98,-1.1441092,1
27,11566272229000,-18.07,-14.1,-14.750836,1
27,11566322248000,-19.61,-16.97,3.9090397,1
27,11566372266000,-17.12,10.8,4.5219555,1
27,11566422254000,-6.89,4.18,0.7627395,1
27,11566492383000,1.04,11.3,1.1168685,1
27,11566542218000,1.61,5.98,1.3756552,1
27,11566592328000,-3.06,-0.65,-2.7240696,1
27,11566642255000,-19.61,-10.84,-2.0294318,1
27,11566692304000,-2.03,-9.28,16.821129,1
27,11566742261000,-0.72,-9.04,-9.00305,1
27,11566792310000,8.24,-6.59,-12.4489975,1
27,11566792310000,8.24,-6.59,-12.4489975,1
27,11566792310000,8.24,-6.59,-12.4489975,1
27,11566962964000,5.18,-4.56,0.27240697,1
27,11566962964000,5.18,-4.56,0.27240697,1
27,11566962964000,5.18,-4.56,0.27240697,1
27,11567032178000,-17.27,-14.52,-15.091345,1
27,11567032178000,-17.27,-14.52,-15.091345,1
27,0,0.0,0.0,0.0,1
27,11567242169000,0.8,11.37,1.607201,1
27,11567292249000,2.37,6.89,1.607201,1
27,11567342328000,-3.49,4.94,-3.2961242,1
27,11567392285000,-18.54,-11.65,-6.0882955,1
27,11567442304000,-4.99,-7.97,17.502148,1
27,11567492200000,-1.31,-7.7,-5.134871,1
27,11567542310000,2.79,-5.43,-12.789507,1
27,11567592237000,16.97,-2.98,-8.689782,1
27,11567642285000,1.99,3.06,7.3958488,1
27,11567692212000,1.95,3.49,3.9499009,1
27,11567742261000,4.94,-5.67,-2.7240696,1
27,11567792218000,-13.21,-13.25,-12.980191,1
27,11567842298000,-19.61,-16.44,2.1111538,1
27,11567892224000,-15.94,6.7,8.730643,1
27,11567942334000,-6.24,4.33,-3.2961242,1
27,11567992230000,-1.5,3.41,-0.14982383,1
27,11568042279000,3.95,11.14,-0.0,1
27,11568092237000,1.65,5.33,1.9885708,1
27,11568142346000,-14.94,-0.95,-7.04172,1
27,11568192273000,-19.11,-16.47,14.47843,1
27,11568242292000,1.54,-7.4,6.5513873,1
27,11568292249000,-0.95,-9.04,-11.536434,1
27,11568342298000,8.81,-14.82,-12.026767,1
27,11568392224000,7.5,-2.03,1.607201,1
27,11568392224000,7.5,-2.03,1.607201,1
27,11568492108000,2.07,-4.67,-0.10896278,1
27,11568542676000,-8.05,-5.6,-0.50395286,1
27,11568542676000,-8.05,-5.6,-0.50395286,1
27,11568542676000,-8.05,-5.6,-0.50395286,1
27,11568592633000,-19.61,-19.61,-10.923519,1
27,11568592633000,-19.61,-19.61,-10.923519,1
27,0,0.0,0.0,0.0,1
27,11568812177000,6.13,9.04,2.4516625,1
27,11568862287000,-0.84,7.27,-3.445948,1
27,11568912274000,-16.4,0.53,-6.5922484,1
27,11568962262000,-11.92,-13.14,15.431854,1
27,11569012158000,-1.46,-9.77,-1.2258313,1
27,11569062207000,1.12,-13.87,-12.217452,1
27,11569112439000,8.77,-13.76,-4.5219555,1
27,11569162366000,8.12,2.56,7.3549876,1
27,11569212323000,1.31,6.17,1.7297841,1
27,11569262281000,0.65,-3.72,0.8036005,1
27,11569312238000,-17.46,-11.84,-10.228881,1
27,11569362256000,-19.61,-16.36,-7.3958488,1
27,11569412244000,-15.7,11.41,10.460427,1
27,11569462232000,-6.66,4.71,-3.336985,1
27,11569512281000,-1.46,2.26,-0.7218784,1
27,11569562238000,4.94,8.58,1.7297841,1
27,11569612287000,-0.38,7.01,-1.6480621,1
27,11569662305000,-13.25,-2.83,-10.61025,1
27,11569712262000,-11.37,-11.3,17.270601,1
27,11569762220000,1.42,-8.05,0.61291564,1
27,11569812574000,-1.23,-7.04,-11.686258,1
27,11569862287000,14.02,-6.51,-9.343558,1
27,11569912274000,6.59,2.91,4.3312707,1
27,11569962201000,-0.57,3.02,4.3312707,1
27,11570012311000,4.52,-5.79,-4.5900574,1
27,11570062329000,-4.25,-15.01,-16.235455,1
27,11570112287000,-19.61,-15.66,7.8589406,1
27,11570162244000,-19.53,9.7,4.862464,1
27,11570212262000,-2.79,4.4,-3.1054392,1
27,11570263623000,0.23,2.3,-0.7218784,1
27,11570312299000,6.82,6.59,0.7218784,1
27,11570362256000,1.08,6.4,0.5720546,1
27,11570412244000,-18.77,4.94,-2.2609777,1
27,11570462262000,-14.25,-9.08,14.628253,1
27,11570512250000,3.38,-7.21,6.8237944,1
27,11570562329000,0.19,-8.81,-10.841797,1
27,11570612256000,7.59,-10.34,-5.47538,1
27,11570662274000,7.12,-0.11,1.4982382,1
27,11570712567000,1.95,5.79,3.759216,1
27,11570762281000,2.96,-3.91,-3.0645783,1
27,11570762281000,2.96,-3.91,-3.0645783,1
27,11570762281000,2.96,-3.91,-3.0645783,1
27,11570762281000,2.96,-3.91,-3.0645783,1
27,11570842176000,-19.61,-17.24,2.8330324,1
27,0,0.0,0.0,0.0,1
27,11571092145000,3.38,9.04,0.27240697,1
27,11571092145000,3.38,9.04,0.27240697,1
27,11571192365000,-19.34,-7.59,-1.0351465,1
27,11571242200000,-6.63,-12.45,15.704261,1
27,11571342145000,2.34,-11.73,-15.704261,1
27,11571342145000,2.34,-11.73,-15.704261,1
27,11571392377000,14.71,-8.16,-3.759216,1
27,11571442273000,1.92,10.95,11.536434,1
27,11571492261000,3.3,-0.23,-3.8273177,1
27,11571542249000,-1.5,-4.29,-2.2201166,1
27,11571592267000,-18.47,-15.4,-11.223166,1
27,11571642224000,-19.61,-13.06,4.6036777,1
27,11571692273000,-16.74,15.02,7.0553403,1
27,11571742230000,-8.24,5.28,6.6331096,1
27,11571742230000,-8.24,5.28,6.6331096,1
27,11571842206000,3.21,13.18,-0.95342433,1
27,11571842206000,3.21,13.18,-0.95342433,1
27,11571942304000,2.76,-11.75,-2.1111538,1
27,11571992230000,-19.61,-9.43,7.014479,1
27,11572042218000,0.31,-8.16,7.273266,1
27,11572092267000,-2.22,-5.05,-10.691973,1
27,11572142285000,11.75,-2.83,-14.206022,1
27,11572142285000,11.75,-2.83,-14.206022,1
27,11572242230000,0.61,3.57,5.6660647,1
27,11572292249000,1.31,-2.07,3.173541,1
27,11572292249000,1.31,-2.07,3.173541,1
27,11572392346000,-19.34,-18.35,1.1849703,1
27,11572392346000,-19.34,-18.35,1.1849703,1
27,11572492230000,-11.3,8.24,-3.568531,1
27,11572542249000,-0.65,4.71,-3.255263,1
27,11572592237000,1.65,5.98,2.7921712,1
27,11572642346000,1.61,3.68,0.53119355,1
27,11572692212000,-16.44,-0.72,-5.325556,1
27,11572692212000,-16.44,-0.72,-5.325556,1
27,11572792218000,-0.61,-6.24,1.9477097,1
27,11572792218000,-0.61,-6.24,1.9477097,1
27,11572892255000,11.5,-15.51,-9.80665,1
27,11572942273000,13.4,5.52,11.223166,1
27,11572942273000,13.4,5.52,11.223166,1
27,11573042279000,-0.34,-3.36,-5.284695,1
27,11573042279000,-0.34,-3.36,-5.284695,1
27,11573112378000,-18.07,-11.33,-15.009624,1
27,11573162122000,-19.61,-16.85,4.2086873,1
27,11573212262000,-18.81,10.42,3.718355,1
27,11573262250000,-9.53,4.86,1.2258313,1
27,11573312207000,-2.56,9.19,4.2495484,1
27,11573362317000,1.23,11.22,-1.4573772,1
27,11573422254000,-0.8,4.9,-1.7978859,1
27,11573472241000,-12.03,-2.22,-7.4639506,1
27,11573522290000,-12.72,-18.69,17.883516,1
27,11573572217000,-0.8,-7.74,0.42223078,1
27,11573622266000,0.42,-6.63,-10.760075,1
27,11573672284000,17.43,-3.6,-10.800936,1
27,11573722272000,3.79,3.57,8.076866,1
27,11573772260000,0.95,4.18,4.7535014,1
27,11573822309000,2.6,-7.44,-0.8036005,1
27,11573872357000,-12.11,-14.94,-9.343558,1
27,11573922437000,-19.61,-19.42,-3.7864566,1
27,11573972272000,-19.11,6.78,0.14982383,1
27,11574022260000,-13.02,6.59,5.7886477,1
27,11574072248000,-4.1,11.88,6.851035,1
27,11574122266000,1.88,10.73,-1.4982382,1
27,11574172284000,1.76,4.29,-2.4108016,1
27,11574224805000,3.49,-10.23,-7.3141265,1
27,11574282209000,-18.31,-10.88,16.780268,1
27,11574332318000,-2.03,-2.34,-1.2258313,1
27,11574382276000,0.72,-5.18,-15.745122,1
27,11574432233000,16.36,-2.56,-11.495573,1
27,11574482282000,6.78,3.02,1.9477097,1
27,11574532270000,1.14,5.83,8.008764,1
27,11574582288000,5.75,-4.56,2.3018389,1
27,11574632306000,-7.59,-12.18,-15.173067,1
27,11574682263000,-19.61,-15.89,-4.862464,1
27,11574732251000,-18.89,10.65,8.049625,1
27,11574782270000,-3.57,4.82,-5.7886477,1
27,11574832227000,-0.27,3.3,-2.3699405,1
27,11574882306000,5.52,8.08,7.8180795,1
27,11574932202000,-5.67,0.95,-6.469665,1
27,11574982343000,-19.61,-8.66,4.5628166,1
27,11575032239000,-8.16,-6.7,12.721405,1
27,11575082318000,-1.73,-7.25,-7.9679036,1
27,11575132276000,0.61,-17.24,-18.8097,1
27,11575182294000,12.57,-9.34,-0.95342433,1
27,11575232251000,9.62,14.9,14.1787815,1
27,11575282270000,-0.8,0.46,-4.5219555,1
27,11575332227000,-8.08,-4.71,-5.09401,1
27,11575382276000,-19.61,-16.32,-14.859799,1
27,11575432202000,-19.61,-12.68,7.0553403,1
27,11575482282000,-18.85,11.35,6.0201936,1
27,11575532209000,-4.44,3.17,1.607201,1
27,11575532209000,-4.44,3.17,1.607201,1
27,11575632276000,1.88,11.5,-3.336985,1
27,11575682324000,-0.84,5.28,-3.9771416,1
27,11575732312000,-0.91,-9.7,-0.5720546,1
27,11575782270000,-19.61,-12.03,8.662541,1
27,11575832257000,0.31,-7.97,6.0882955,1
27,11575882306000,-1.65,-6.7,-11.536434,1
27,11575932263000,13.53,-8.05,-15.595298,1
27,11575982282000,9.85,0.61,1.9885708,1
27,11575982282000,9.85,0.61,1.9885708,1
27,11575982282000,9.85,0.61,1.9885708,1
27,11575982282000,9.85,0.61,1.9885708,1
27,0,0.0,0.0,0.0,1
27,0,0.0,0.0,0.0,1
27,11576242139000,-16.04,11.92,6.782933,1
27,11576242139000,-16.04,11.92,6.782933,1
27,11576242139000,-16.04,11.92,6.782933,1
27,0,0.0,0.0,0.0,1
27,11576502149000,-19.61,-18.05,12.176591,1
27,11576552259000,1.54,-5.43,14.137921,1
27,11576602338000,-0.76,-7.01,-9.847511,1
27,11576602338000,-0.76,-7.01,-9.847511,1
27,11576712323000,13.99,-1.27,-1.1849703,1
27,11576712323000,13.99,-1.27,-1.1849703,1
27,11576712323000,13.99,-1.27,-1.1849703,1
27,0,0.0,0.0,0.0,1
27,0,0.0,0.0,0.0,1
27,0,0.0,0.0,0.0,1
27,0,0.0,0.0,0.0,1
27,0,0.0,0.0,0.0,1
27,11577132123000,1.23,11.92,-0.38136974,1
27,11577132123000,1.23,11.92,-0.38136974,1
27,11577132123000,1.23,11.92,-0.38136974,1
27,11577190229000,-2.64,7.35,-1.9477097,1
27,0,0.0,0.0,0.0,1
27,11577412152000,14.71,-11.56,-18.115063,1
27,11577412152000,14.71,-11.56,-18.115063,1
27,11577412152000,14.71,-11.56,-18.115063,1
27,11577562177000,6.7,-1.95,-1.7297841,1
27,11577562177000,6.7,-1.95,-1.7297841,1
27,11577612561000,-4.14,-4.02,-5.6252036,1
27,0,0.0,0.0,0.0,1
27,0,0.0,0.0,0.0,1
27,0,0.0,0.0,0.0,1
27,0,0.0,0.0,0.0,1
27,11577862226000,-0.91,2.91,-0.040861044,1
27,11577913068000,1.84,9.34,0.19068487,1
27,11577984418000,-15.4,2.87,0.19068487,1
27,11578042279000,-14.4,-12.98,12.340035,1
27,11578092267000,-2.03,-8.81,-7.6546354,1
27,11578142285000,3.6,-17.77,-16.88923,1
27,11578192304000,9.34,-12.76,-1.0351465,1
27,11578242261000,6.63,10.8,13.824653,1
27,11578292310000,-1.08,3.95,4.440233,1
27,11578342267000,-0.38,-5.09,-13.402422,1
27,11578392285000,-14.82,-18.85,-13.906375,1
27,11578442273000,-19.61,-13.06,0.95342433,1
27,11578492230000,-18.81,12.34,5.8976107,1
27,11578542249000,-5.9,4.18,2.6832085,1
27,11578592267000,-0.99,11.88,2.8330324,1
27,11578642224000,0.19,10.8,-2.2201166,1
27,11578692273000,0.08,2.07,-3.2961242,1
27,11578742200000,-11.5,-6.93,-13.443283,1
27,11578792310000,-8.08,-14.67,18.04696,1
27,11578842237000,-1.76,-5.79,-3.9771416,1
27,11578892285000,1.08,-3.64,-12.912089,1
27,11578942243000,15.6,-0.15,-9.80665,1
27,11578992322000,5.83,0.61,3.9090397,1
27,11579042218000,-5.56,-0.3,7.246025,1
27,11579093061000,9.04,-8.69,-0.8036005,1
27,11579093061000,9.04,-8.69,-0.8036005,1
27,11579093061000,9.04,-8.69,-0.8036005,1
27,11579093061000,9.04,-8.69,-0.8036005,1
27,11579093061000,9.04,-8.69,-0.8036005,1
27,0,0.0,0.0,0.0,1
27,11579452832000,-11.18,4.48,-4.5219555,1
27,11579502271000,-19.61,-13.29,9.997335,1
27,11579552320000,-4.52,-8.43,14.709975,1
27,11579602307000,-1.31,-7.01,-7.014479,1
27,11579652295000,7.86,-8.54,-13.633968,1
27,11579702283000,15.6,-3.06,-3.1054392,1
27,11579752301000,-6.21,9.08,11.413852,1
27,11579802228000,7.67,-2.07,-0.38136974,1
27,11579802228000,7.67,-2.07,-0.38136974,1
27,11579873090000,-1.42,-8.27,-8.390134,1
27,0,0.0,0.0,0.0,1
27,11579992139000,-17.27,10.95,6.238119,1
27,11579992139000,-17.27,10.95,6.238119,1
27,11579992139000,-17.27,10.95,6.238119,1
27,0,0.0,0.0,0.0,1
27,11580222241000,-8.43,-5.33,-9.043911,1
27,11580272290000,-19.61,-16.51,12.980191,1
27,11580322248000,0.76,-5.18,5.134871,1
27,11580372235000,-1.76,-6.21,-12.367276,1
27,11580422254000,17.24,-6.32,-17.120777,1
27,11580472303000,8.12,1.57,1.0760075,1
27,11580522229000,-5.52,9.23,10.882658,1
27,11580573102000,5.98,-4.9,-1.525479,1
27,11580573102000,5.98,-4.9,-1.525479,1
27,0,0.0,0.0,0.0,1
27,0,0.0,0.0,0.0,1
27,0,0.0,0.0,0.0,1
27,0,0.0,0.0,0.0,1
27,0,0.0,0.0,0.0,1
27,11580852185000,1.23,11.54,2.9556155,1
27,11580902387000,1.46,6.66,1.3075534,1
27,11580952252000,-3.95,1.18,-5.8567495,1
27,11581002332000,-19.61,-3.95,2.8330324,1
27,11581052289000,-4.29,-8.16,14.369467,1
27,11581102338000,-2.11,-7.01,-6.238119,1
27,11581152265000,3.6,-9.49,-13.865514,1
27,11581202283000,14.21,-4.71,-6.0201936,1
27,11581252301000,4.9,2.76,4.372132,1
27,11581302289000,-1.12,0.23,5.366417,1
27,11581352277000,4.63,-6.4,-3.759216,1
27,11581402387000,-16.47,-15.6,-15.894946,1
27,11581462232000,-19.61,-8.77,-2.4108016,1
27,11581512281000,-13.44,7.93,9.00305,1
27,11581562299000,-4.02,3.53,-3.1463003,1
27,11581612226000,-1.42,6.55,0.50395286,1
27,11581662274000,0.8,11.54,-1.3756552,1
27,11581712232000,-2.98,0.15,-2.1111538,1
27,11581762342000,-19.27,-3.64,-2.9556155,1
27,11581812238000,-6.66,-11.3,16.04477,1
27,11581862317000,-2.49,-8.35,-4.2086873,1
27,11581913770000,3.91,-6.59,-14.437569,1
27,11581962232000,15.7,-3.15,-7.8589406,1
27,11582012250000,1.46,3.87,7.5865335,1
27,11582062238000,4.71,1.38,4.5219555,1
27,11582112287000,3.3,-5.18,-3.0237172,1
27,11582162244000,-16.55,-12.72,-0.7627395,1
27,11582212293000,-19.61,-14.86,-13.6748295,1
27,11582262220000,-12.6,12.6,11.372991,1
27,11582312451000,-2.34,4.56,-5.5571017,1
27,11582362226000,0.15,2.56,-1.4165162,1
27,11582412305000,0.61,4.37,-1.607201,1
27,11582462201000,-9.15,2.37,7.3549876,1
27,11582512342000,-19.61,-19.61,-7.04172,1
27,11582562207000,-10.53,-6.78,9.534244,1
27,11582612317000,-0.89,-5.6,-15.28203,1
27,11582682294000,17.16,-13.91,-15.28203,1
27,11582742322000,2.72,5.24,10.56939,1
27,11582742322000,2.72,5.24,10.56939,1
27,11582842267000,-0.8,-4.21,-6.3607025,1
27,11582842267000,-0.8,-4.21,-6.3607025,1
27,11582942121000,-19.61,-19.11,1.3075534,1
27,11582942121000,-19.61,-19.11,1.3075534,1
27,11582992505000,-18.35,11.54,-2.7513103,1
27,11583042371000,-11.37,6.78,7.5456724,1
27,11583142346000,0.61,6.89,0.313268,1
27,11583142346000,0.61,6.89,0.313268,1
27,11583192334000,-2.3,5.98,-2.8330324,1
27,11583292249000,-13.1,-14.9,17.393185,1
27,11583292249000,-13.1,-14.9,17.393185,1
27,11583342237000,-1.84,-5.98,1.1168685,1
27,11583442273000,12.6,-0.95,-13.565866,1
27,11583442273000,12.6,-0.95,-13.565866,1
27,11583542249000,0.57,1.5,6.8237944,1
27,11583542249000,0.57,1.5,6.8237944,1
27,11583592267000,4.75,-5.05,7.3549876,1
27,11583642804000,0.42,-16.04,-13.6748295,1
27,11583702344000,-19.61,-17.73,9.466142,1
27,11583752362000,-14.56,4.99,8.049625,1
27,11583802259000,-5.2,2.45,-4.671779,1
27,11583852307000,-1.42,3.3,-0.7218784,1
27,11583902265000,2.96,12.34,2.1111538,1
27,11583952283000,-3.36,7.44,-1.1849703,1
27,11584002301000,-19.42,-9.77,2.9147544,1
27,11584052289000,-13.57,-13.53,12.721405,1
27,11584102277000,0.65,-7.78,0.61291564,1
27,11584152295000,0.5,-7.21,-11.876944,1
27,11584202283000,14.98,-5.05,-10.882658,1
27,11584252301000,8.69,1.5,1.334794,1
27,11584252301000,8.69,1.5,1.334794,1
27,11584252301000,8.69,1.5,1.334794,1
27,0,0.0,0.0,0.0,1
27,11584502332000,-16.89,8.2,6.4015636,1
27,11584552228000,-7.25,4.21,-2.070293,1
27,11584552228000,-7.25,4.21,-2.070293,1
27,11584552228000,-7.25,4.21,-2.070293,1
27,11584602887000,-2.41,5.94,0.88532263,1
27,0,0.0,0.0,0.0,1
27,11584773267000,-19.61,-11.14,5.6252036,1
27,11584822278000,-1.61,-7.44,12.762266,1
27,11584872266000,-2.91,-7.55,-9.275456,1
27,11584922376000,10.46,-8.39,-15.826844,1
27,11584972333000,13.21,-1.57,-2.6832085,1
27,11585022351000,-3.57,7.74,11.413852,1
27,11585072278000,6.02,-1.61,1.5390993,1
27,11585072278000,6.02,-1.61,1.5390993,1
27,11585144208000,-9.11,-10.38,-13.865514,1
27,0,0.0,0.0,0.0,1
27,0,0.0,0.0,0.0,1
27,11585312421000,-1.88,2.98,-3.1054392,1
27,11585312421000,-1.88,2.98,-3.1054392,1
27,0,0.0,0.0,0.0,1
27,11585502576000,-19.61,-13.99,8.390134,1
27,11585552106000,-2.72,-4.75,13.633968,1
27,11585602216000,-3.21,-6.74,-8.689782,1
27,11585652234000,4.75,-10.95,-15.173067,1
27,11585702252000,12.11,-2.41,-3.5957718,1
27,11585752332000,0.19,7.86,11.413852,1
27,11585812268000,5.83,-3.68,-2.1792557,1
