user-id,timestamp,accX,accY,accZ,ActivityEncoded
11,1700332225000,-5.98,11.41,-2.2201166,5
11,1700382274000,-4.82,8.08,-0.9942854,5
11,1700432231000,1.04,4.48,2.4108016,5
11,1700482249000,2.26,6.93,-0.23154591,5
11,1700532207000,1.61,7.5,1.0351465,5
11,1700582255000,2.11,11.07,8.539958,5
11,1700642375000,-7.08,14.98,8.539958,5
11,1700642375000,-7.08,14.98,8.539958,5
11,1700692302000,-1.99,10.99,-1.3075534,5
11,1700742442000,-1.84,13.1,-1.7978859,5
11,1700792308000,-1.12,10.27,-2.3018389,5
11,1700842326000,-0.95,13.53,-2.0294318,5
11,1700902354000,2.3,8.58,-0.7218784,5
11,1700952251000,1.57,4.9,-1.2258313,5
11,1701002299000,0.5,5.98,-0.8036005,5
11,1701052257000,-0.27,9.81,0.42223078,5
11,1701102306000,-5.67,17.39,5.6660647,5
11,1701152263000,0.15,12.49,0.38136974,5
11,1701202342000,0.23,14.6,0.313268,5
11,1701252299000,-1.31,10.99,-1.607201,5
11,1701302318000,-3.91,10.76,-2.5606253,5
11,1701352244000,-6.36,11.37,-0.84446156,5
11,1701402293000,-1.88,5.79,-0.84446156,5
11,1701452251000,3.53,4.52,4.372132,5
11,1701502299000,-0.53,5.67,0.19068487,5
11,1701552257000,-0.72,7.25,-0.42223078,5
11,1701602306000,-3.36,15.09,13.565866,5
11,1701652232000,-6.66,12.68,2.152015,5
11,1701702312000,-1.92,7.67,2.8330324,5
11,1701752238000,-3.53,14.71,-0.6946377,5
11,1701802318000,-0.8,10.53,-2.9556155,5
11,1701852244000,-1.18,12.91,-2.1111538,5
11,1701902293000,0.31,10.15,0.23154591,5
11,1701952251000,1.8,5.63,-0.42223078,5
11,1702002269000,1.31,4.79,-0.53119355,5
11,1702052257000,-0.65,8.5,0.14982383,5
11,1702102244000,-5.01,15.13,7.082581,5
11,1702152263000,0.04,11.84,-0.10896278,5
11,1702202342000,-0.23,13.87,1.3756552,5
11,1702252238000,-0.84,13.99,-1.1441092,5
11,1702302348000,-1.61,8.77,-1.6889231,5
11,1702352244000,-4.21,10.8,-1.7297841,5
11,1702402324000,-4.29,9.15,-2.3699405,5
11,1702452251000,0.72,5.79,7.082581,5
11,1702502299000,0.95,5.33,-0.3405087,5
11,1702552257000,-1.23,4.4,-0.6537767,5
11,1702602306000,0.27,9.43,4.5628166,5
11,1702652232000,-12.79,16.86,9.915613,5
11,1702702312000,-2.41,6.66,-0.50395286,5
11,1702752238000,-3.64,14.33,-0.5720546,5
11,1702802318000,-0.99,11.65,-1.0760075,5
11,1702852244000,-0.72,12.34,-1.3075534,5
11,1702902293000,1.38,10.99,-1.2666923,5
11,1702952251000,0.34,5.83,0.46309182,5
11,1703002299000,0.15,3.72,-0.3405087,5
11,1703052287000,-1.04,7.35,-0.84446156,5
11,1703102306000,-0.89,13.82,-2.7513103,5
11,1703152263000,-3.91,16.13,11.114203,5
11,1703202312000,0.34,15.05,-0.10896278,5
11,1703252238000,0.42,13.82,-1.6480621,5
11,1703302318000,-1.08,8.01,-1.920469,5
11,1703352244000,-5.52,11.73,-2.9556155,5
11,1703402293000,-4.52,8.85,-1.4982382,5
11,1703452251000,-0.95,3.87,0.08172209,5
11,1703502330000,-0.91,3.49,0.6537767,5
11,1703552318000,5.6,8.85,1.6480621,5
11,1703602641000,2.64,13.18,4.0588636,5
11,1703652873000,-10.19,14.71,10.923519,5
11,1703702281000,-1.31,10.27,-2.7513103,5
11,1703752330000,-2.53,15.47,-1.7978859,5
11,1703802257000,-0.15,10.88,-1.879608,5
11,1703852367000,-0.53,12.72,-0.9125633,5
11,1703912273000,2.41,7.16,-1.56634,5
11,1703962230000,1.18,3.53,-0.7627395,5
11,1704012279000,0.38,4.6,-1.1849703,5
11,1704062266000,-0.15,11.03,-2.6423476,5
11,1704112285000,-1.76,18.73,10.841797,5
11,1704162242000,0.08,12.98,0.5720546,5
11,1704212260000,0.89,14.67,-1.0760075,5
11,1704262248000,-1.84,10.95,-1.9477097,5
11,1704312266000,-3.34,10.08,-2.3699405,5
11,1704362254000,-7.35,10.15,-2.8738933,5
11,1704412273000,-1.46,5.05,0.040861044,5
11,1704462260000,3.68,4.86,2.1792557,5
11,1704512279000,1.76,7.27,-0.14982383,5
11,1704562236000,2.83,7.01,2.5333846,5
11,1704612285000,-2.64,16.44,5.706926,5
11,1704662242000,-6.28,10.8,4.5219555,5
11,1704712260000,-2.87,11.8,-0.8036005,5
11,1704762279000,-1.42,14.41,0.38136974,5
11,1704812327000,-1.12,9.58,-1.9477097,5
11,1704862285000,-0.91,12.76,-0.9125633,5
11,1704912334000,3.21,8.35,-1.1849703,5
11,1704962199000,1.69,3.99,-1.1849703,5
11,1705012248000,0.53,4.52,-1.8387469,5
11,1705062236000,-0.69,9.72,0.50395286,5
11,1705112285000,-2.07,16.89,-1.4165162,5
11,1705162273000,-3.11,14.94,7.3958488,5
11,1705212260000,0.5,15.32,0.10896278,5
11,1705262218000,-1.92,12.79,-1.7570249,5
11,1705312266000,-3.41,8.69,-2.5333846,5
11,1705362315000,-6.55,10.95,-2.7921712,5
11,1705412273000,-3.15,6.09,-0.46309182,5
11,1705462230000,0.53,3.72,1.607201,5
11,1705512248000,3.87,7.27,0.38136974,5
11,1705562236000,1.33,7.16,0.6537767,5
11,1705612285000,1.27,12.72,3.173541,5
11,1705662212000,-9.49,15.47,9.997335,5
11,1705712291000,-1.33,8.12,-0.19068487,5
11,1705762248000,-3.87,15.64,-0.95342433,5
11,1705812327000,-2.14,12.53,-2.3699405,5
11,1705872264000,-1.42,12.15,-0.9125633,5
11,1705922221000,1.8,7.86,-0.9125633,5
11,1705972301000,1.73,4.48,-0.95342433,5
11,1706022380000,0.93,4.52,-2.3699405,5
11,1706072276000,-0.27,9.51,0.50395286,5
11,1706122234000,-2.18,16.89,-1.0351465,5
11,1706172282000,-2.07,15.43,5.5162406,5
11,1706222209000,-0.89,15.64,-1.56634,5
11,1706272258000,-1.61,9.72,-1.2258313,5
11,1706322246000,-2.96,8.43,-0.8036005,5
11,1706322246000,-2.96,8.43,-0.8036005,5
11,1706422160000,-1.69,7.06,0.9942854,5
11,1706472331000,7.21,5.56,1.1849703,5
11,1706522349000,-0.53,6.21,0.46309182,5
11,1706572215000,2.34,5.37,2.6832085,5
11,1706622264000,-2.26,14.86,5.6252036,5
11,1706672221000,-2.26,14.18,3.9499009,5
11,1706722301000,-1.27,8.12,2.8330324,5
11,1706772227000,-4.1,15.55,-0.38136974,5
11,1706822276000,-0.72,10.57,-2.8330324,5
11,1706872203000,-1.57,12.22,-1.607201,5
11,1706922282000,2.03,10.53,-0.08172209,5
11,1706972240000,2.15,5.09,-0.6946377,5
11,1707022288000,0.93,4.14,-1.9885708,5
11,1707072215000,-0.19,7.93,0.08172209,5
11,1707122264000,-4.48,17.67,8.308413,5
11,1707172221000,0.53,12.64,-1.9885708,5
11,1707222270000,0.61,13.76,1.6480621,5
11,1707272197000,-0.84,13.48,-0.84446156,5
11,1707322368000,-2.07,8.2,-2.2201166,5
11,1707372234000,-4.75,10.65,-1.0760075,5
11,1707422313000,-4.29,8.39,-0.7218784,5
11,1707472270000,1.95,5.28,5.175732,5
11,1707522258000,0.5,5.94,-0.27240697,5
11,1707572246000,0.27,6.02,0.92618364,5
11,1707622295000,2.03,11.11,7.7363577,5
11,1707672221000,-6.63,15.24,4.944186,5
11,1707722270000,-4.9,11.5,0.50395286,5
11,1707772197000,-3.49,14.63,0.42223078,5
11,1707822276000,-1.76,8.89,-1.1441092,5
11,1707872203000,-1.69,12.41,-1.2666923,5
11,1707922282000,4.06,10.34,-1.4573772,5
11,1707972209000,0.8,4.6,-2.9147544,5
11,1708022288000,0.46,4.63,-1.4982382,5
11,1708072246000,-0.84,9.66,0.53119355,5
11,1708122325000,-1.84,15.89,4.1814466,5
11,1708172252000,-1.92,14.06,6.2108784,5
11,1708222301000,-1.27,14.18,0.3405087,5
11,1708272197000,-1.88,12.98,-1.1849703,5
11,1708322276000,-2.45,9.38,-1.8387469,5
11,1708372203000,-5.28,10.53,-2.3426998,5
11,1708422313000,-3.11,7.63,-0.6537767,5
11,1708472209000,3.41,4.63,2.3018389,5
11,1708522288000,1.5,6.44,-0.53119355,5
11,1708572246000,-1.18,6.51,1.1849703,5
11,1708622264000,2.87,10.73,5.134871,5
11,1708672282000,-7.7,16.4,7.6273947,5
11,1708722270000,-2.34,8.24,2.3426998,5
11,1708772227000,-4.71,15.89,1.4982382,5
11,1708822276000,-0.27,9.53,-2.1111538,5
11,1708872234000,-0.38,10.42,-0.9942854,5
11,1708922282000,2.76,10.99,-0.29964766,5
11,1708972270000,2.45,6.7,-1.0351465,5
11,1709022288000,0.65,5.24,-3.9090397,5
11,1709072215000,-0.34,8.35,0.27240697,5
11,1709122264000,-2.11,12.34,-0.38136974,5
11,1709172221000,-2.37,16.47,10.800936,5
11,1709222301000,-0.11,12.15,-0.6537767,5
11,1709272197000,-0.11,15.4,-0.46309182,5
11,1709322276000,-2.03,11.18,-2.070293,5
11,1709372203000,-2.68,9.53,-2.3018389,5
11,1709422282000,-3.87,8.92,-1.4573772,5
11,1709472209000,-1.08,5.6,0.19068487,5
11,1709522288000,3.95,7.16,2.8330324,5
11,1709572215000,-1.33,6.05,-0.7627395,5
11,1709622264000,0.46,6.78,3.445948,5
11,1709672221000,-10.5,14.06,11.563675,5
11,1709722270000,-3.36,9.81,1.4165162,5
11,1709772197000,-4.02,13.44,1.5390993,5
11,1709822276000,-2.26,11.99,-3.405087,5
11,1709872234000,-1.88,11.14,-0.9942854,5
11,1709922282000,-1.99,13.72,0.38136974,5
11,1709972209000,1.54,7.25,-0.19068487,5
11,1710022288000,0.95,3.41,-0.23154591,5
11,1710072215000,-0.5,4.56,-0.29964766,5
11,1710122264000,-1.65,10.8,2.4108016,5
11,1710172252000,-1.73,15.17,7.8589406,5
11,1710222270000,-1.99,11.41,0.08172209,5
11,1710272258000,-0.08,13.76,1.879608,5
11,1710322276000,-1.84,14.33,-1.6889231,5
11,1710372234000,-2.91,10.42,-1.6889231,5
11,1710422282000,-5.56,10.76,-2.2201166,5
11,1710472209000,-4.44,7.16,-1.9885708,5
11,1710522288000,-0.95,4.21,0.53119355,5
11,1710572215000,-0.57,4.94,0.92618364,5
11,1710622264000,4.56,7.27,-0.08172209,5
11,1710672252000,5.01,14.37,2.8738933,5
11,1710722270000,-0.27,11.96,2.3018389,5
11,1710772197000,-6.13,10.88,5.5571017,5
11,1710822368000,-3.06,15.02,-0.7218784,5
11,1710872203000,-1.53,12.07,-1.6889231,5
11,1710922282000,-1.42,12.26,-1.6889231,5
11,1710972240000,3.99,12.26,-1.0351465,5
11,1711022227000,1.95,5.24,-1.3756552,5
11,1711072215000,1.23,3.53,-1.9885708,5
11,1711122264000,0.95,6.66,-0.42223078,5
11,1711172252000,-1.5,12.91,0.50395286,5
11,1711222270000,-1.8,17.24,9.302697,5
11,1711272227000,0.5,13.29,-1.6889231,5
11,1711322276000,-1.14,15.55,-0.61291564,5
11,1711372203000,-1.99,8.81,-2.2201166,5
11,1711422282000,-4.71,9.38,-2.4516625,5
11,1711472301000,-4.67,8.89,-0.6946377,5
11,1711522380000,0.04,5.71,2.0294318,5
11,1711572307000,2.87,6.78,0.6946377,5
11,1711622325000,-0.38,5.75,0.38136974,5
11,1711682231000,1.61,11.22,9.084772,5
11,1711732219000,-7.31,15.83,4.671779,5
11,1711782237000,-3.79,9.3,1.1441092,5
11,1711832225000,-2.41,15.6,-0.50395286,5
11,1711882274000,-0.46,10.0,-2.1111538,5
11,1711932231000,-1.12,11.5,-1.3075534,5
11,1711982280000,2.07,10.57,-0.19068487,5
11,1712032237000,1.69,5.6,0.10896278,5
11,1712082255000,0.42,4.75,-1.2666923,5
11,1712132243000,-0.15,8.43,-0.7627395,5
11,1712182323000,-1.38,14.1,-1.2258313,5
11,1712182323000,-1.38,14.1,-1.2258313,5
11,1712242351000,-4.75,13.63,11.032481,5
11,1712292369000,0.23,15.47,-1.525479,5
11,1712342265000,-0.95,12.68,-1.7297841,5
11,1712392345000,-2.45,9.47,-2.0294318,5
11,1712452312000,-6.09,10.27,-1.9477097,5
11,1712502238000,-2.07,5.6,-0.53119355,5
11,1712552287000,0.31,3.87,1.0760075,5
11,1712602244000,3.38,7.82,0.19068487,5
11,1712652232000,3.87,10.38,4.0588636,5
11,1712702251000,-3.83,12.76,4.7943625,5
11,1712752238000,-4.94,11.11,4.372132,5
11,1712802257000,-2.68,11.99,-0.29964766,5
11,1712852275000,-1.61,14.9,-0.29964766,5
11,1712902232000,-0.89,12.34,-2.4925237,5
11,1712952312000,2.11,12.64,-1.8387469,5
11,1713002269000,3.41,7.46,-1.2666923,5
11,1713052318000,1.27,4.02,-2.5333846,5
11,1713102244000,0.5,6.21,-1.334794,5
11,1713152324000,-0.95,11.8,0.7627395,5
11,1713202251000,-1.42,16.55,7.7363577,5
11,1713252330000,-1.08,11.96,-0.14982383,5
11,1713302257000,-0.53,15.94,0.53119355,5
11,1713352336000,-2.49,12.64,-2.5333846,5
11,1713402232000,-2.18,9.19,-2.7240696,5
11,1713452312000,-4.33,9.72,-2.4108016,5
11,1713502238000,-1.46,5.67,-0.6946377,5
11,1713552318000,0.11,3.87,0.7627395,5
11,1713602244000,3.64,8.05,0.23154591,5
11,1713652293000,2.07,9.51,1.4165162,5
11,1713702281000,-0.8,13.4,2.7240696,5
11,1713752330000,-10.0,14.63,8.349273,5
11,1713802257000,-2.56,9.62,-0.9125633,5
11,1713852336000,-3.76,15.7,-0.3405087,5
11,1713902232000,-1.04,10.0,-0.61291564,5
11,1713952251000,2.53,12.98,-3.405087,5
11,1714002238000,1.69,9.0,-0.50395286,5
11,1714052318000,0.76,4.52,-4.7943625,5
11,1714102244000,-0.04,5.9,-0.6946377,5
11,1714152293000,-1.04,9.62,1.2258313,5
11,1714202251000,-1.88,14.44,2.2609777,5
11,1714252299000,0.0,13.59,15.554437,5
11,1714302257000,-1.04,15.21,-1.4165162,5
11,1714352306000,-2.72,13.67,-1.4573772,5
11,1714402232000,-2.18,8.2,-1.7570249,5
11,1714452281000,-5.33,10.19,-2.982856,5
11,1714502238000,-2.56,7.08,-0.7218784,5
11,1714552257000,-0.23,4.71,0.7627395,5
11,1714602244000,-0.46,5.67,1.2258313,5
11,1714652293000,3.15,7.74,3.214402,5
11,1714702251000,-5.6,13.95,10.119919,5
11,1714752299000,-6.05,12.79,1.1849703,5
11,1714802257000,-2.37,6.32,4.5219555,5
11,1714852306000,-5.09,16.78,0.08172209,5
11,1714902232000,-0.15,10.53,-1.6480621,5
11,1714952312000,0.72,11.54,-1.3075534,5
11,1715002269000,0.93,9.62,0.10896278,5
11,1715052318000,2.18,5.09,-0.7627395,5
11,1715102244000,-0.04,4.67,-1.7978859,5
11,1715152324000,-1.27,8.73,0.3405087,5
11,1715202281000,-2.6,14.33,1.7570249,5
11,1715252269000,-3.6,12.98,9.275456,5
11,1715302257000,-1.84,13.72,-1.0351465,5
11,1715352306000,-0.69,14.94,-0.27240697,5
11,1715402232000,-0.65,8.73,-1.9477097,5
11,1715452312000,-3.15,9.62,-2.3426998,5
11,1715502238000,-4.67,10.27,-0.9125633,5
11,1715552318000,-2.37,6.05,-0.6537767,5
11,1715602244000,0.65,3.76,0.6537767,5
11,1715652293000,1.95,7.74,1.4573772,5
11,1715702251000,2.03,9.58,3.5957718,5
11,1715752330000,-9.7,12.76,10.147159,5
11,1715802257000,-3.87,10.08,0.92618364,5
11,1715852306000,-2.72,10.69,1.7570249,5
11,1715902232000,-2.18,13.57,-1.0760075,5
11,1715952312000,-0.65,10.23,-1.7978859,5
11,1716002238000,0.27,13.59,-0.6537767,5
11,1716052348000,1.23,8.35,0.08172209,5
11,1716102244000,1.04,4.02,-1.3756552,5
11,1716152324000,-0.69,5.43,-1.2258313,5
11,1716202251000,-1.8,10.08,0.6946377,5
11,1716252238000,-3.95,15.98,10.147159,5
11,1716302287000,-0.95,12.41,-0.5720546,5
11,1716352336000,-0.76,15.94,0.53119355,5
11,1716402232000,-1.31,10.8,-1.2258313,5
11,1716452312000,-1.46,7.89,-1.3075534,5
11,1716502238000,-5.75,12.64,-2.1383946,5
11,1716552318000,-2.79,8.08,-1.8387469,5
11,1716602244000,-0.19,4.14,0.42223078,5
11,1716652293000,3.02,5.9,2.6832085,5
11,1716702251000,-0.61,7.01,-0.10896278,5
11,1716752299000,0.0,9.15,12.762266,5
11,1716802257000,-6.51,14.63,1.7297841,5
11,1716852306000,-1.92,8.58,3.405087,5
11,1716902232000,-4.25,18.12,1.4982382,5
11,1716952312000,0.76,10.73,-3.5957718,5
11,1717002238000,-1.14,11.5,-1.56634,5
11,1717052318000,0.99,11.69,0.10896278,5
11,1717102244000,2.34,6.24,-0.9125633,5
11,1717152293000,0.19,4.44,-2.8738933,5
11,1717202251000,-0.84,6.93,0.08172209,5
11,1717252299000,-2.53,12.41,1.5390993,5
11,1717302257000,2.56,14.25,12.217452,5
11,1717352336000,-1.08,12.45,-1.334794,5
11,1717412242000,-2.3,16.17,0.61291564,5
11,1717462199000,-2.64,10.42,-2.3426998,5
11,1717512279000,-4.67,11.65,-2.6014864,5
11,1717562236000,-3.17,8.16,-1.607201,5
11,1717612315000,-0.08,4.6,-0.23154591,5
11,1717662303000,3.34,4.02,3.0237172,5
11,1717712291000,0.8,6.85,1.9885708,5
11,1717762218000,-0.23,8.96,7.6954966,5
11,1717812297000,-9.08,15.21,3.445948,5
11,1717862224000,-2.6,8.66,4.099725,5
11,1717912273000,-4.82,14.94,-0.19068487,5
11,1717962260000,-0.76,11.88,-2.1111538,5
11,1717962260000,-0.76,11.88,-2.1111538,5
11,1717962260000,-0.76,11.88,-2.1111538,5
11,1718112285000,1.31,4.94,-0.19068487,5
11,1718162395000,0.34,3.38,-2.2201166,5
11,1718212230000,-0.61,6.97,-0.61291564,5
11,1718262279000,-2.79,13.02,0.88532263,5
11,1718312266000,0.19,15.36,11.141444,5
11,1718362285000,-0.91,11.5,-0.50395286,5
11,1718412242000,-0.72,15.13,0.88532263,5
11,1718462321000,-2.49,11.65,-2.3699405,5
11,1718512218000,-3.91,10.99,-1.879608,5
11,1718562266000,-3.3,9.62,-1.4982382,5
11,1718612224000,-0.19,5.71,1.0351465,5
11,1718662303000,2.6,6.02,3.1054392,5
11,1718712199000,-0.95,4.56,-0.95342433,5
11,1718762309000,2.83,7.12,8.281172,5
11,1718812236000,-8.81,16.47,4.903325,5
11,1718862315000,-4.29,9.81,1.8387469,5
11,1718912273000,-4.21,13.63,0.6537767,5
11,1718962291000,-1.46,11.07,-1.7570249,5
11,1719012248000,-1.92,14.29,-0.08172209,5
11,1719062297000,2.34,12.45,0.313268,5
11,1719112254000,1.69,5.6,-2.3018389,5
11,1719162273000,0.15,3.41,-2.3018389,5
11,1719212199000,-0.27,5.6,-0.0,5
11,1719262279000,-2.03,11.22,0.95342433,5
11,1719312205000,-1.84,17.35,10.038197,5
11,1719362285000,-0.3,12.11,-1.0760075,5
11,1719412212000,0.04,13.21,0.6946377,5
11,1719462260000,-1.84,12.26,-1.56634,5
11,1719512248000,-4.82,12.18,-2.9147544,5
11,1719562328000,-4.48,9.77,-2.0294318,5
11,1719612254000,-0.61,5.6,-0.61291564,5
11,1719662303000,4.18,5.75,2.2201166,5
11,1719712230000,2.15,6.82,-0.10896278,5
11,1719762279000,0.38,6.44,2.8738933,5
11,1719812266000,-6.51,14.75,6.701211,5
11,1719862285000,-5.75,10.95,2.982856,5
11,1719912273000,-1.33,9.15,4.630918,5
11,1719962260000,-3.57,15.6,-2.7240696,5
11,1720012248000,0.11,13.57,-2.3699405,5
11,1720062266000,0.27,13.8,-0.040861044,5
11,1720112254000,2.15,8.16,0.08172209,5
11,1720162303000,1.76,3.11,-1.2666923,5
11,1720212230000,0.08,3.68,-1.6889231,5
11,1720262279000,-0.84,8.43,0.46309182,5
11,1720312205000,-4.52,18.12,6.66035,5
11,1720362285000,-0.76,12.72,-0.3405087,5
11,1720412242000,-0.61,15.43,0.313268,5
11,1720462260000,-1.92,12.11,-1.2666923,5
11,1720512248000,-1.69,7.78,-0.6946377,5
11,1720562297000,-5.79,11.37,-1.9477097,5
11,1720612285000,-2.56,8.16,-1.4982382,5
11,1720662303000,4.6,5.56,4.2904096,5
11,1720712230000,0.11,6.02,0.84446156,5
11,1720762279000,-1.69,5.86,-1.525479,5
11,1720812236000,-2.68,9.81,12.067628,5
11,1720862285000,-7.97,14.63,4.671779,5
11,1720912273000,-2.79,7.97,4.099725,5
11,1720962260000,-3.76,15.85,-3.8681788,5
11,1721012218000,0.11,11.73,-2.3699405,5
11,1721062266000,-1.33,12.18,-0.19068487,5
11,1721112254000,-0.34,9.58,0.42223078,5
11,1721162334000,0.93,5.41,-0.27240697,5
11,1721212230000,0.19,4.67,-0.08172209,5
11,1721262309000,-0.72,6.63,0.6946377,5
11,1721312236000,-2.72,14.48,5.829509,5
11,1721362315000,-1.99,12.98,0.50395286,5
11,1721412242000,-0.65,13.82,1.7297841,5
11,1721462260000,-0.23,13.8,-1.6480621,5
11,1721512218000,-2.11,10.61,-1.0760075,5
11,1721562266000,-6.02,11.45,-2.6014864,5
11,1721612224000,-4.52,8.05,-2.7513103,5
11,1721662273000,-1.31,4.56,0.38136974,5
11,1721712260000,0.08,4.18,1.9885708,5
11,1721762279000,4.52,7.89,-0.50395286,5
11,1721812236000,3.34,12.6,2.982856,5
11,1721862285000,-0.84,12.45,1.0351465,5
11,1721912212000,-9.15,16.51,5.938472,5
11,1721962260000,-0.84,13.18,-2.8738933,5
11,1722012248000,-0.38,6.89,-1.879608,5
11,1722062266000,-1.92,9.53,-1.2258313,5
11,1722112315000,-1.04,12.68,-0.7627395,5
11,1722162303000,1.61,7.5,-0.3405087,5
11,1722212230000,0.84,4.9,-0.14982383,5
11,1722262309000,1.08,7.4,-1.334794,5
11,1722312236000,-0.99,12.41,0.61291564,5
11,1722362285000,-5.18,12.79,4.7943625,5
11,1722412242000,-1.8,15.4,1.4165162,5
11,1722462260000,-1.8,14.14,-1.7297841,5
11,1722512248000,-1.5,8.39,-0.08172209,5
11,1722562297000,-5.18,11.5,-1.6889231,5
11,1722612254000,-5.82,10.73,-1.1441092,5
11,1722662273000,-0.95,4.99,1.607201,5
11,1722712230000,1.31,4.1,0.8036005,5
11,1722762279000,-0.34,6.85,0.42223078,5
11,1722812236000,1.23,11.03,2.9556155,5
11,1722862315000,-5.28,14.1,11.727119,5
11,1722912242000,-4.4,9.96,0.08172209,5
11,1722962260000,-3.45,12.26,-0.040861044,5
11,1723012218000,-1.53,12.79,-1.3756552,5
11,1723062266000,-0.72,10.92,-3.1054392,5
11,1723062266000,-0.72,10.92,-3.1054392,5
11,1723182231000,0.99,5.86,0.14982383,5
11,1723232310000,0.65,4.37,-2.2609777,5
11,1723232310000,0.65,4.37,-2.2609777,5
11,1723292308000,-0.23,8.08,-0.08172209,5
11,1723342265000,-1.08,15.32,-1.3075534,5
11,1723392314000,-1.73,13.8,7.7363577,5
11,1723442485000,0.08,11.45,-0.53119355,5
11,1723492259000,-0.3,16.09,0.50395286,5
11,1723542400000,-1.38,10.38,-1.7570249,5
11,1723592265000,-3.45,9.89,-3.2961242,5
11,1723642406000,-4.82,9.62,-1.8387469,5
11,1723692302000,-2.18,5.13,-1.1441092,5
11,1723742290000,-0.95,4.29,0.9942854,5
11,1723852122000,3.49,10.69,1.6889231,5
11,1723852122000,3.49,10.69,1.6889231,5
11,1723902202000,0.15,9.38,2.5606253,5
11,1723952312000,-6.78,15.28,7.164303,5
11,1724002269000,-3.06,8.54,0.95342433,5
11,1724052379000,-3.64,15.6,1.0760075,5
11,1724112285000,-1.38,10.27,-2.8738933,5
11,1724162242000,-0.11,12.37,-2.3018389,5
11,1724212260000,2.83,11.03,0.53119355,5
11,1724262248000,1.04,5.43,-2.4516625,5
11,1724312297000,1.23,4.6,-1.2258313,5
11,1724362254000,-0.34,8.28,0.46309182,5
11,1724412334000,-1.73,13.02,-0.50395286,5
11,1724462230000,-5.48,16.36,10.61025,5
11,1724512248000,0.72,11.99,-1.8387469,5
11,1724562236000,-0.89,14.52,-0.9942854,5
11,1724612315000,-3.06,10.95,-1.334794,5
11,1724662242000,-4.4,9.81,-1.334794,5
11,1724712260000,-3.21,10.69,3.336985,5
11,1724762248000,1.95,7.59,1.334794,5
11,1724812236000,-0.57,3.6,-2.3699405,5
11,1724862254000,0.89,5.18,3.0237172,5
11,1724912303000,-1.73,9.53,4.7126403,5
11,1724962291000,-7.35,11.69,7.0553403,5
11,1725012248000,-4.1,10.04,3.8273177,5
11,1725062297000,-4.18,11.84,1.7570249,5
11,1725112315000,-1.18,12.83,-2.5606253,5
11,1725162273000,-1.14,12.49,-1.8387469,5
11,1725212291000,-1.88,14.25,0.84446156,5
11,1725262248000,0.8,7.59,0.3405087,5
11,1725312297000,1.8,3.76,-0.9125633,5
11,1725362285000,-0.38,4.79,0.5720546,5
11,1725412334000,-2.49,11.41,3.7864566,5
11,1725462352000,-0.38,12.18,0.9942854,5
11,1725512248000,-1.57,12.95,2.3426998,5
11,1725562236000,0.27,13.57,1.4573772,5
11,1725612285000,-1.38,13.18,-0.9942854,5
11,1725662242000,-1.69,8.2,-1.3075534,5
11,1725712260000,-4.21,10.34,-1.4573772,5
11,1725762218000,-4.71,10.19,-1.0760075,5
11,1725812236000,-1.31,4.99,-0.38136974,5
11,1725862224000,2.45,5.98,2.1111538,5
11,1725912273000,0.61,8.43,-0.10896278,5
11,1725962230000,3.21,8.81,3.3778462,5
11,1726012248000,-5.37,14.56,4.1814466,5
11,1726062266000,-5.33,11.03,3.759216,5
11,1726112285000,-2.07,16.25,-1.607201,5
11,1726162242000,-1.12,9.47,-2.4108016,5
11,1726212260000,-0.8,9.81,-2.3426998,5
11,1726262248000,-0.84,13.25,-1.2258313,5
11,1726312266000,1.31,8.39,0.3405087,5
11,1726362254000,1.73,4.9,-0.50395286,5
11,1726412273000,0.04,6.4,-0.23154591,5
11,1726462199000,-0.76,11.18,-2.4925237,5
11,1726512462000,-3.3,13.99,11.304889,5
11,1726562266000,0.15,11.88,0.14982383,5
11,1726612315000,-0.5,14.02,1.1849703,5
11,1726662242000,-1.57,11.84,-2.0294318,5
11,1726712260000,-2.22,8.96,-1.334794,5
11,1726762218000,-6.28,11.92,-1.9885708,5
11,1726812236000,-3.36,8.05,0.3405087,5
11,1726862254000,2.79,5.41,3.173541,5
11,1726912303000,0.8,5.6,-1.2666923,5
11,1726962230000,1.73,7.25,1.9477097,5
11,1727012340000,0.27,13.67,2.7649305,5
11,1727062236000,-6.82,14.6,8.689782,5
11,1727112315000,-1.38,7.25,0.61291564,5
11,1727162242000,-4.21,15.98,0.9942854,5
11,1727212260000,-1.08,12.26,-2.1792557,5
11,1727262218000,-0.08,11.65,-1.7570249,5
11,1727312266000,1.14,11.03,0.19068487,5
11,1727362254000,1.57,4.99,-0.29964766,5
11,1727412303000,0.93,4.18,-2.6014864,5
11,1727462230000,-0.19,7.89,0.27240697,5
11,1727512309000,-0.72,14.29,-1.9885708,5
11,1727562236000,-4.25,14.67,8.049625,5
11,1727612285000,0.08,12.03,-0.040861044,5
11,1727662212000,-0.19,14.56,-0.3405087,5
11,1727712260000,-1.18,8.73,-1.3756552,5
11,1727762248000,-2.98,9.62,-1.920469,5
11,1727812266000,-5.86,13.63,-1.7297841,5
11,1727862254000,-1.38,7.06,-0.08172209,5
11,1727912303000,5.09,5.94,2.8330324,5
11,1727962199000,-1.08,5.67,-0.27240697,5
11,1728012279000,0.65,6.36,1.3756552,5
11,1728062205000,-4.37,15.17,8.853226,5
11,1728112285000,-5.01,11.45,1.920469,5
11,1728162273000,-3.76,11.96,2.7240696,5
11,1728212260000,-2.98,13.53,-1.7297841,5
11,1728262279000,0.08,10.15,-2.6014864,5
11,1728312266000,0.5,12.18,-1.334794,5
11,1728362254000,0.27,9.66,0.3405087,5
11,1728412273000,1.84,5.48,-0.61291564,5
11,1728462230000,1.54,6.09,-1.334794,5
11,1728512279000,-1.08,9.23,-0.95342433,5
11,1728562236000,-6.78,16.09,11.304889,5
11,1728612285000,0.0,10.73,-1.0760075,5
11,1728662212000,0.93,13.06,0.53119355,5
11,1728712260000,-0.04,14.67,-0.6537767,5
11,1728762248000,-2.22,10.27,-1.9885708,5
11,1728812236000,-4.06,10.42,-1.607201,5
11,1728872325000,-3.49,9.11,-1.334794,5
11,1728922343000,1.57,6.89,5.053149,5
11,1728972270000,0.23,3.76,-0.19068487,5
11,1729022258000,-1.33,5.67,-0.7627395,5
11,1729072307000,2.15,10.95,7.246025,5
11,1729122203000,-9.77,14.67,8.281172,5
11,1729172282000,-1.92,8.54,1.7570249,5
11,1729222209000,-5.13,14.02,1.2666923,5
11,1729272258000,-1.31,10.19,-1.920469,5
11,1729322215000,-1.88,12.03,-2.1383946,5
11,1729372264000,-0.08,13.4,-0.3405087,5
11,1729422221000,-0.08,7.59,0.84446156,5
11,1729472270000,1.57,3.87,-1.2258313,5
11,1729522227000,0.34,6.47,-0.29964766,5
11,1729572276000,-2.53,11.75,6.3607025,5
11,1729622203000,-0.99,12.03,2.6014864,5
11,1729682323000,-1.61,12.49,2.6014864,5
11,1729732280000,-0.38,14.14,0.313268,5
11,1729732280000,-0.38,14.14,0.313268,5
11,1729832255000,-2.83,10.23,-1.1168685,5
11,1729882335000,-3.98,11.35,-0.23154591,5
11,1729882335000,-3.98,11.35,-0.23154591,5
11,1729942271000,-2.22,6.28,-0.23154591,5
11,1729992259000,-1.12,3.64,1.5390993,5
11,1730042277000,-1.14,5.05,0.92618364,5
11,1730092265000,6.05,10.31,2.5606253,5
11,1730142284000,-2.14,16.86,5.175732,5
11,1730192454000,-6.09,11.88,3.3778462,5
11,1730247142000,-2.96,12.68,-0.9942854,5
11,1730302257000,-2.3,10.95,-2.1792557,5
11,1730352244000,-2.07,11.6,-1.525479,5
11,1730402263000,1.08,13.14,-0.9942854,5
11,1730452251000,0.65,6.44,0.42223078,5
11,1730502269000,2.98,2.49,-2.1111538,5
11,1730552257000,0.8,5.41,-0.14982383,5
11,1730602306000,-1.5,12.53,0.3405087,5
11,1730652232000,-9.23,17.77,12.912089,5
11,1730702312000,0.99,13.59,-1.607201,5
11,1730752238000,-0.61,14.41,-1.4982382,5
11,1730802318000,-1.76,8.62,-0.61291564,5
11,1730852244000,-4.9,11.3,-1.879608,5
11,1730902293000,-6.09,11.41,-1.4573772,5
11,1730952251000,1.54,5.18,7.1234417,5
11,1731002299000,0.15,3.95,-0.8036005,5
11,1731052257000,-0.99,3.41,-0.6537767,5
11,1731102306000,-0.19,7.01,1.2258313,5
11,1731152232000,-10.15,18.24,12.639683,5
11,1731202312000,-3.11,7.82,1.4573772,5
11,1731252299000,-4.29,14.14,1.879608,5
11,1731302318000,-1.69,11.65,-2.1383946,5
11,1731352244000,-0.99,10.04,-2.6832085,5
11,1731402232000,-1.38,13.82,-0.3405087,5
11,1731452251000,0.46,8.05,-0.040861044,5
11,1731502269000,0.99,4.21,-0.7218784,5
11,1731552226000,-0.38,4.21,0.23154591,5
11,1731602306000,-0.91,7.82,0.5720546,5
11,1731652232000,-2.6,17.47,9.384419,5
11,1731702312000,-0.91,13.21,-0.8036005,5
11,1731752238000,-0.11,14.63,1.8387469,5
11,1731802318000,-1.92,12.45,-1.2666923,5
11,1731852275000,-2.41,8.92,-1.7570249,5
11,1731902293000,-6.09,11.65,-1.9477097,5
11,1731952251000,-3.02,6.93,-1.525479,5
11,1732002299000,-0.84,4.63,0.313268,5
11,1732052257000,2.87,5.6,0.7218784,5
11,1732102275000,1.88,7.74,0.7218784,5
11,1732152232000,1.31,10.08,4.4810944,5
11,1732202312000,-11.5,16.04,9.656827,5
11,1732252238000,-1.99,7.46,0.7218784,5
11,1732302318000,-2.83,14.52,2.5606253,5
11,1732362987000,0.38,12.72,-2.6423476,5
11,1732412242000,-0.3,12.53,-0.9942854,5
11,1732462260000,0.46,8.96,0.23154591,5
11,1732512248000,1.92,4.14,-1.1441092,5
11,1732562236000,-0.27,3.57,-1.0760075,5
11,1732612285000,-0.72,7.78,0.10896278,5
11,1732662273000,-2.41,15.17,0.5720546,5
11,1732712199000,-1.84,16.09,10.61025,5
11,1732762279000,-0.72,13.48,-0.19068487,5
11,1732812236000,-1.8,14.9,-1.1441092,5
11,1732862285000,-1.95,9.38,-0.61291564,5
11,1732912273000,-4.29,10.15,-1.607201,5
11,1732962260000,-4.4,8.69,-1.4982382,5
11,1733012279000,-1.76,5.37,0.27240697,5
11,1733062297000,4.1,4.94,0.9942854,5
11,1733112224000,-0.46,6.13,0.6537767,5
11,1733162364000,3.91,8.58,6.0201936,5
11,1733212230000,-11.14,17.05,9.275456,5
11,1733262279000,-1.8,7.01,-1.3075534,5
11,1733312236000,-2.75,9.08,-0.23154591,5
11,1733362285000,-2.11,14.29,2.3426998,5
11,1733412242000,-0.61,16.28,-4.099725,5
11,1733462260000,0.15,11.14,-0.08172209,5
11,1733512248000,1.92,6.32,-0.6537767,5
11,1733562236000,0.53,5.37,-1.0760075,5
11,1733612254000,-0.89,7.16,-1.4982382,5
11,1733662273000,-1.31,12.68,-0.29964766,5
11,1733712199000,-0.89,14.25,9.80665,5
11,1733762279000,0.99,14.18,-0.040861044,5
11,1733812236000,-1.12,14.29,-1.7570249,5
11,1733862315000,-2.26,9.92,-0.9942854,5
11,1733912242000,-4.44,11.75,-3.0237172,5
11,1733962260000,-3.68,8.2,-3.0645783,5
11,1734012279000,-0.53,4.71,0.19068487,5
11,1734062266000,0.61,4.02,1.3756552,5
11,1734112224000,0.53,6.32,0.88532263,5
11,1734162303000,1.95,9.77,3.759216,5
11,1734212230000,-6.93,14.79,8.19945,5
11,1734262340000,-5.52,10.15,1.7570249,5
11,1734312266000,-2.34,15.32,-0.9942854,5
11,1734362315000,-1.14,10.12,-2.1111538,5
11,1734412334000,0.5,9.62,-1.334794,5
11,1734462260000,-0.76,12.83,0.08172209,5
11,1734512218000,0.38,6.44,-0.040861044,5
11,1734562236000,0.76,4.06,-0.9942854,5
11,1734612254000,-0.42,6.55,-2.3018389,5
11,1734662273000,-1.42,13.82,9.915613,5
11,1734722331000,-0.42,11.75,0.08172209,5
11,1734772288000,-0.23,13.95,0.7218784,5
11,1734822246000,-1.33,15.51,0.3405087,5
11,1734872203000,-2.87,9.28,-0.6537767,5
11,1734922282000,-2.34,7.44,-1.7297841,5
11,1734972209000,-5.56,10.76,-5.8976107,5
11,1735022319000,-2.22,7.06,-1.1441092,5
11,1735072246000,3.17,5.24,5.243834,5
11,1735122264000,-0.5,6.24,-0.0,5
11,1735172221000,1.61,6.93,2.3018389,5
11,1735222270000,-1.57,14.6,7.273266,5
11,1735272258000,-6.47,12.91,3.5957718,5
11,1735322307000,-2.72,12.79,-1.6889231,5
11,1735372203000,-1.8,12.22,-1.6889231,5
11,1735432353000,-1.27,9.19,-1.7570249,5
11,1735482310000,0.5,13.21,-2.2609777,5
11,1735482310000,0.5,13.21,-2.2609777,5
11,1735582225000,1.8,4.1,-0.6946377,5
11,1735632304000,-0.27,6.24,-2.2609777,5
11,1735632304000,-0.27,6.24,-2.2609777,5
11,1735692332000,-3.53,14.29,11.727119,5
11,1735742259000,0.89,11.6,-0.08172209,5
11,1735792277000,-0.99,12.18,2.2201166,5
11,1735842265000,-1.42,14.44,1.1441092,5
11,1735892314000,-2.41,11.26,-2.5333846,5
11,1735942271000,-4.14,11.11,-3.8681788,5
11,1735992259000,-5.67,9.77,-4.099725,5
11,1736042277000,-2.11,5.79,0.040861044,5
11,1736092296000,4.02,6.02,2.7649305,5
11,1736142345000,0.72,7.12,0.040861044,5
11,1736192302000,4.75,6.66,2.4925237,5
11,1736242320000,0.84,14.25,4.630918,5
11,1736292308000,-2.22,10.95,1.8387469,5
11,1736342265000,-0.8,9.04,4.372132,5
11,1736392284000,-1.46,16.02,-1.3756552,5
11,1736442271000,-3.17,8.96,-4.099725,5
11,1736492320000,-0.61,13.02,-2.4108016,5
11,1736542277000,0.95,10.46,-0.42223078,5
11,1736592265000,1.76,5.28,-0.84446156,5
11,1736642284000,1.23,5.13,-1.2666923,5
11,1736692271000,0.72,9.58,-3.336985,5
11,1736742412000,-3.53,16.4,13.443283,5
11,1736792308000,1.46,12.26,0.61291564,5
11,1736842326000,0.19,13.38,1.920469,5
11,1736892314000,-1.99,11.75,-0.7627395,5
11,1736942271000,-2.45,9.53,-2.0294318,5
11,1736992259000,-4.25,11.8,-4.140586,5
11,1737042277000,-3.36,7.82,-1.525479,5
11,1737092418000,0.19,5.48,6.973618,5
11,1737142284000,-1.69,4.9,-1.0351465,5
11,1737192302000,0.38,6.97,2.1111538,5
11,1737242259000,0.46,10.69,7.273266,5
11,1737292277000,-10.57,14.86,5.366417,5
11,1737342265000,-4.21,11.69,2.3699405,5
11,1737392284000,-2.14,11.96,-1.1168685,5
11,1737442424000,0.34,8.81,-1.334794,5
11,1737492290000,-0.38,12.3,-0.10896278,5
11,1737542308000,1.61,8.47,-0.6946377,5
11,1737592265000,1.23,5.86,-1.7297841,5
11,1737642284000,0.23,4.94,-0.88532263,5
11,1737692271000,-0.89,8.92,0.14982383,5
11,1737742259000,-2.26,15.43,1.2258313,5
11,1737792277000,-0.42,13.38,3.6774938,5
11,1737842265000,-0.38,13.48,0.7627395,5
11,1737892314000,-0.5,13.4,-0.84446156,5
11,1737942241000,-1.18,9.15,-1.56634,5
11,1737992259000,-4.1,11.18,-3.5957718,5
11,1738042308000,-3.68,8.54,-2.2609777,5
11,1738092265000,-0.53,4.4,-0.6946377,5
11,1738142345000,2.87,5.56,2.8738933,5
11,1738192271000,-0.27,6.97,1.2258313,5
11,1738242259000,1.31,9.19,4.2904096,5
11,1738292277000,-10.42,15.83,11.686258,5
11,1738342265000,-2.11,7.93,-0.6537767,5
11,1738392314000,-3.64,14.71,-0.50395286,5
11,1738442424000,-1.38,11.8,-1.56634,5
11,1738492259000,1.42,11.3,-1.525479,5
11,1738542277000,0.61,10.76,0.14982383,5
11,1738592265000,2.11,5.33,-0.50395286,5
11,1738642284000,0.57,3.45,-3.255263,5
11,1738692271000,-0.3,6.89,-1.3756552,5
11,1738742259000,-1.61,13.18,0.50395286,5
11,1738792400000,-2.56,15.7,11.34575,5
11,1738842235000,-0.04,13.21,-1.2258313,5
11,1738892345000,-1.92,15.21,0.040861044,5
11,1738942271000,-2.07,10.46,-2.2609777,5
11,1738992290000,-3.21,9.34,-1.7297841,5
11,1739042277000,-3.45,8.54,-1.525479,5
11,1739092296000,1.12,7.31,4.5628166,5
11,1739142375000,-0.42,5.75,-0.08172209,5
11,1739192271000,-1.76,5.37,-2.8738933,5
11,1739242259000,0.15,6.89,10.528529,5
11,1739292277000,-9.0,13.29,8.308413,5
11,1739342296000,-2.87,9.28,3.636633,5
11,1739392314000,-4.44,12.76,-1.607201,5
11,1739442271000,-1.33,13.02,-2.3018389,5
11,1739492290000,0.89,13.14,-0.7627395,5
11,1739542277000,-0.5,10.61,0.9942854,5
11,1739592265000,1.42,4.02,-0.50395286,5
11,1739642284000,0.57,2.83,-0.6946377,5
11,1739692302000,-0.42,7.31,-3.0645783,5
11,1739742381000,-4.1,16.04,7.8861814,5
11,1739792338000,-0.38,13.91,1.920469,5
11,1739842296000,0.65,13.87,0.7627395,5
11,1739892314000,-1.31,13.53,-1.6480621,5
11,1739942271000,-2.26,9.85,-2.2201166,5
11,1739992259000,-4.99,11.22,-1.7297841,5
11,1740042277000,-3.57,8.05,-1.2666923,5
11,1740092296000,-0.15,4.02,0.23154591,5
11,1740142284000,2.03,4.79,2.0294318,5
11,1740192271000,-1.23,6.51,1.0760075,5
11,1740242625000,1.46,11.37,6.782933,5
11,1740292277000,-11.65,11.8,10.732834,5
11,1740342265000,-1.88,8.92,-0.7627395,5
11,1740392284000,-3.02,14.82,-1.6480621,5
11,1740442332000,-0.89,11.6,-2.7513103,5
11,1740492351000,-1.18,13.38,-0.42223078,5
11,1740542338000,0.57,7.74,0.040861044,5
11,1740592265000,1.08,3.6,-1.1168685,5
11,1740642406000,-0.61,4.06,-1.0351465,5
11,1740702281000,-1.08,11.75,-1.0760075,5
11,1740752238000,0.8,15.55,5.434519,5
11,1740802348000,0.15,12.11,0.10896278,5
11,1740852244000,0.5,12.45,1.9477097,5
11,1740902263000,-1.38,12.11,-1.9885708,5
11,1740952251000,-3.36,12.64,-2.5333846,5
11,1741002269000,-6.28,13.06,-2.7513103,5
11,1741052257000,-1.38,6.05,-0.84446156,5
11,1741102336000,3.95,5.98,7.1234417,5
11,1741152232000,-1.14,12.87,15.976667,5
11,1741252116000,-1.14,12.87,15.976667,5
11,1741252116000,-1.14,12.87,15.976667,5
11,1741302257000,-6.82,12.03,3.173541,5
11,1741352244000,-2.6,6.28,0.46309182,5
11,1741402232000,-4.82,16.51,1.3075534,5
11,1741452373000,-0.8,14.86,-3.718355,5
11,1741512279000,-0.46,12.3,0.23154591,5
11,1741562205000,1.46,6.09,-0.50395286,5
11,1741612315000,1.08,2.68,-1.2666923,5
11,1741662242000,-0.42,4.14,-1.9477097,5
11,1741712291000,-1.18,12.83,1.3075534,5
11,1741762248000,0.53,15.17,4.4810944,5
11,1741812266000,0.15,12.72,0.53119355,5
11,1741862254000,0.99,14.44,-2.2609777,5
11,1741912273000,-2.34,12.57,-2.9556155,5
11,1741962230000,-4.71,12.15,-1.7297841,5
11,1742012279000,-4.02,8.81,-0.7627395,5
11,1742062205000,-0.53,5.01,-0.08172209,5
11,1742112285000,2.22,3.72,0.46309182,5
11,1742162273000,2.53,5.98,-0.3405087,5
11,1742212291000,5.18,10.61,3.568531,5
11,1742262248000,-2.3,14.41,4.372132,5
11,1742312297000,-7.04,10.69,5.597963,5
11,1742362254000,-1.76,13.57,-2.7513103,5
11,1742412334000,-0.89,13.33,-2.3699405,5
11,1742462230000,-0.95,15.7,-1.7570249,5
11,1742512309000,2.22,10.61,0.8036005,5
11,1742562236000,2.98,3.11,-1.334794,5
11,1742612315000,1.33,1.5,-2.3699405,5
11,1742662242000,0.04,5.05,-1.1168685,5
11,1742712260000,0.31,12.79,-1.8387469,5
11,1742762248000,-5.79,17.58,11.985906,5
11,1742812266000,1.46,13.29,-2.3426998,5
11,1742862254000,-1.04,15.89,-3.336985,5
11,1742912273000,-2.96,10.92,-1.920469,5
11,1742962230000,-5.71,12.34,-0.6537767,5
11,1743012279000,-3.49,6.59,-1.0351465,5
11,1743062205000,-1.14,2.83,0.08172209,5
11,1743112285000,-0.34,2.41,0.23154591,5
11,1743162242000,2.49,6.82,-1.2258313,5
11,1743212291000,5.83,16.97,3.173541,5
11,1743262248000,0.61,12.18,3.405087,5
11,1743312297000,-7.08,15.36,-2.4516625,5
11,1743362254000,9.08,14.37,0.08172209,5
11,1743412364000,-0.89,5.13,-0.23154591,5
11,1743462199000,-4.21,13.33,-1.7978859,5
11,1743512370000,0.8,12.34,-2.2201166,5
11,1743572246000,1.99,4.06,-1.334794,5
11,1743622234000,1.27,2.11,-0.9125633,5
11,1743672313000,-0.27,6.93,-0.040861044,5
11,1743722209000,0.53,16.78,-3.486809,5
11,1743772288000,5.9,14.48,9.575105,5
11,1743822215000,1.73,15.51,-3.405087,5
11,1743872264000,-3.26,13.25,-2.4108016,5
11,1743922221000,-4.79,11.14,-2.9147544,5
11,1743972270000,-6.24,9.92,-0.6946377,5
11,1744022197000,-2.91,5.52,-0.29964766,5
11,1744072276000,0.8,2.49,-0.08172209,5
11,1744122203000,1.38,5.01,-1.7570249,5
11,1744172282000,2.07,10.27,1.607201,5
11,1744222209000,2.07,15.94,4.5628166,5
11,1744272288000,-4.94,12.37,2.6832085,5
11,1744322246000,-1.53,8.31,5.706926,5
11,1744372264000,-1.46,16.21,-2.1111538,5
11,1744422221000,-0.72,10.23,-3.214402,5
11,1744472270000,0.15,12.76,-4.140586,5
11,1744522197000,2.3,12.26,-0.88532263,5
11,1744572246000,3.11,4.67,-1.1849703,5
11,1744622203000,1.54,2.83,-1.1168685,5
11,1744672282000,0.23,5.83,-2.2201166,5
11,1744722209000,-1.61,15.83,2.3018389,5
11,1744772258000,-2.49,15.21,7.8589406,5
11,1744822215000,1.12,14.1,-1.2258313,5
11,1744872264000,-0.89,13.44,-2.2201166,5
11,1744922252000,-2.37,9.11,-2.5333846,5
11,1744972270000,-4.25,10.38,-1.9885708,5
11,1745022258000,-4.18,9.58,4.8216033,5
11,1745072307000,1.18,4.6,-0.8036005,5
11,1745122203000,-0.11,3.02,-1.0760075,5
11,1745172313000,1.04,7.25,2.0294318,5
11,1745222240000,1.31,11.07,6.238119,5
11,1745272288000,-8.88,14.37,7.9270425,5
11,1745322215000,-3.72,11.6,-0.29964766,5
11,1745372264000,-2.79,13.99,-2.1792557,5
11,1745422252000,-1.61,9.47,-1.920469,5
11,1745472270000,-0.38,14.75,-1.4573772,5
11,1745522197000,1.33,10.73,-0.10896278,5
11,1745572246000,3.6,3.41,-1.1441092,5
11,1745622203000,0.95,3.45,-1.4165162,5
11,1745672313000,-3.64,10.73,3.6774938,5
11,1745722362000,-0.65,13.67,3.8273177,5
11,1745772288000,1.57,12.83,1.1441092,5
11,1745822215000,1.23,13.87,0.3405087,5
11,1745872264000,-1.5,13.82,-2.1792557,5
11,1745922221000,-2.11,10.5,-2.9147544,5
11,1745972270000,-5.41,10.65,-1.6889231,5
11,1746022197000,-4.18,6.74,-0.95342433,5
11,1746072276000,1.95,4.02,3.214402,5
11,1746122203000,1.18,5.43,-2.1792557,5
11,1746172313000,2.91,7.21,1.5390993,5
11,1746222209000,1.23,15.64,3.5957718,5
11,1746272319000,-4.33,13.53,5.012288,5
11,1746322307000,-1.61,10.95,3.214402,5
11,1746372264000,1.12,13.82,-2.9147544,5
11,1746422252000,-2.26,9.53,-2.3699405,5
11,1746472270000,-2.03,14.79,-2.1383946,5
11,1746522197000,2.11,9.72,-2.7240696,5
11,1746572337000,2.45,3.11,-1.56634,5
11,1746622203000,0.99,1.84,-1.4573772,5
11,1746672282000,0.0,6.21,-0.84446156,5
11,1746722209000,0.61,17.35,-1.920469,5
11,1746772258000,3.26,15.13,5.012288,5
11,1746822276000,0.46,13.95,-1.1849703,5
11,1746872264000,-1.76,12.98,-0.6537767,5
11,1746922252000,-2.75,10.69,-2.3018389,5
11,1746972270000,-6.09,12.18,-1.879608,5
11,1747073222000,1.5,3.34,0.38136974,5
11,1747073222000,1.5,3.34,0.38136974,5
11,1747122172000,-0.04,3.21,-1.0760075,5
11,1747172282000,3.91,6.7,2.2609777,5
11,1747222209000,0.15,15.85,7.43671,5
11,1747272349000,-9.11,13.29,4.5219555,5
11,1747332255000,-2.3,10.84,-1.7297841,5
11,1747382213000,-1.73,14.98,-0.19068487,5
11,1747432231000,-1.04,12.68,-3.6774938,5
11,1747482219000,-0.15,13.59,-0.19068487,5
11,1747532268000,1.76,6.13,-0.38136974,5
11,1747582255000,2.22,2.56,-1.6480621,5
11,1747632274000,-0.11,3.6,-1.7978859,5
11,1747682231000,-0.04,10.42,-3.3642259,5
11,1747732249000,1.04,17.88,8.730643,5
11,1747782207000,-0.04,10.76,0.46309182,5
11,1747832255000,0.31,11.92,-2.1792557,5
11,1747882213000,-2.96,14.6,-3.0237172,5
11,1747932262000,-5.86,14.21,-4.3312707,5
11,1747982219000,-3.83,7.55,-0.95342433,5
11,1748032268000,2.45,3.68,3.2961242,5
11,1748082255000,0.69,3.57,-1.3756552,5
11,1748132243000,2.6,5.37,-0.14982383,5
11,1748182231000,2.49,11.96,5.7886477,5
11,1748232249000,-2.53,13.87,3.336985,5
11,1748282268000,-4.59,8.43,6.66035,5
11,1748332255000,-3.15,14.79,-1.9885708,5
11,1748382213000,-2.75,15.09,-4.440233,5
11,1748432262000,0.0,17.08,-3.5276701,5
11,1748482219000,0.93,9.23,0.08172209,5
11,1748532237000,3.45,1.92,-0.61291564,5
11,1748582255000,1.65,1.57,-2.1792557,5
11,1748632243000,0.23,5.86,-2.7921712,5
11,1748682201000,-1.57,16.36,3.5276701,5
11,1748732249000,2.91,15.51,1.9885708,5
11,1748782268000,1.04,13.91,-1.334794,5
11,1748832255000,-1.88,13.29,-2.2609777,5
11,1748882213000,-3.34,11.07,-2.7240696,5
11,1748932231000,-5.43,11.73,-2.1111538,5
11,1748982219000,-2.6,5.9,-0.84446156,5
11,1749032268000,0.65,3.26,0.53119355,5
11,1749082225000,3.87,5.71,0.313268,5
11,1749132243000,1.38,7.78,1.3075534,5
11,1749182201000,0.57,11.14,4.5219555,5
11,1749232280000,-8.24,15.51,7.504812,5
11,1749282207000,-0.65,11.54,-0.42223078,5
11,1749332255000,-1.95,11.88,-3.0645783,5
11,1749382213000,-1.46,11.18,-2.3699405,5
11,1749432231000,-0.57,16.21,-1.4165162,5
11,1749482219000,0.93,9.0,0.50395286,5
11,1749532268000,3.38,2.26,-1.4573772,5
11,1749582255000,1.04,2.91,-1.6889231,5
11,1749632274000,-2.3,12.03,4.2495484,5
11,1749682262000,-0.34,15.55,2.6014864,5
11,1749732310000,-0.46,12.53,2.152015,5
11,1749782237000,0.72,15.02,-0.5720546,5
11,1749832378000,-1.76,12.49,-3.3642259,5
11,1749882243000,-3.15,10.34,-2.8738933,5
11,1749932231000,-6.24,11.3,-1.9885708,5
11,1749982219000,-2.79,6.09,0.14982383,5
11,1750032268000,1.31,2.76,1.1441092,5
11,1750082225000,1.18,6.85,-0.6537767,5
11,1750132274000,3.87,9.66,1.1441092,5
11,1750182201000,2.26,14.48,3.1463003,5
11,1750232249000,-3.91,10.73,2.3699405,5
11,1750282451000,-0.27,13.21,-0.8036005,5
11,1750332500000,3.11,10.92,-1.1441092,5
11,1750382396000,-3.17,10.23,-1.7297841,5
11,1750432231000,-0.23,14.56,-2.7240696,5
11,1750432231000,-0.23,14.56,-2.7240696,5
11,1750532268000,1.33,3.26,-0.7627395,5
11,1750582286000,0.89,3.45,-0.61291564,5
11,1750582286000,0.89,3.45,-0.61291564,5
11,1750642406000,0.19,9.92,-1.6480621,5
11,1750692241000,-0.95,19.31,1.5390993,5
11,1750742290000,0.99,14.48,3.3778462,5
11,1750792277000,-1.38,14.94,-1.56634,5
11,1750842296000,-2.11,8.81,-2.2201166,5
11,1750892284000,-3.41,9.28,-1.9885708,5
11,1750942271000,-5.13,9.96,-1.4982382,5
11,1750992290000,-0.23,6.02,3.255263,5
11,1751042308000,1.46,5.86,-1.0760075,5
11,1751092265000,-0.15,5.33,-0.61291564,5
11,1751142314000,4.67,8.54,3.990762,5
11,1751192271000,-4.21,14.9,6.2789803,5
11,1751242320000,-5.18,10.95,6.469665,5
11,1751292277000,-3.06,13.57,-2.9147544,5
11,1751342265000,-0.72,10.69,-2.6832085,5
11,1751392284000,-1.08,10.95,-2.6423476,5
11,1751442271000,-0.08,12.37,-0.9125633,5
11,1751492412000,1.65,6.59,-1.0351465,5
11,1751542308000,1.18,3.76,-0.42223078,5
11,1751592265000,0.15,5.71,-2.982856,5
11,1751642284000,-2.26,14.29,4.903325,5
11,1751692699000,1.14,15.47,2.9147544,5
11,1751742290000,0.15,13.38,0.88532263,5
11,1751792277000,-0.34,14.41,-1.3075534,5
11,1751842296000,-1.33,9.89,-2.5606253,5
11,1751892375000,-3.36,9.85,-3.1463003,5
11,1751942271000,-5.05,9.89,-2.1111538,5
11,1751992259000,-1.5,5.37,0.27240697,5
11,1752042308000,1.04,6.4,1.4573772,5
11,1752102306000,0.08,6.59,-0.8036005,5
11,1752152232000,4.86,10.46,5.7886477,5
11,1752202373000,-6.4,14.37,4.7943625,5
11,1752262279000,-1.84,12.11,0.6946377,5
11,1752312236000,1.8,11.84,-0.10896278,5
11,1752362285000,-2.91,9.77,-1.7978859,5
11,1752412242000,0.04,13.59,-3.1463003,5
11,1752462260000,1.04,9.66,-1.56634,5
11,1752512218000,1.5,3.6,-0.9942854,5
11,1752562297000,1.31,2.87,-0.88532263,5
11,1752612224000,0.5,8.35,-3.336985,5
11,1752662303000,-1.76,18.62,7.014479,5
11,1752712199000,1.14,14.21,2.152015,5
11,1752712199000,1.14,14.21,2.152015,5
11,1752812144000,-1.27,11.65,-2.5333846,5
11,1752862224000,-3.02,9.66,-2.982856,5
11,1752922465000,-5.56,10.65,-2.6014864,5
11,1752972209000,-1.5,5.37,0.3405087,5
11,1753022258000,3.21,4.6,2.7921712,5
11,1753072215000,0.23,5.33,0.040861044,5
11,1753122295000,3.72,8.01,3.5957718,5
11,1753172252000,-6.36,14.82,10.147159,5
11,1753222270000,-5.79,10.0,0.88532263,5
11,1753272227000,-2.96,13.29,-1.0351465,5
11,1753322276000,-2.18,12.03,-2.0294318,5
11,1753372234000,-1.14,12.3,-4.3312707,5
11,1753422343000,0.04,14.18,-0.42223078,5
11,1753472209000,1.99,6.47,-0.29964766,5
11,1753522288000,2.18,2.37,-1.2666923,5
11,1753572246000,-0.34,4.86,-1.879608,5
11,1753622325000,-1.57,13.8,1.1168685,5
11,1753672404000,0.5,14.25,1.6889231,5
11,1753722270000,-0.27,13.48,0.3405087,5
11,1753772197000,-0.23,14.56,-1.2258313,5
11,1753822276000,-0.8,8.5,-2.2609777,5
11,1753872203000,-3.21,10.92,-2.7921712,5
11,1753922282000,-5.18,11.14,-2.0294318,5
11,1753972209000,-0.27,6.21,6.4015636,5
11,1754022258000,-0.08,3.79,-1.920469,5
11,1754072246000,-0.04,5.28,-0.88532263,5
11,1754122264000,3.72,10.57,4.5628166,5
11,1754172221000,-4.82,14.29,7.3549876,5
11,1754222270000,-6.05,9.66,2.3426998,5
11,1754272197000,-0.72,10.46,-0.9942854,5
11,1754322276000,-2.14,14.79,-0.23154591,5
11,1754372203000,-0.91,10.92,-4.2495484,5
11,1754422282000,-0.46,13.48,-2.070293,5
11,1754472209000,1.92,7.7,-0.88532263,5
11,1754522288000,2.22,4.02,-0.29964766,5
11,1754572246000,0.38,4.79,-0.7218784,5
11,1754622264000,0.53,10.5,-3.759216,5
11,1754672313000,-2.91,17.67,12.108489,5
11,1754722362000,2.03,13.91,0.50395286,5
11,1754772288000,0.15,15.28,-1.7570249,5
11,1754822337000,-1.61,10.53,-1.9477097,5
11,1754872264000,-3.6,10.76,-1.879608,5
11,1754922313000,-4.9,9.72,-1.334794,5
11,1754972209000,-2.49,5.05,-1.3075534,5
11,1755022258000,1.88,4.4,2.6014864,5
11,1755072215000,0.57,7.93,-1.4165162,5
11,1755122264000,5.22,7.08,1.607201,5
11,1755172282000,2.45,15.32,5.8567495,5
11,1755222270000,-5.82,11.69,2.152015,5
11,1755272288000,-0.27,14.63,0.19068487,5
11,1755322398000,-0.89,8.69,-2.3426998,5
11,1755372386000,-2.3,11.11,-2.6832085,5
11,1755422404000,0.38,14.02,-1.7297841,5
11,1755472423000,1.04,6.89,-0.42223078,5
11,1755522380000,2.15,2.26,-0.95342433,5
11,1755572398000,0.8,4.18,-0.84446156,5
11,1755622447000,-0.89,11.18,-1.4165162,5
11,1755672252000,-2.72,18.16,10.337844,5
11,1755722331000,1.42,13.67,-0.8036005,5
11,1755772227000,-0.15,16.17,-2.1383946,5
11,1755822337000,-0.8,9.23,-0.6537767,5
11,1755882243000,-2.91,8.08,-1.56634,5
11,1755932231000,-5.13,10.69,-1.1849703,5
11,1755982249000,0.11,7.44,5.134871,5
11,1756032207000,0.53,4.33,-1.0760075,5
11,1756082286000,-1.31,4.6,-0.7627395,5
11,1756132213000,2.49,8.69,3.0237172,5
11,1756182262000,-5.13,13.06,9.00305,5
11,1756232249000,-6.47,12.6,4.399372,5
11,1756282237000,-2.26,12.95,-1.2666923,5
11,1756332225000,-1.95,10.76,-1.0351465,5
11,1756382243000,-1.31,9.62,-1.525479,5
11,1756432201000,-0.99,14.21,-0.9942854,5
11,1756482249000,0.8,8.58,0.08172209,5
11,1756532207000,2.45,3.49,-0.9125633,5
11,1756582347000,0.46,4.29,-3.0645783,5
11,1756632243000,-0.42,9.92,-1.2666923,5
11,1756682262000,-2.45,17.39,9.193735,5
11,1756732219000,0.11,11.6,0.14982383,5
11,1756782268000,0.61,12.41,0.50395286,5
11,1756832225000,-1.31,12.57,-2.1111538,5
11,1756882243000,-3.06,12.11,-2.1792557,5
11,1756932201000,-5.37,11.69,-2.2201166,5
11,1756982249000,-2.22,6.28,-0.5720546,5
11,1757032237000,3.45,4.48,3.1054392,5
11,1757082255000,-0.72,4.94,-0.9125633,5
11,1757132243000,2.03,6.4,1.4573772,5
11,1757182231000,0.69,13.1,6.4424243,5
11,1757232249000,-8.5,14.6,7.1234417,5
11,1757282268000,0.99,5.67,4.9850473,5
11,1757332225000,-3.68,15.17,-2.4108016,5
11,1757382243000,-0.34,11.92,-3.255263,5
11,1757432201000,-0.84,14.44,-2.1383946,5
11,1757482249000,-0.27,10.88,0.27240697,5
11,1757532207000,1.57,5.18,-1.2258313,5
11,1757582286000,0.11,4.56,-1.525479,5
11,1757632213000,-0.46,7.08,-3.405087,5
11,1757682262000,-1.42,15.89,10.269742,5
11,1757732219000,1.65,11.96,-0.88532263,5
11,1757782298000,1.76,14.37,0.42223078,5
11,1757832378000,-1.38,13.67,-0.9942854,5
11,1757832378000,-1.38,13.67,-0.9942854,5
11,1757932201000,-4.56,12.76,-1.920469,5
11,1757982310000,-3.98,9.92,-1.56634,5
11,1757982310000,-3.98,9.92,-1.56634,5
11,1758042369000,2.3,3.72,4.099725,5
11,1758092235000,-0.34,4.18,-0.9125633,5
11,1758142406000,2.45,6.85,0.3405087,5
11,1758192271000,2.03,13.06,5.134871,5
11,1758242351000,-8.73,14.67,8.049625,5
11,1758292338000,-0.46,7.86,2.9556155,5
11,1758342265000,-3.21,15.75,0.38136974,5
11,1758392284000,-0.84,9.92,-3.255263,5
11,1758442302000,-0.08,13.76,-2.5333846,5
11,1758492320000,0.53,10.61,0.313268,5
11,1758492320000,0.53,10.61,0.313268,5
11,1758592143000,0.72,3.11,-3.486809,5
11,1758642284000,-0.27,7.4,-0.7627395,5
11,1758692393000,-1.23,15.05,-1.9477097,5
11,1758742259000,0.8,16.02,6.510526,5
11,1758792277000,-0.46,11.35,0.27240697,5
11,1758842601000,-0.91,13.14,-0.9942854,5
11,1758892284000,-2.14,11.35,-1.6889231,5
11,1758942271000,-4.52,12.26,-2.8330324,5
11,1758992259000,-3.3,8.62,-0.95342433,5
11,1759042430000,0.8,4.63,3.3778462,5
11,1759092265000,0.95,4.25,-0.040861044,5
11,1759142406000,-1.08,4.94,-0.29964766,5
11,1759192302000,3.49,9.62,6.3607025,5
11,1759242381000,-11.92,16.36,11.114203,5
11,1759292277000,-3.34,9.28,0.46309182,5
11,1759342326000,-3.36,14.56,1.4573772,5
11,1759392284000,-1.53,9.58,-1.8387469,5
11,1759442302000,-1.76,12.53,-0.5720546,5
11,1759492320000,0.08,13.06,-0.14982383,5
11,1759542277000,2.79,5.83,-0.46309182,5
11,1759592265000,2.79,1.73,-1.4982382,5
11,1759642284000,0.04,3.26,-0.9942854,5
11,1759692332000,-0.91,11.92,-2.8738933,5
11,1759742259000,-2.96,18.09,11.182305,5
11,1759792338000,0.76,12.64,0.27240697,5
11,1759842265000,-0.19,14.98,-0.84446156,5
11,1759892314000,-1.73,10.65,-2.1111538,5
11,1759942271000,-3.3,10.8,-2.1111538,5
11,1759992259000,-4.59,9.3,-1.3756552,5
11,1760042491000,-2.37,4.75,-0.8036005,5
11,1760092296000,1.88,3.17,1.4165162,5
11,1760142375000,0.57,6.74,-0.6537767,5
11,1760192302000,5.24,9.08,2.3699405,5
11,1760242320000,-1.69,17.01,7.205164,5
11,1760292308000,-9.43,9.11,6.4424243,5
11,1760342265000,-2.72,12.91,-0.84446156,5
11,1760392284000,-1.8,12.91,-2.6423476,5
11,1760442271000,0.61,13.29,-3.5957718,5
11,1760492412000,-0.3,12.03,0.10896278,5
11,1760542277000,2.22,5.22,-0.6537767,5
11,1760592387000,1.08,3.21,-2.3699405,5
11,1760642284000,0.11,5.13,-1.334794,5
11,1760692271000,-1.12,11.8,0.42223078,5
11,1760742259000,-1.84,18.73,8.580819,5
11,1760792308000,0.5,13.4,-1.6480621,5
11,1760842418000,-1.18,14.98,-0.7627395,5
11,1760892284000,-1.8,10.23,-1.6889231,5
11,1760942363000,-4.25,9.53,-3.405087,5
11,1760992259000,-3.95,8.73,-1.7570249,5
11,1761042277000,-1.69,4.9,-0.42223078,5
11,1761092296000,4.56,5.83,3.445948,5
11,1761142314000,-0.5,6.89,0.6946377,5
11,1761192454000,1.76,7.55,4.630918,5
11,1761242259000,-11.07,16.97,9.915613,5
11,1761292369000,-2.07,8.62,-0.08172209,5
11,1761342235000,-4.18,14.29,-0.08172209,5
11,1761392284000,-0.91,10.31,-1.4165162,5
11,1761442271000,-0.08,12.07,-2.070293,5
11,1761492259000,-0.34,11.5,0.3405087,5
11,1761542277000,2.07,5.83,-0.6537767,5
11,1761592265000,0.72,3.87,-2.3426998,5
11,1761642284000,-0.57,6.55,-0.7218784,5
11,1761692271000,-0.61,14.06,-2.3426998,5
11,1761742259000,-1.18,15.98,7.082581,5
11,1761792277000,0.42,11.07,0.10896278,5
11,1761842235000,-0.11,12.26,-0.19068487,5
11,1761892375000,-0.89,11.14,-1.607201,5
11,1761942271000,-5.9,15.09,-4.9850473,5
11,1761992320000,-4.63,8.73,-2.3699405,5
11,1762042277000,-0.38,3.15,0.42223078,5
11,1762092296000,2.03,3.91,1.56634,5
11,1762142284000,0.69,7.67,0.3405087,5
11,1762192271000,4.48,10.12,2.982856,5
11,1762242259000,-1.99,16.59,4.7126403,5
11,1762292308000,-5.48,9.11,6.6331096,5
11,1762342296000,-1.95,13.1,-0.0,5
11,1762392314000,-1.57,11.56,-3.8273177,5
11,1762442271000,0.5,13.95,-5.6252036,5
11,1762492259000,-0.42,12.57,-0.14982383,5
11,1762542277000,2.6,5.22,-0.6946377,5
11,1762592357000,0.57,3.17,-1.2666923,5
11,1762642284000,-0.04,5.52,-2.1111538,5
11,1762692271000,-1.53,15.21,2.6423476,5
11,1762742290000,1.23,14.94,3.336985,5
11,1762792277000,0.31,12.83,-0.10896278,5
11,1762842265000,-1.46,13.87,-1.7297841,5
11,1762892314000,-3.15,10.65,-3.2961242,5
11,1762942332000,-5.24,11.11,-2.7513103,5
11,1762992259000,-3.6,7.4,-1.607201,5
11,1763042277000,1.84,4.63,5.053149,5
11,1763092296000,0.53,4.33,-0.95342433,5
11,1763142253000,0.72,6.55,0.3405087,5
11,1763192302000,2.37,13.4,6.2789803,5
11,1763242259000,-8.5,14.86,7.8180795,5
11,1763292308000,-1.53,10.69,-0.53119355,5
11,1763342265000,-1.5,14.06,-0.7218784,5
11,1763392284000,-1.8,8.81,-2.7921712,5
11,1763442271000,-1.84,13.59,-2.1383946,5
11,1763492259000,0.46,12.15,-0.61291564,5
11,1763542430000,2.76,5.01,-0.8036005,5
11,1763592296000,1.95,3.15,-2.0294318,5
11,1763642284000,-0.3,6.21,-0.29964766,5
11,1763692424000,-0.61,12.87,-3.1054392,5
11,1763742320000,-3.49,16.74,12.912089,5
11,1763792369000,1.18,14.06,-0.84446156,5
11,1763852275000,-1.57,12.91,-1.1849703,5
11,1763902232000,-1.76,8.69,-1.4573772,5
11,1763952312000,-5.09,11.11,-2.3018389,5
11,1764002269000,-4.79,7.59,-2.6014864,5
11,1764052287000,-0.34,3.83,0.61291564,5
11,1764102244000,1.95,6.05,0.84446156,5
11,1764152263000,-0.27,8.16,0.46309182,5
11,1764202251000,2.96,9.89,3.173541,5
11,1764252269000,-2.14,13.91,3.990762,5
11,1764302257000,-5.41,12.11,7.7363577,5
11,1764302257000,-5.41,12.11,7.7363577,5
11,1764402293000,-1.18,9.7,-2.3018389,5
11,1764452251000,-1.5,12.76,-2.1383946,5
11,1764502391000,0.89,10.88,-0.5720546,5
11,1764552287000,1.14,4.75,-0.3405087,5
11,1764602306000,1.99,2.68,-1.2666923,5
11,1764652232000,0.15,6.09,-1.1849703,5
11,1764702312000,-0.76,13.67,-2.9147544,5
11,1764752299000,-1.92,17.54,12.639683,5
11,1764802318000,0.99,13.8,-2.1383946,5
11,1764852244000,-1.42,13.38,-1.56634,5
11,1764902263000,-2.87,10.12,-2.3426998,5
11,1764952312000,-5.28,11.3,-1.56634,5
11,1765002299000,-4.4,7.27,-1.3075534,5
11,1765052287000,1.27,3.83,4.099725,5
11,1765102306000,0.15,5.13,-0.38136974,5
11,1765152232000,-0.69,6.24,-0.040861044,5
11,1765202312000,3.49,12.11,6.891896,5
11,1765252269000,-13.21,15.79,11.958665,5
11,1765302318000,0.15,6.74,-1.607201,5
11,1765352244000,-3.72,15.02,-2.3699405,5
11,1765402293000,-1.99,11.84,-2.4516625,5
11,1765452251000,-1.53,14.41,-1.0351465,5
11,1765502330000,0.46,9.7,0.5720546,5
11,1765552287000,2.72,2.87,-0.9942854,5
11,1765602306000,2.03,2.45,-1.6889231,5
11,1765652232000,1.27,7.16,-4.099725,5
11,1765702312000,-5.48,18.5,13.375181,5
11,1765752238000,0.84,13.95,0.313268,5
11,1765802318000,0.0,13.29,-1.1441092,5
11,1765852244000,-2.37,12.79,-1.7978859,5
11,1765902293000,-3.17,11.45,-1.9477097,5
11,1765952251000,-5.13,11.92,-1.879608,5
11,1766002299000,-3.72,6.7,-1.8387469,5
11,1766052287000,-0.61,3.26,1.1849703,5
11,1766102244000,-0.04,2.96,0.5720546,5
11,1766152232000,1.8,7.89,-0.7627395,5
11,1766202312000,5.52,16.21,-0.0,5
11,1766252238000,2.07,14.52,3.5957718,5
11,1766302318000,-3.26,6.89,-3.336985,5
11,1766352244000,2.79,16.51,-3.568531,5
11,1766402293000,1.84,9.08,0.7627395,5
11,1766452251000,-3.72,9.66,-0.3405087,5
11,1766502330000,-1.53,11.35,-0.7627395,5
11,1766552257000,-0.65,5.98,-0.7627395,5
11,1766602275000,2.64,2.53,-3.3642259,5
11,1766652232000,0.38,7.08,-0.53119355,5
11,1766702251000,-0.89,13.8,0.6946377,5
11,1766752238000,0.5,16.36,-0.040861044,5
11,1766802318000,3.17,15.02,2.6014864,5
11,1766852244000,-3.06,15.36,-1.7978859,5
11,1766902324000,-3.41,9.15,-2.070293,5
11,1766952251000,-5.28,10.27,-0.6946377,5
11,1767002299000,-6.02,9.43,-0.8036005,5
11,1767052287000,2.15,5.37,2.3018389,5
11,1767102306000,1.69,5.9,-2.0294318,5
11,1767152263000,2.6,5.24,0.50395286,5
11,1767202312000,3.99,9.85,2.4516625,5
11,1767252238000,4.56,17.47,5.7886477,5
11,1767302318000,-2.3,8.47,0.6946377,5
11,1767352244000,2.56,15.64,-1.6889231,5
11,1767402293000,-0.3,7.08,-0.8036005,5
11,1767452312000,-3.6,12.45,-0.14982383,5
11,1767502299000,-1.12,13.1,-0.5720546,5
11,1767552257000,0.8,6.09,-1.6889231,5
11,1767602306000,1.69,2.79,-0.6946377,5
11,1767652232000,1.33,5.86,-0.3405087,5
11,1767702312000,0.11,15.13,-1.0351465,5
11,1767752238000,-0.53,14.86,9.466142,5
11,1767802318000,1.33,14.25,-0.040861044,5
11,1767852611000,-1.27,13.18,-1.7978859,5
11,1767902293000,-2.11,9.28,-1.4573772,5
11,1767952251000,-4.63,12.15,-0.6946377,5
11,1768002330000,-4.9,9.7,-2.3018389,5
11,1768052287000,-1.76,4.86,0.50395286,5
11,1768102306000,-0.61,3.34,1.2258313,5
11,1768152232000,1.08,6.74,-0.9942854,5
11,1768202342000,5.41,10.8,0.84446156,5
11,1768252238000,1.84,16.4,5.47538,5
11,1768302318000,-7.65,10.92,-0.46309182,5
11,1768352244000,5.9,16.63,-2.3426998,5
11,1768402293000,1.14,8.54,1.0351465,5
11,1768452251000,-3.68,8.66,-1.879608,5
11,1768502299000,-0.95,12.53,-1.0351465,5
11,1768552257000,0.27,7.44,-0.7627395,5
11,1768602275000,1.38,1.73,-1.2666923,5
11,1768652232000,2.18,3.6,-2.2609777,5
11,1768702281000,0.08,11.37,-0.95342433,5
11,1768752238000,0.5,19.08,0.50395286,5
11,1768802287000,-0.8,13.38,11.032481,5
11,1768852336000,-1.04,16.78,-3.214402,5
11,1768902263000,-2.11,9.23,-1.2666923,5
11,1768952251000,-3.36,7.93,-1.7978859,5
11,1769002330000,-7.16,10.5,-3.336985,5
11,1769052287000,-0.95,7.27,3.445948,5
11,1769102306000,2.98,6.78,-0.38136974,5
11,1769152232000,-2.79,4.14,-0.27240697,5
11,1769202312000,0.69,6.05,1.56634,5
11,1769252238000,-0.38,16.36,6.66035,5
11,1769302318000,-10.92,9.23,10.038197,5
11,1769352244000,-2.34,12.83,-2.4925237,5
11,1769402324000,-0.95,11.8,-2.3018389,5
11,1769472270000,-0.76,11.92,-0.3405087,5
11,1769522197000,-0.19,10.88,0.7218784,5
11,1769572337000,1.18,5.71,-1.6889231,5
11,1769632243000,-0.65,4.56,-0.9942854,5
11,1769682201000,-1.08,7.97,0.3405087,5
11,1769732249000,-1.5,14.71,-0.61291564,5
11,1769782207000,-1.27,13.44,5.2165933,5
11,1769832255000,0.19,15.32,-1.3756552,5
11,1769882213000,-1.14,11.99,-0.7627395,5
11,1769932231000,-2.11,8.5,-2.5333846,5
11,1769982219000,-5.09,11.45,-1.9477097,5
11,1770032268000,-3.53,7.31,-1.525479,5
11,1770082225000,0.5,4.29,1.2258313,5
11,1770132243000,1.65,7.12,0.313268,5
11,1770182170000,1.18,7.78,1.3756552,5
11,1770232280000,-0.65,12.15,2.8330324,5
11,1770232280000,-0.65,12.15,2.8330324,5
11,1770332317000,-1.33,8.54,-2.3699405,5
11,1770332317000,-1.33,8.54,-2.3699405,5
11,1770392284000,-1.57,13.38,-0.6537767,5
11,1770442271000,-0.57,9.85,-2.2201166,5
11,1770492259000,-0.42,13.29,-1.6889231,5
11,1770542277000,0.93,8.47,-0.42223078,5
11,1770592448000,2.07,4.14,-0.8036005,5
11,1770642253000,0.04,5.9,-0.8036005,5
11,1770692393000,-0.15,10.46,-1.7297841,5
11,1770742259000,-6.47,16.66,14.015338,5
11,1770792338000,1.8,12.83,0.23154591,5
11,1770842265000,-0.53,15.24,-1.1849703,5
11,1770892345000,-1.76,10.12,-1.7978859,5
11,1770942271000,-3.26,9.08,-2.4925237,5
11,1770992259000,-5.56,11.35,-2.1111538,5
11,1771042308000,-2.49,6.21,-0.9942854,5
11,1771092296000,1.69,4.67,3.2961242,5
11,1771142467000,-0.08,6.74,-0.5720546,5
11,1771192302000,2.53,8.47,3.1054392,5
11,1771242503000,-4.56,15.55,6.1700177,5
11,1771292369000,-5.05,10.57,3.5957718,5
11,1771342448000,-1.88,12.53,-3.1054392,5
11,1771392284000,-0.61,11.84,-0.88532263,5
11,1771442363000,0.0,10.31,-2.6423476,5
11,1771492259000,0.15,12.15,-1.3075534,5
11,1771542796000,2.22,6.63,-0.84446156,5
11,1771592326000,0.8,4.75,-0.53119355,5
11,1771642284000,0.04,6.36,-0.88532263,5
11,1771692271000,-0.65,12.15,-2.4108016,5
11,1771742259000,-3.72,16.28,12.762266,5
11,1771792277000,0.42,11.84,0.53119355,5
11,1771842265000,-0.19,14.9,0.23154591,5
11,1771892314000,-1.38,10.76,-2.1792557,5
11,1771942454000,-3.26,9.47,-2.3699405,5
11,1771992259000,-4.99,10.34,-2.3018389,5
11,1772042338000,-2.91,5.37,-1.7297841,5
11,1772092326000,0.46,5.52,4.2495484,5
11,1772142284000,0.42,8.35,-0.42223078,5
11,1772192271000,2.11,8.01,2.1792557,5
11,1772242259000,-0.61,12.49,4.5219555,5
11,1772292308000,-6.97,13.91,5.6252036,5
11,1772342265000,-0.95,11.37,-2.2609777,5
11,1772392436000,-1.76,12.53,-1.7978859,5
11,1772442271000,-1.5,9.38,-2.070293,5
11,1772492351000,-0.08,13.21,-3.3642259,5
11,1772542277000,0.53,9.53,-0.50395286,5
11,1772592296000,2.68,3.79,-1.6889231,5
11,1772642284000,0.11,4.48,-0.38136974,5
11,1772692271000,-0.8,8.77,-0.23154591,5
11,1772742229000,-3.17,17.5,3.255263,5
11,1772792308000,-1.5,12.53,6.782933,5
11,1772842418000,2.03,13.53,-0.84446156,5
11,1772892284000,-1.27,11.99,0.53119355,5
11,1772942302000,-2.22,9.62,-1.6889231,5
11,1772992259000,-4.63,11.22,-2.1111538,5
11,1773042277000,-5.33,9.3,-0.95342433,5
11,1773092296000,2.37,5.79,5.407278,5
11,1773142284000,-1.31,5.75,-0.50395286,5
11,1773192454000,-0.84,5.71,-0.14982383,5
11,1773242259000,2.68,8.62,6.4424243,5
11,1773292369000,-8.77,14.56,10.56939,5
11,1773342265000,-1.92,7.93,0.84446156,5
11,1773392284000,-3.79,14.18,-2.1792557,5
11,1773442271000,-1.69,12.26,-2.4925237,5
11,1773492259000,-0.91,14.33,-1.0760075,5
11,1773542277000,-0.5,10.53,1.0760075,5
11,1773592265000,2.11,4.29,-0.5720546,5
11,1773642375000,0.65,3.83,-1.4165162,5
11,1773692302000,0.19,7.27,-3.2961242,5
11,1773742351000,-3.79,14.79,11.34575,5
11,1773792277000,1.14,12.18,-0.10896278,5
11,1773842296000,0.11,12.49,1.6480621,5
11,1773892314000,-1.23,13.99,-1.2666923,5
11,1773942271000,-2.87,12.53,-3.1463003,5
11,1773992259000,-5.37,12.22,-1.56634,5
11,1774042277000,-3.6,6.63,-1.1441092,5
11,1774092326000,-1.38,4.06,0.040861044,5
11,1774142253000,0.57,4.82,1.1849703,5
11,1774192271000,1.61,8.16,-0.08172209,5
11,1774242259000,4.37,12.07,2.1792557,5
11,1774292308000,1.5,15.32,4.630918,5
11,1774342418000,-5.43,9.58,1.4165162,5
11,1774392284000,0.99,13.8,-1.334794,5
11,1774442302000,-1.38,8.77,-2.3699405,5
11,1774492259000,-2.26,13.76,-2.7513103,5
11,1774542277000,0.42,11.45,-2.1383946,5
11,1774592296000,1.33,4.25,-1.1849703,5
11,1774642284000,0.61,3.38,-0.42223078,5
11,1774692424000,-0.08,7.78,-1.1441092,5
11,1774742229000,0.04,17.12,1.879608,5
11,1774792400000,1.65,12.87,6.66035,5
11,1774842265000,0.15,13.4,-0.88532263,5
11,1774892284000,-1.99,13.29,-0.6946377,5
11,1774942271000,-2.34,9.43,-1.4982382,5
11,1774992259000,-5.28,11.73,-2.6832085,5
11,1775042277000,-4.18,8.62,-1.4982382,5
11,1775092296000,1.14,5.24,6.469665,5
11,1775142375000,-0.46,4.86,-1.0351465,5
11,1775192271000,0.19,5.83,-0.27240697,5
11,1775242381000,3.6,11.3,5.7477865,5
11,1775292277000,-10.0,16.47,10.337844,5
11,1775342265000,-1.73,8.89,-0.6537767,5
11,1775392284000,-1.65,14.33,-2.1111538,5
11,1775442302000,-1.04,10.0,-1.525479,5
11,1775492442000,-0.42,12.07,-2.4516625,5
11,1775542277000,-0.04,10.38,0.040861044,5
11,1775592387000,1.57,5.37,-0.6537767,5
11,1775642284000,1.14,3.91,-0.9125633,5
11,1775692332000,-0.04,6.97,-1.525479,5
11,1775742259000,-2.72,16.09,4.944186,5
11,1775792277000,-0.04,13.53,4.903325,5
11,1775842265000,0.11,13.06,0.23154591,5
11,1775892253000,-0.91,13.06,-0.42223078,5
11,1776002147000,-5.24,11.3,-3.173541,5
11,1776002147000,-5.24,11.3,-3.173541,5
11,1776052226000,-3.49,7.35,-2.7513103,5
11,1776102306000,0.46,4.86,4.2086873,5
11,1776152232000,1.27,6.97,-0.50395286,5
11,1776202373000,0.89,6.89,0.3405087,5
11,1776262279000,1.46,13.57,4.2495484,5
11,1776312205000,-7.5,12.83,5.47538,5
11,1776362285000,-1.92,10.57,1.1849703,5
11,1776412273000,-1.57,12.76,-2.4516625,5
11,1776462260000,-0.72,11.37,-2.7921712,5
11,1776512218000,-0.11,14.25,-1.2258313,5
11,1776562297000,2.18,7.4,-0.6946377,5
11,1776612224000,1.5,3.41,-1.4573772,5
11,1776662273000,-0.11,4.37,-1.56634,5
11,1776712199000,-0.61,9.43,-0.38136974,5
11,1776762279000,-0.76,17.35,-1.879608,5
11,1776812236000,-1.88,14.79,7.8589406,5
11,1776862254000,-0.57,15.4,-1.8387469,5
11,1776912242000,-1.8,10.19,-0.95342433,5
11,1776962260000,-2.98,9.23,-1.6480621,5
11,1777012248000,-5.52,10.73,-1.525479,5
11,1777062236000,-2.87,6.21,-1.0351465,5
11,1777112315000,2.83,5.41,3.2961242,5
11,1777162273000,-0.27,6.09,0.313268,5
11,1777212230000,0.04,6.66,1.1849703,5
11,1777262309000,-4.21,13.29,10.501288,5
11,1777312205000,-7.04,12.34,3.486809,5
11,1777362285000,-1.73,8.08,-1.7570249,5
11,1777412242000,-3.17,14.29,-0.88532263,5
11,1777462260000,-0.84,10.42,-1.8387469,5
11,1777512248000,-0.3,13.57,-1.7570249,5
11,1777562266000,0.34,8.16,0.27240697,5
11,1777612254000,1.92,3.3,-1.1849703,5
11,1777662334000,0.04,4.6,-0.84446156,5
11,1777712230000,-0.53,11.18,-2.070293,5
11,1777762309000,-1.92,17.47,10.460427,5
11,1777812205000,0.04,12.57,-0.23154591,5
11,1777862254000,-0.99,14.25,2.0294318,5
11,1777912212000,-0.95,11.07,-1.879608,5
11,1777962260000,-2.11,9.58,-2.4925237,5
11,1778012248000,-5.37,11.45,-4.2086873,5
11,1778062266000,-1.92,6.09,-1.3756552,5
11,1778112254000,-0.61,4.06,0.7218784,5
11,1778162303000,1.92,7.16,1.4982382,5
11,1778212199000,1.31,7.31,1.6889231,5
11,1778262309000,-0.34,12.49,5.829509,5
11,1778312205000,-8.2,13.82,5.706926,5
11,1778362285000,0.84,8.24,0.7218784,5
11,1778412273000,-1.42,16.04,1.1441092,5
11,1778462260000,-0.3,9.19,-3.173541,5
11,1778512248000,1.18,12.57,-2.7240696,5
11,1778562236000,0.19,12.57,0.42223078,5
11,1778612285000,1.65,5.48,0.08172209,5
11,1778662303000,0.89,3.64,-2.1383946,5
11,1778712230000,-1.18,8.01,-1.1441092,5
11,1778762340000,-3.49,14.71,8.771504,5
11,1778812205000,0.11,11.6,0.6946377,5
11,1778862254000,0.69,15.32,-0.8036005,5
11,1778912273000,-1.53,12.34,-0.7218784,5
11,1778962352000,-2.14,8.96,-1.7978859,5
11,1779012279000,-4.79,12.53,-1.334794,5
11,1779062266000,-4.63,9.28,-1.4982382,5
11,1779112224000,2.26,4.75,5.6660647,5
11,1779162303000,0.65,5.18,-0.7218784,5
11,1779212230000,-0.95,5.09,-0.19068487,5
11,1779262309000,5.28,9.7,7.43671,5
11,1779312236000,-11.75,16.7,8.390134,5
11,1779362315000,-2.87,11.6,-2.7513103,5
11,1779412242000,-1.14,11.03,-0.6946377,5
11,1779462260000,-1.53,9.66,-1.4573772,5
11,1779512248000,0.23,15.02,-1.525479,5
11,1779562266000,1.5,10.0,-0.50395286,5
11,1779612254000,1.54,5.09,-1.56634,5
11,1779662303000,0.76,4.37,-0.88532263,5
11,1779723308000,-0.53,9.19,-2.4108016,5
11,1779772197000,-3.36,15.43,12.830367,5
11,1779822276000,0.76,11.96,0.46309182,5
11,1779872234000,-0.46,15.6,-1.879608,5
11,1779922282000,-2.41,11.45,-2.070293,5
11,1779972240000,-3.76,10.0,-2.1792557,5
11,1780022258000,-5.24,9.72,-2.3426998,5
11,1780072246000,-2.45,5.67,-0.61291564,5
11,1780122264000,1.65,5.43,2.0294318,5
11,1780172221000,0.19,6.97,-1.1849703,5
11,1780222270000,2.98,7.78,2.152015,5
11,1780272349000,0.19,14.1,4.903325,5
11,1780322276000,-6.02,11.99,4.1814466,5
11,1780372234000,-0.15,12.41,0.10896278,5
11,1780422282000,-0.15,12.34,-1.3075534,5
11,1780472209000,-2.11,8.62,-2.4925237,5
11,1780522258000,-0.3,12.76,-2.2609777,5
11,1780572246000,1.27,10.5,-1.2258313,5
11,1780622295000,2.11,4.56,-1.1168685,5
11,1780672221000,0.42,5.33,-3.3642259,5
11,1780722270000,-1.57,10.23,7.3958488,5
11,1780772197000,-0.53,13.48,3.486809,5
11,1780822276000,-0.34,13.06,1.4982382,5
11,1780872234000,-1.57,15.43,0.7218784,5
11,1780922313000,-1.99,11.54,-1.8387469,5
11,1780972209000,-2.34,7.89,-2.0294318,5
11,1781022288000,-4.67,10.42,-1.4165162,5
11,1781072368000,-5.52,11.37,5.7886477,5
11,1781122264000,1.27,5.48,-0.8036005,5
11,1781172282000,-0.53,3.68,-0.88532263,5
11,1781222270000,0.34,6.05,1.7297841,5
11,1781272258000,0.61,8.81,5.407278,5
11,1781322276000,-8.2,14.71,8.308413,5
11,1781372203000,-1.88,9.38,2.3426998,5
11,1781422282000,-2.91,14.37,-0.29964766,5
11,1781472209000,-1.61,10.27,-1.920469,5
11,1781522288000,-1.8,10.95,-1.4573772,5
11,1781572215000,0.34,12.45,-1.4165162,5
11,1781622264000,0.61,6.89,-0.84446156,5
11,1781672221000,1.14,4.33,-0.84446156,5
11,1781722301000,-2.18,7.93,2.3426998,5
11,1781772197000,-0.8,11.03,4.0588636,5
11,1781772197000,-0.8,11.03,4.0588636,5
11,1781872142000,-1.23,12.22,2.3018389,5
11,1781922221000,-2.03,15.05,0.53119355,5
11,1781972392000,-1.46,9.28,-2.1111538,5
11,1782022197000,-3.57,9.3,-3.1054392,5
11,1782072276000,-6.4,12.26,-2.6832085,5
11,1782122234000,-3.57,6.82,0.313268,5
11,1782172313000,2.34,5.6,3.1054392,5
11,1782222209000,-0.8,5.01,-0.88532263,5
11,1782272258000,2.87,6.44,3.1463003,5
11,1782322215000,-0.99,13.4,7.014479,5
11,1782372295000,-6.55,12.91,4.7943625,5
11,1782422221000,0.08,6.82,2.0294318,5
11,1782472270000,-2.6,15.47,-0.27240697,5
11,1782522258000,-1.65,13.1,-4.1814466,5
11,1782572276000,0.72,14.56,-1.879608,5
11,1782622264000,1.61,8.43,-0.23154591,5
11,1782672313000,3.21,2.34,-1.4982382,5
11,1782722240000,0.34,3.26,-1.3075534,5
11,1782772258000,-0.15,8.85,-2.5333846,5
11,1782822246000,-4.63,18.89,12.108489,5
11,1782872234000,0.27,11.99,0.14982383,5
11,1782922252000,0.04,15.17,0.7627395,5
11,1782972270000,-1.38,12.79,-0.95342433,5
11,1783022197000,-1.92,7.67,-1.8387469,5
11,1783072276000,-4.06,10.42,-2.5606253,5
11,1783122203000,-4.82,10.15,-1.7570249,5
11,1783172313000,1.8,7.35,4.5219555,5
11,1783222209000,-0.61,4.48,-1.1849703,5
11,1783272288000,-0.69,5.63,0.5720546,5
11,1783322215000,-0.89,7.93,5.47538,5
11,1783372264000,-3.76,10.12,6.2789803,5
11,1783422221000,-5.79,14.79,6.510526,5
11,1783472270000,-2.11,10.5,2.3699405,5
11,1783522197000,-2.26,11.8,-3.568531,5
11,1783572276000,-0.69,8.05,-1.1168685,5
11,1783622264000,-1.08,13.4,-1.920469,5
11,1783672282000,1.04,9.72,-0.7218784,5
11,1783722209000,1.92,5.28,-1.525479,5
11,1783772288000,-2.07,6.66,6.1700177,5
11,1783822215000,0.19,9.04,1.4982382,5
11,1783872234000,-1.14,11.84,3.6774938,5
11,1783922252000,-0.38,12.26,1.4982382,5
11,1783972270000,-0.3,14.14,2.0294318,5
11,1784022197000,-1.57,13.4,-1.2666923,5
11,1784072276000,-1.99,8.28,-2.5333846,5
11,1784122264000,-4.29,9.51,-3.1054392,5
11,1784172313000,-5.75,10.12,-1.3075534,5
11,1784222209000,0.08,6.89,6.1291566,5
11,1784272258000,0.11,5.01,-1.2666923,5
11,1784322215000,0.15,7.21,0.95342433,5
11,1784372264000,1.46,8.35,4.099725,5
11,1784422252000,-4.33,13.21,7.1234417,5
11,1784472270000,-4.21,12.18,3.5957718,5
11,1784522227000,-0.57,10.95,0.27240697,5
11,1784572276000,-1.5,14.18,-0.7218784,5
11,1784622234000,-1.31,6.59,-3.336985,5
11,1784672282000,-1.04,12.11,-2.3018389,5
11,1784722209000,0.5,12.91,-1.0760075,5
11,1784772288000,1.12,6.32,-0.6537767,5
11,1784822215000,1.69,4.63,4.903325,5
11,1784872234000,0.08,9.51,1.7978859,5
11,1784922221000,-1.8,11.37,4.0588636,5
11,1784972270000,0.0,11.99,0.8036005,5
11,1785022197000,-1.08,13.02,2.7921712,5
11,1785072276000,-1.61,13.53,0.7627395,5
11,1785122203000,-1.76,9.62,-1.8387469,5
11,1785172313000,-2.75,9.3,-3.445948,5
11,1785222209000,-4.79,10.31,-3.9499009,5
11,1785272258000,-2.34,7.7,2.3699405,5
11,1785322276000,2.15,7.12,3.0237172,5
11,1785372295000,-0.69,5.22,-0.53119355,5
11,1785422221000,1.42,7.27,1.56634,5
11,1785472270000,-0.91,11.65,6.891896,5
11,1785522197000,-7.59,13.99,4.7943625,5
11,1785572276000,-0.19,7.82,1.0760075,5
11,1785622234000,-2.3,16.09,3.214402,5
11,1785672282000,-0.15,8.69,-2.7513103,5
11,1785722209000,0.61,9.92,-1.1441092,5
11,1785772258000,0.27,12.6,0.3405087,5
11,1785822215000,2.11,8.05,-0.19068487,5
11,1785872234000,-0.46,4.86,-1.4573772,5
11,1785922252000,-3.11,9.15,1.7978859,5
11,1785972270000,-1.5,10.23,1.8387469,5
11,1786022197000,-0.34,10.8,3.990762,5
11,1786072276000,0.11,11.92,0.50395286,5
11,1786122203000,-0.11,14.29,2.5333846,5
11,1786172313000,-0.95,13.67,0.6537767,5
11,1786222240000,-0.38,8.47,-1.0760075,5
11,1786272258000,-1.69,8.89,-4.5219555,5
11,1786322246000,-4.82,11.14,-4.7126403,5
11,1786372264000,-3.06,8.08,-0.5720546,5
11,1786422221000,2.34,7.5,7.5865335,5
11,1786472270000,-0.53,7.5,-0.61291564,5
11,1786522197000,0.89,7.25,2.4516625,5
11,1786572276000,-2.3,11.37,5.09401,5
11,1786622234000,-5.37,10.69,0.61291564,5
11,1786672282000,-3.45,11.65,-1.2666923,5
11,1786722240000,-2.22,14.71,2.4108016,5
11,1786772258000,-1.23,8.43,1.5390993,5
11,1786822215000,0.61,9.11,-1.9477097,5
11,1786872234000,0.31,10.73,0.040861044,5
11,1786922282000,2.76,10.95,0.84446156,5
11,1786972392000,0.8,10.15,1.334794,5
11,1787022227000,-1.57,8.69,1.4165162,5
11,1787072368000,-2.56,8.58,1.879608,5
11,1867222270000,5.48,8.43,9.724928,5
11,1867272288000,5.71,10.19,1.4165162,5
11,1867322246000,8.85,10.27,2.6832085,5
11,1867372295000,7.86,12.26,0.50395286,5
11,1867422252000,5.67,9.23,-1.334794,5
11,1867472301000,1.99,8.35,-2.9147544,5
11,1867522349000,2.26,11.6,-1.525479,5
11,1867572276000,0.95,8.47,-1.920469,5
11,1867622234000,1.69,5.63,-1.1168685,5
11,1867672282000,7.86,3.87,1.3075534,5
11,1867722240000,5.56,7.12,2.8738933,5
11,1867772319000,5.71,7.74,9.234595,5
11,1867822215000,2.41,13.48,4.7535014,5
11,1867872264000,5.83,9.62,1.0351465,5
11,1867922221000,6.82,10.23,-1.6889231,5
11,1867972240000,4.56,7.46,-3.759216,5
11,1868022227000,7.46,9.43,-1.1168685,5
11,1868072276000,6.47,6.97,-0.08172209,5
11,1868122203000,3.41,4.18,1.4573772,5
11,1868122203000,3.41,4.18,1.4573772,5
11,1868222179000,5.67,7.93,2.5606253,5
11,1868272258000,7.89,10.23,2.1792557,5
11,1868272258000,7.89,10.23,2.1792557,5
11,1868342418000,7.74,10.15,3.8681788,5
11,1868392680000,7.12,9.51,-1.879608,5
11,1868442210000,3.83,7.55,-2.3699405,5
11,1868492259000,2.98,10.38,-1.3075534,5
11,1868552318000,2.6,8.66,-1.3756552,5
11,1868602336000,3.45,5.52,0.5720546,5
11,1868652293000,6.89,4.1,1.0760075,5
11,1868702281000,3.34,5.75,1.1849703,5
11,1868752299000,5.75,7.5,8.240311,5
11,1868802287000,3.95,14.98,9.084772,5
11,1868852306000,3.38,5.9,1.334794,5
11,1868902263000,8.01,11.73,1.7978859,5
11,1868952312000,4.29,8.81,-3.718355,5
11,1869002269000,5.63,9.28,-1.879608,5
11,1869052318000,7.21,9.04,0.040861044,5
11,1869102275000,6.13,4.79,-1.2666923,5
11,1869152293000,3.6,4.14,-0.46309182,5
11,1869202281000,3.45,8.39,8.921328,5
11,1869252299000,7.21,10.04,1.334794,5
11,1869302287000,7.5,9.04,1.607201,5
11,1869352306000,8.05,10.5,2.3426998,5
11,1869402263000,7.97,9.92,-1.9885708,5
11,1869452281000,4.06,7.78,-2.0294318,5
11,1869502269000,3.11,11.84,-2.9556155,5
11,1869552287000,3.06,9.19,-1.8387469,5
11,1869602275000,2.41,5.13,-0.9125633,5
11,1869652293000,3.02,3.06,0.313268,5
11,1869702281000,6.44,5.05,2.3018389,5
11,1869752299000,5.71,8.28,6.2789803,5
11,1869802287000,2.18,13.67,11.836082,5
11,1869852275000,2.03,7.44,1.5390993,5
11,1869902293000,6.44,11.22,0.88532263,5
11,1869952312000,6.02,9.34,-2.9556155,5
11,1870002269000,8.77,10.46,-1.6480621,5
11,1870052287000,7.89,7.5,-0.10896278,5
11,1870102275000,3.49,3.38,-0.9942854,5
11,1870152293000,1.88,3.53,-0.7218784,5
11,1870202281000,4.99,6.7,0.53119355,5
11,1870252330000,10.15,13.1,11.985906,5
11,1870302287000,7.5,9.47,-0.38136974,5
11,1870352306000,7.63,9.81,0.5720546,5
11,1870402263000,7.35,9.38,-2.5606253,5
11,1870452281000,4.52,9.04,-2.070293,5
11,1870502269000,4.25,10.95,-2.8738933,5
11,1870552287000,2.98,6.66,-2.2609777,5
11,1870602275000,1.92,4.14,-1.8387469,5
11,1870652293000,3.26,4.79,-1.1168685,5
11,1870702281000,7.97,7.25,5.366417,5
11,1870752269000,4.4,8.54,6.1291566,5
11,1870802287000,2.87,13.18,7.6954966,5
11,1870852275000,5.18,11.37,0.61291564,5
11,1870902263000,8.39,10.19,0.3405087,5
11,1870952312000,2.87,6.32,-3.5276701,5
11,1871002269000,7.44,9.23,-2.5333846,5
11,1871052318000,8.35,8.58,-0.42223078,5
11,1871102275000,4.94,3.95,-1.0351465,5
11,1871152324000,3.34,3.3,-0.0,5
11,1871202312000,4.52,6.02,0.6946377,5
11,1871252269000,6.63,11.03,9.384419,5
11,1871302287000,9.08,9.34,-0.040861044,5
11,1871352275000,10.23,10.46,0.95342433,5
11,1871402263000,7.25,10.53,-1.3756552,5
11,1871452281000,3.34,7.86,-2.3426998,5
11,1871502269000,3.38,10.42,-1.4165162,5
11,1871552287000,2.87,7.25,-2.4516625,5
11,1871602275000,2.72,4.75,-1.1441092,5
11,1871652293000,6.85,4.94,1.7978859,5
11,1871702281000,4.82,6.47,1.9477097,5
11,1871752269000,4.52,8.16,9.234595,5
11,1871802287000,1.54,14.21,6.2789803,5
11,1871852275000,3.17,10.31,-0.7627395,5
11,1871902263000,9.04,12.18,0.84446156,5
11,1871952312000,4.79,8.24,-2.7240696,5
11,1872002269000,7.67,8.62,-3.255263,5
11,1872052318000,6.51,6.02,-0.9942854,5
11,1872102275000,3.95,3.6,-0.7627395,5
11,1872152263000,3.95,4.29,0.040861044,5
11,1872202281000,6.02,6.93,0.61291564,5
11,1872252269000,7.7,12.53,11.413852,5
11,1872302287000,9.38,9.11,-1.3756552,5
11,1872352275000,9.38,10.34,1.4165162,5
11,1872402293000,6.28,9.43,-1.7297841,5
11,1872452312000,4.02,8.43,-1.6480621,5
11,1872502330000,3.87,11.22,-1.4573772,5
11,1872552348000,2.96,7.55,-1.3075534,5
11,1872602275000,4.06,3.11,1.1168685,5
11,1872652293000,3.3,3.06,0.61291564,5
11,1872702281000,5.48,5.67,4.2904096,5
11,1872752269000,6.59,11.69,9.765789,5
11,1872802257000,0.95,11.6,2.3426998,5
11,1872852275000,4.37,8.39,3.336985,5
11,1872902263000,7.89,10.53,-0.6946377,5
11,1872952312000,8.08,10.12,-4.2495484,5
11,1873002269000,9.28,10.27,-0.88532263,5
11,1873052318000,6.17,5.13,-0.8036005,5
11,1873102275000,3.6,2.53,-0.88532263,5
11,1873152293000,1.61,6.59,9.043911,5
11,1873202312000,7.16,9.0,1.8387469,5
11,1873272319000,7.67,9.96,3.214402,5
11,1873322246000,9.89,10.12,-0.50395286,5
11,1873372356000,6.24,9.34,-2.7240696,5
11,1873372356000,6.24,9.34,-2.7240696,5
11,1873482249000,3.79,9.04,-2.1383946,5
11,1873532329000,3.57,5.71,2.8738933,5
11,1873532329000,3.57,5.71,2.8738933,5
11,1873592265000,2.64,2.41,-0.27240697,5
11,1873643687000,4.75,4.25,2.7240696,5
11,1873692393000,6.21,7.59,8.076866,5
11,1873743571000,4.79,13.59,7.8180795,5
11,1873792277000,2.22,7.5,3.1054392,5
11,1873843486000,9.51,11.92,2.070293,5
11,1873892314000,5.86,8.05,-3.7864566,5
11,1873942241000,7.89,9.38,-2.6014864,5
11,1873992259000,9.23,7.93,-0.53119355,5
11,1874042247000,4.06,3.57,-1.7297841,5
11,1874093608000,2.26,3.45,-0.88532263,5
11,1874142253000,5.71,9.19,10.61025,5
11,1874193553000,7.01,7.59,0.50395286,5
11,1874242198000,9.15,10.65,3.5276701,5
11,1874292247000,11.65,9.34,0.10896278,5
11,1874343730000,7.97,9.38,-2.1111538,5
11,1874392253000,4.48,9.72,-1.9477097,5
11,1874443645000,3.83,12.22,-2.1383946,5
11,1874492229000,1.73,7.27,-2.1111538,5
11,1874543529000,2.03,3.79,-0.42223078,5
11,1874592235000,4.37,3.11,0.14982383,5
11,1874642253000,5.41,6.51,3.5276701,5
11,1874693706000,4.44,7.86,9.656827,5
11,1874742198000,2.76,13.67,5.7477865,5
11,1874793620000,2.83,8.81,2.3426998,5
11,1874842204000,9.34,11.88,2.152015,5
11,1874893474000,7.5,10.04,-4.140586,5
11,1874942241000,9.28,10.46,-1.3756552,5
11,1874992259000,7.59,6.82,-0.3405087,5
11,1875043742000,2.83,2.91,-1.1849703,5
11,1875092235000,1.99,3.21,-0.14982383,5
11,1875143687000,6.63,8.81,3.445948,5
11,1875192271000,6.97,9.96,2.7649305,5
11,1875243938000,8.73,8.43,0.50395286,5
11,1875292216000,8.62,8.77,1.0760075,5
11,1875343608000,9.15,10.8,-2.3699405,5
11,1875392223000,5.63,8.24,-2.8738933,5
11,1875443614000,4.06,9.53,-2.1111538,5
11,1875492198000,3.38,7.21,-1.4982382,5
11,1875602122000,6.51,3.76,4.903325,5
11,1875602122000,6.51,3.76,4.903325,5
11,1875652232000,3.6,6.82,4.2904096,5
11,1875702647000,3.83,5.94,5.8976107,5
11,1875752269000,7.25,12.53,5.938472,5
11,1875802348000,2.56,8.77,4.4810944,5
11,1875862254000,9.28,9.34,0.50395286,5
11,1875912242000,6.93,8.43,-1.7978859,5
11,1875962260000,9.47,8.92,-1.334794,5
11,1876012248000,7.55,6.21,-1.3756552,5
11,1876062297000,3.53,3.38,-1.879608,5
11,1876112254000,-0.46,7.93,9.275456,5
11,1876162303000,7.06,8.2,-0.10896278,5
11,1876212230000,8.5,7.16,4.140586,5
11,1876262309000,8.39,8.54,-0.27240697,5
11,1876312205000,7.78,8.92,2.9556155,5
11,1876362315000,10.19,10.53,-2.6014864,5
11,1876412273000,5.56,8.58,-3.5276701,5
11,1876462260000,4.79,10.65,-1.7978859,5
11,1876512248000,3.41,9.47,-1.7297841,5
11,1876562297000,2.3,5.01,-1.1441092,5
11,1876612254000,6.05,3.45,1.6480621,5
11,1876662303000,4.63,4.48,4.372132,5
11,1876712230000,4.86,7.46,3.8681788,5
11,1876762279000,6.85,8.73,2.7649305,5
11,1876812236000,5.56,10.53,4.5628166,5
11,1876862285000,6.74,11.14,1.4165162,5
11,1876912212000,7.12,10.69,-2.5333846,5
11,1876962291000,5.9,8.58,-3.3642259,5
11,1877012218000,9.15,8.39,-2.6832085,5
11,1877062266000,7.74,4.99,0.19068487,5
11,1877112254000,2.6,1.08,4.2904096,5
11,1877162334000,5.33,6.55,0.6946377,5
11,1877212230000,4.48,9.89,2.5606253,5
11,1877262279000,7.97,8.54,2.6832085,5
11,1877312236000,9.15,6.78,0.6946377,5
11,1877362315000,10.53,9.81,-0.53119355,5
11,1877412242000,8.69,11.14,-3.173541,5
11,1877462260000,3.49,7.55,-2.9147544,5
11,1877512218000,2.34,10.31,-1.4165162,5
11,1877562297000,2.76,8.66,-1.2666923,5
11,1877612254000,7.25,3.21,1.2258313,5
11,1877662303000,5.9,3.49,2.8738933,5
11,1877712230000,4.02,7.35,2.6423476,5
11,1877762309000,4.9,5.9,3.7864566,5
11,1877812236000,7.89,7.63,2.4925237,5
11,1877862315000,6.36,11.41,3.5276701,5
11,1877912212000,6.13,12.22,2.8738933,5
11,1877962291000,7.21,9.08,-1.9477097,5
11,1878012248000,5.79,7.97,-4.5628166,5
11,1878062297000,8.47,7.46,-2.9556155,5
11,1878112254000,7.55,6.17,-1.2666923,5
11,1878162334000,2.45,3.45,3.718355,5
11,1878212199000,4.48,7.06,1.0760075,5
11,1878262309000,6.02,7.89,1.6889231,5
11,1878312236000,8.39,7.4,2.2609777,5
11,1878362315000,7.89,8.12,-0.08172209,5
11,1878412242000,9.0,9.28,0.5720546,5
11,1878462291000,8.39,10.27,-1.6889231,5
11,1878512218000,4.21,7.7,-2.6832085,5
11,1878562266000,4.1,10.5,-1.607201,5
11,1878612254000,3.99,10.31,-0.14982383,5
11,1878662303000,7.44,4.02,0.88532263,5
11,1878712260000,4.82,1.57,0.88532263,5
11,1878762309000,4.44,6.47,2.2609777,5
11,1878812327000,4.21,6.66,3.5957718,5
11,1878862315000,5.9,6.7,3.7864566,5
11,1878912242000,7.82,11.5,4.7126403,5
11,1878962291000,4.44,7.97,3.990762,5
11,1879012248000,9.04,12.3,1.6889231,5
11,1879062297000,3.53,8.47,-4.5628166,5
11,1879112254000,5.86,7.7,-2.5333846,5
11,1879162303000,8.54,7.82,0.61291564,5
11,1879212230000,6.63,3.83,2.2609777,5
11,1879262309000,3.83,5.18,0.6537767,5
11,1879312205000,4.25,7.59,2.070293,5
11,1879362285000,6.97,7.74,3.3778462,5
11,1879412212000,7.5,7.5,1.1168685,5
11,1879462260000,7.25,8.12,0.88532263,5
11,1879512309000,10.27,10.8,-0.14982383,5
11,1879562266000,7.25,9.77,-2.9556155,5
11,1879612224000,3.41,7.08,-2.1792557,5
11,1879662303000,4.02,10.57,-1.3756552,5
11,1879712199000,4.52,9.53,1.4573772,5
11,1879762279000,5.71,2.53,-0.10896278,5
11,1879812205000,4.52,3.99,1.3756552,5
11,1879862315000,4.44,7.4,1.879608,5
11,1879912212000,5.28,6.97,4.2904096,5
11,1879962291000,6.7,10.15,3.7864566,5
11,1880012248000,4.9,11.6,2.8330324,5
11,1880062266000,8.5,11.11,1.7570249,5
11,1880112254000,6.13,6.78,-2.3699405,5
11,1880162303000,3.83,7.35,-3.173541,5
11,1880212230000,8.24,9.38,-1.7978859,5
11,1880262309000,6.36,6.28,2.3699405,5
11,1880312205000,6.51,4.71,3.718355,5
11,1880362315000,4.25,5.22,1.2258313,5
11,1880412242000,4.99,6.82,2.4108016,5
11,1880462321000,6.93,8.01,3.405087,5
11,1880512218000,8.05,8.16,0.38136974,5
11,1880562297000,8.47,8.81,3.255263,5
11,1880612376000,8.81,10.92,-1.334794,5
11,1880662364000,5.18,8.39,-2.6832085,5
11,1880712230000,3.68,8.77,-1.0760075,5
11,1880762248000,3.49,9.53,-1.2258313,5
11,1880812266000,6.51,5.98,3.3778462,5
11,1880862224000,5.24,2.87,-0.46309182,5
11,1880912303000,3.72,5.13,2.9556155,5
11,1880962230000,4.86,7.27,3.3778462,5
11,1881012248000,5.63,7.78,5.706926,5
11,1881062205000,6.55,11.18,4.671779,5
11,1881112285000,5.41,9.96,2.3018389,5
11,1881162242000,8.01,9.72,-0.19068487,5
11,1881212230000,5.05,7.01,-2.4516625,5
11,1881262248000,6.66,8.85,-1.6889231,5
11,1881312297000,9.08,7.44,1.334794,5
11,1881362254000,4.9,3.72,1.9885708,5
11,1881412334000,3.68,5.56,1.5390993,5
11,1881462230000,3.91,8.2,3.1463003,5
11,1881512309000,8.12,7.82,2.6423476,5
11,1881562236000,8.08,7.7,0.3405087,5
11,1881612346000,8.73,9.11,2.3018389,5
11,1881662151000,10.04,11.75,-1.6889231,5
11,1881712260000,5.09,8.05,-2.5606253,5
11,1881762279000,3.15,8.66,-1.1849703,5
11,1881812236000,3.21,9.7,-0.9942854,5
11,1881862315000,8.08,5.43,2.7240696,5
11,1881912242000,4.29,2.34,0.42223078,5
11,1881962291000,3.95,6.21,2.3426998,5
11,1882012248000,4.37,7.21,4.4810944,5
11,1882062297000,5.98,8.12,5.243834,5
11,1882112224000,7.06,12.53,4.3312707,5
11,1882162273000,5.13,10.53,2.3426998,5
11,1882212230000,7.89,9.66,0.23154591,5
11,1882262279000,4.75,6.32,-2.6832085,5
11,1882312205000,8.47,8.62,-2.0294318,5
11,1882362285000,8.28,6.97,-0.46309182,5
11,1882412242000,3.79,3.15,1.5390993,5
11,1882462291000,4.67,6.85,2.982856,5
11,1882512248000,4.94,7.93,2.1111538,5
11,1882562266000,8.47,7.78,3.636633,5
11,1882612254000,7.27,8.12,0.10896278,5
11,1882662303000,7.35,8.43,2.4925237,5
11,1882712230000,9.23,9.85,-1.607201,5
11,1882762279000,6.21,8.85,-2.4516625,5
11,1882812205000,4.52,9.23,-1.4982382,5
11,1882862285000,3.41,9.96,-0.7627395,5
11,1882912242000,5.41,5.67,0.88532263,5
11,1882962291000,6.51,3.49,1.0760075,5
11,1883012248000,2.98,4.71,3.759216,5
11,1883062266000,4.6,7.01,3.568531,5
11,1883112254000,6.21,7.97,3.445948,5
11,1883162273000,6.09,11.26,4.372132,5
11,1883212199000,5.9,11.26,4.903325,5
11,1883262279000,8.5,9.34,-0.42223078,5
11,1883312236000,4.82,6.44,-3.0237172,5
11,1883362315000,7.5,7.97,-1.334794,5
11,1883412242000,8.01,7.4,-0.7218784,5
11,1883462260000,5.09,4.82,-0.8036005,5
11,1883512248000,3.3,5.56,2.2201166,5
11,1883562297000,4.52,8.5,5.175732,5
11,1883612224000,7.27,7.35,1.0760075,5
11,1883662273000,7.4,7.93,1.3075534,5
11,1883712230000,7.7,9.15,1.56634,5
11,1883762279000,10.34,11.6,0.10896278,5
11,1883812236000,5.43,8.39,-2.5606253,5
11,1883862285000,3.26,7.55,-2.1792557,5
11,1883912242000,4.14,10.76,-1.607201,5
11,1883962260000,3.79,7.74,-1.3756552,5
11,1884012248000,7.89,4.44,2.6014864,5
11,1884062297000,4.86,3.83,0.84446156,5
11,1884112254000,2.98,6.36,3.2961242,5
11,1884162273000,4.82,6.21,5.2165933,5
11,1884212230000,6.47,9.89,4.7126403,5
11,1884262309000,4.67,11.75,3.718355,5
11,1884312205000,6.44,9.81,3.255263,5
11,1884362315000,6.97,8.77,-0.19068487,5
11,1884412242000,5.01,6.93,-3.255263,5
11,1884462260000,7.97,9.28,-0.84446156,5
11,1884512248000,8.08,7.63,-0.040861044,5
11,1884562297000,5.09,4.71,0.6537767,5
11,1884612254000,2.41,5.9,5.7886477,5
11,1884662273000,4.18,7.82,1.7570249,5
11,1884712230000,6.21,7.78,3.486809,5
11,1884762309000,8.08,8.5,0.14982383,5
11,1884812236000,6.97,8.96,3.759216,5
11,1884862315000,9.0,10.46,-0.50395286,5
11,1884912212000,5.63,8.24,-3.214402,5
11,1884962291000,4.37,9.7,-1.1849703,5
11,1885012218000,4.06,11.35,-1.0351465,5
11,1885062328000,3.11,6.44,-0.84446156,5
11,1885112224000,4.29,4.48,0.5720546,5
11,1885162273000,8.47,3.53,2.6832085,5
11,1885212260000,3.06,5.13,3.9090397,5
11,1885262279000,5.33,8.31,5.407278,5
11,1885312205000,5.01,11.37,3.445948,5
11,1885362315000,4.29,10.42,5.2165933,5
11,1885422771000,9.3,9.38,2.982856,5
11,1885472240000,5.94,6.74,-1.879608,5
11,1885522288000,6.32,7.21,-0.9942854,5
11,1885572246000,7.21,7.25,-0.84446156,5
11,1885622295000,6.47,6.28,-0.9125633,5
11,1885672252000,4.63,5.75,0.10896278,5
11,1885722301000,4.86,6.74,0.27240697,5
11,1885772227000,4.37,9.11,9.425281,5
11,1885822307000,6.85,7.82,0.19068487,5
11,1885872203000,8.73,7.89,0.23154591,5
11,1885922313000,8.89,8.69,2.0294318,5
11,1885972209000,9.38,10.88,-0.7218784,5
11,1886022258000,5.24,8.12,-2.7921712,5
11,1886072215000,3.95,9.53,-1.9885708,5
11,1886122295000,3.79,9.34,-1.607201,5
11,1886172221000,3.15,6.17,-0.88532263,5
11,1886222301000,8.2,4.44,2.1111538,5
11,1886272319000,4.6,3.79,0.88532263,5
11,1886322276000,2.79,6.78,6.0474343,5
11,1886372203000,4.48,8.77,4.862464,5
11,1886422313000,7.27,11.65,6.0201936,5
11,1886472423000,3.17,9.0,4.2495484,5
11,1886522288000,8.69,12.45,1.4573772,5
11,1886572215000,5.67,8.31,-2.2201166,5
11,1886622295000,5.83,6.66,-1.607201,5
11,1886672252000,7.59,8.05,-0.6946377,5
11,1886722301000,7.08,5.52,-0.29964766,5
11,1886772258000,3.57,4.4,5.5571017,5
11,1886822368000,4.86,7.16,2.6423476,5
11,1886882274000,4.33,8.08,1.4573772,5
11,1886932231000,6.02,9.0,3.1054392,5
11,1886982280000,8.08,8.92,1.3075534,5
11,1887032237000,8.92,9.19,2.4925237,5
11,1887082286000,8.24,10.38,-0.88532263,5
11,1887132243000,5.01,7.78,-1.879608,5
11,1887182262000,4.18,11.07,-1.3075534,5
11,1887232280000,3.26,9.28,-1.2666923,5
11,1887282268000,2.53,5.09,-0.19068487,5
11,1887332225000,5.18,3.87,1.4573772,5
11,1887382274000,6.17,4.71,2.6832085,5
11,1887432201000,3.91,7.5,6.851035,5
11,1887482310000,5.52,9.47,3.0645783,5
11,1887532207000,6.05,11.26,4.5219555,5
11,1887582317000,5.67,11.54,3.3778462,5
11,1887632213000,7.5,9.58,0.53119355,5
11,1887632213000,7.5,9.58,0.53119355,5
11,1887632213000,7.5,9.58,0.53119355,5
11,1887782237000,8.31,6.59,-1.0351465,5
11,1887832408000,5.09,4.25,-0.61291564,5
11,1887882243000,4.63,5.28,0.61291564,5
11,1887932262000,5.75,8.85,1.607201,5
11,1887982463000,3.68,10.0,8.499097,5
11,1888032298000,8.05,8.28,-0.8036005,5
11,1888082255000,9.47,9.23,0.08172209,5
11,1888132274000,9.47,11.11,1.607201,5
11,1888182201000,5.56,7.82,-0.9942854,5
11,1888232310000,3.38,7.86,-1.56634,5
11,1888282207000,3.76,10.19,-1.1441092,5
11,1888332286000,3.26,7.08,0.08172209,5
11,1888382243000,7.78,3.53,1.9477097,5
11,1888432323000,5.98,4.37,1.0760075,5
11,1888482280000,2.3,6.89,4.399372,5
11,1888532298000,4.1,7.27,4.8216033,5
11,1888582286000,7.63,9.77,4.440233,5
11,1888632274000,4.37,10.8,5.434519,5
11,1888682231000,6.44,11.07,4.0588636,5
11,1888732310000,7.27,8.85,-0.53119355,5
11,1888782237000,5.37,6.47,-0.7218784,5
11,1888832286000,5.56,7.89,0.040861044,5
11,1888882213000,8.31,7.59,0.08172209,5
11,1888932262000,4.33,4.9,0.040861044,5
11,1888982341000,3.49,3.91,0.3405087,5
11,1889032268000,6.4,7.4,0.23154591,5
11,1889082225000,5.48,11.54,12.176591,5
11,1889132274000,7.27,9.51,-0.040861044,5
11,1889182231000,9.51,11.41,1.0351465,5
11,1889232310000,9.15,10.38,-0.10896278,5
11,1889282207000,3.95,6.17,-0.29964766,5
11,1889332286000,3.6,10.69,-1.7570249,5
11,1889382213000,4.56,9.08,-0.6946377,5
11,1889432262000,2.26,4.71,-0.23154591,5
11,1889482219000,1.95,3.06,0.27240697,5
11,1889532268000,6.36,5.48,2.2609777,5
11,1889582225000,8.05,5.24,10.800936,5
11,1889632274000,5.13,12.98,6.701211,5
11,1889682201000,2.3,11.11,2.8738933,5
11,1889732280000,8.5,11.92,4.6036777,5
11,1889782237000,6.21,7.74,-0.53119355,5
11,1889832317000,6.32,7.12,-0.9125633,5
11,1889882213000,8.12,8.43,0.040861044,5
11,1889932292000,6.93,5.67,-0.19068487,5
11,1889982249000,3.72,3.87,-0.53119355,5
11,1890032268000,2.76,4.4,0.040861044,5
11,1890082286000,6.24,8.58,-0.6537767,5
11,1890132304000,9.62,12.03,14.137921,5
11,1890182201000,8.16,10.27,0.53119355,5
11,1890232280000,10.0,11.22,0.08172209,5
11,1890282237000,7.4,8.89,-2.1792557,5
11,1890332378000,4.1,7.97,-0.9942854,5
11,1890382213000,3.68,10.84,-2.1792557,5
11,1890432262000,3.64,6.82,-1.3075534,5
11,1890482219000,3.15,3.95,-0.0,5
11,1890532268000,3.38,4.02,0.50395286,5
11,1890582255000,8.35,5.22,5.6252036,5
11,1890632274000,2.98,9.34,11.727119,5
11,1890682201000,4.75,12.79,4.399372,5
11,1890732310000,2.03,10.0,4.2904096,5
11,1890782237000,11.14,11.69,1.334794,5
11,1890832286000,6.21,7.21,-0.6946377,5
11,1890882243000,7.08,8.28,-0.08172209,5
11,1890932292000,7.82,7.4,0.6946377,5
11,1890982249000,5.13,4.56,-0.040861044,5
11,1891032298000,3.21,4.1,-0.08172209,5
11,1891082225000,4.75,6.28,0.14982383,5
11,1891132274000,5.41,11.92,12.571581,5
11,1891182231000,7.5,9.34,-0.6537767,5
11,1891232280000,9.28,8.2,1.1849703,5
11,1891282237000,10.19,10.95,-0.0,5
11,1891332286000,5.94,7.63,-1.4573772,5
11,1891382243000,4.67,9.85,-0.9942854,5
11,1891432262000,4.33,10.42,-1.3756552,5
11,1891482219000,2.76,5.43,-0.6946377,5
11,1891532268000,2.83,3.53,0.50395286,5
11,1891582225000,7.06,4.37,2.6014864,5
11,1891632304000,6.63,5.98,7.9270425,5
11,1891682201000,3.83,9.28,3.5957718,5
11,1891732310000,7.7,10.92,4.6036777,5
11,1891782237000,3.76,11.54,4.440233,5
11,1891832317000,9.0,12.15,1.7297841,5
11,1891882213000,6.09,7.74,-2.6423476,5
11,1891932262000,5.63,7.59,0.08172209,5
11,1891982249000,9.08,7.55,-0.19068487,5
11,1892032298000,4.67,4.06,-0.61291564,5
11,1892082225000,2.37,3.15,-0.5720546,5
11,1892132335000,4.86,6.02,0.23154591,5
11,1892182201000,8.92,10.69,-0.23154591,5
11,1892232280000,5.18,12.53,13.6748295,5
11,1892282207000,7.7,10.23,-0.0,5
11,1892332347000,10.95,11.56,-0.19068487,5
11,1892382213000,7.12,8.5,-1.7570249,5
11,1892432292000,2.98,6.78,-1.2666923,5
11,1892482219000,4.14,11.69,-1.525479,5
11,1892532268000,3.64,7.82,-1.6480621,5
11,1892582255000,2.96,4.71,-0.3405087,5
11,1892632335000,6.13,3.91,2.3426998,5
11,1892682262000,6.28,5.18,1.607201,5
11,1892732310000,4.56,7.7,10.038197,5
11,1892782268000,4.6,12.68,3.6774938,5
11,1892782268000,4.6,12.68,3.6774938,5
11,1892882274000,9.04,12.41,3.8681788,5
11,1892932353000,6.7,9.04,0.23154591,5
11,1892932353000,6.7,9.04,0.23154591,5
11,1892992229000,6.55,6.51,-1.0351465,5
11,1893043651000,8.47,7.5,-0.38136974,5
11,1893092235000,6.02,5.28,-0.53119355,5
11,1893143535000,4.1,4.06,-0.38136974,5
11,1893192271000,4.14,4.79,0.14982383,5
11,1893242259000,6.4,8.12,0.6537767,5
11,1893292277000,7.74,10.88,-0.42223078,5
11,1893342235000,7.4,12.95,13.756551,5
11,1893393687000,10.15,10.76,-1.334794,5
11,1893442241000,9.51,9.96,-2.3018389,5
11,1893493571000,4.4,6.7,-1.920469,5
11,1893542247000,4.1,10.61,-2.6423476,5
11,1893593455000,3.91,10.04,-2.2609777,5
11,1893642284000,3.06,5.37,-0.50395286,5
11,1893692241000,5.01,6.05,10.56939,5
11,1893802135000,2.53,6.05,10.56939,5
11,1893802135000,2.53,6.05,10.56939,5
11,1893852306000,3.83,12.26,5.5571017,5
11,1893902354000,3.83,9.92,3.759216,5
11,1893952312000,5.98,11.92,3.173541,5
11,1894002727000,6.66,10.08,0.5720546,5
11,1894062236000,6.05,7.7,-1.1849703,5
11,1894112224000,8.62,7.93,-0.3405087,5
11,1894162303000,5.6,5.13,-0.08172209,5
11,1894212230000,3.87,3.53,-0.19068487,5
11,1894262309000,4.99,5.63,0.42223078,5
11,1894312236000,7.67,9.23,-1.607201,5
11,1894362285000,6.13,11.37,12.871228,5
11,1894412273000,7.93,8.92,-0.9942854,5
11,1894462291000,10.88,10.61,-0.040861044,5
11,1894512248000,8.28,9.53,-0.5720546,5
11,1894562297000,4.02,6.7,-0.95342433,5
11,1894612224000,3.91,10.12,-0.88532263,5
11,1894662273000,3.41,8.01,-1.920469,5
11,1894712230000,2.76,4.6,-0.0,5
11,1894762309000,6.13,4.06,2.152015,5
11,1894812236000,6.82,5.22,3.718355,5
11,1894862315000,3.41,7.44,6.1700177,5
11,1894912212000,6.78,9.0,3.214402,5
11,1894962291000,5.9,10.8,4.2086873,5
11,1895012218000,5.28,12.07,4.944186,5
11,1895062297000,7.25,9.23,0.95342433,5
11,1895112224000,6.55,6.85,-0.7218784,5
11,1895162639000,8.01,7.7,-0.95342433,5
11,1895212230000,7.06,6.09,0.14982383,5
11,1895262309000,4.48,4.21,-0.14982383,5
11,1895312205000,3.53,4.48,0.38136974,5
11,1895362315000,6.21,6.85,0.19068487,5
11,1895412242000,8.43,10.38,-0.84446156,5
11,1895462291000,5.18,13.25,14.410328,5
11,1895512248000,8.58,10.46,-0.38136974,5
11,1895562297000,9.19,10.27,-1.1441092,5
11,1895612224000,6.09,7.82,-1.920469,5
11,1895662303000,5.33,10.69,-2.1792557,5
11,1895712230000,3.57,8.5,-2.0294318,5
11,1895762309000,2.64,4.94,-0.53119355,5
11,1895812236000,3.34,4.67,-0.95342433,5
11,1895862315000,4.94,5.79,1.8387469,5
11,1895912242000,8.08,4.29,8.117727,5
11,1895962291000,1.99,11.96,8.771504,5
11,1896012248000,4.02,10.57,0.6537767,5
11,1896062266000,8.31,14.48,4.440233,5
11,1896112254000,6.93,7.93,-2.4516625,5
11,1896162303000,6.17,7.82,0.313268,5
11,1896212230000,8.77,8.54,-0.27240697,5
11,1896262279000,5.9,4.44,-0.23154591,5
11,1896312205000,3.34,3.95,0.08172209,5
11,1896362315000,4.71,5.24,0.23154591,5
11,1896412242000,8.43,10.46,-1.4573772,5
11,1896462291000,5.86,11.92,13.565866,5
11,1896512248000,8.39,10.95,-0.50395286,5
11,1896562266000,8.39,11.5,-0.84446156,5
11,1896612254000,3.21,7.35,-3.1054392,5
11,1896662395000,2.64,9.92,-1.6889231,5
11,1896712230000,3.91,9.28,-0.7218784,5
11,1896762279000,11.26,3.95,4.399372,5
11,1896812205000,3.11,3.95,0.040861044,5
11,1896862285000,0.8,6.89,1.920469,5
11,1896912242000,1.12,7.63,9.275456,5
11,1896962291000,3.21,8.47,7.1234417,5
11,1897012248000,5.67,10.15,5.284695,5
11,1897062297000,5.94,7.31,4.2086873,5
11,1897112285000,8.73,12.34,7.4639506,5
11,1897162303000,5.05,10.88,-0.14982383,5
11,1897212199000,1.61,6.7,-0.6537767,5
11,1897262279000,5.43,9.3,0.08172209,5
11,1897312236000,7.27,8.31,-0.42223078,5
11,1897362285000,7.63,3.11,-1.7978859,5
11,1897412242000,4.56,2.91,-0.14982383,5
11,1897462291000,5.56,6.78,0.5720546,5
11,1897512248000,7.97,9.43,0.7627395,5
11,1897562266000,3.64,11.11,13.484144,5
11,1897612254000,8.96,9.77,-0.6537767,5
11,1897662242000,8.96,9.04,1.0760075,5
11,1897712230000,8.77,10.76,-1.525479,5
11,1897762309000,5.13,7.59,-1.3756552,5
11,1897812205000,3.72,9.53,-0.9125633,5
11,1897862285000,2.49,9.38,-1.8387469,5
11,1897912212000,2.79,6.05,-0.6946377,5
11,1897962291000,5.13,5.6,1.2666923,5
11,1898012279000,6.59,5.94,1.1849703,5
11,1898062297000,4.29,5.86,2.1111538,5
11,1898112254000,5.24,8.5,10.61025,5
11,1898162273000,3.95,14.41,2.4108016,5
11,1898212230000,3.11,11.07,1.0351465,5
11,1898262309000,10.46,13.44,1.4573772,5
11,1898312205000,4.99,6.82,-0.27240697,5
11,1898362285000,3.99,6.93,-1.9885708,5
11,1898412242000,8.89,8.01,-0.38136974,5
11,1898462291000,8.08,5.13,-1.1441092,5
11,1898512248000,4.56,3.26,-0.27240697,5
11,1898562297000,5.05,6.47,-0.23154591,5
11,1898612254000,6.82,10.5,0.84446156,5
11,1898662273000,6.78,9.19,-0.53119355,5
11,1898712230000,5.28,11.45,10.882658,5
11,1898762309000,9.72,10.5,-1.3756552,5
11,1898812327000,7.63,10.65,-2.1111538,5
11,1898862376000,4.99,8.81,-1.56634,5
11,1898912273000,3.91,10.76,-2.070293,5
11,1898962230000,2.98,8.5,-1.7570249,5
11,1899012309000,3.79,5.22,2.4925237,5
11,1899062236000,5.28,4.48,0.9942854,5
11,1899112315000,1.69,4.29,4.399372,5
11,1899162242000,4.86,7.46,5.407278,5
11,1899212291000,5.79,8.69,6.238119,5
11,1899262218000,4.52,10.61,5.09401,5
11,1899312297000,4.67,9.62,4.862464,5
11,1899362254000,6.59,9.34,1.6480621,5
11,1899412334000,7.86,8.2,-1.4982382,5
11,1899462230000,7.55,8.69,-0.3405087,5
11,1899512309000,8.58,6.78,-0.8036005,5
11,1899562236000,4.52,5.09,-0.9942854,5
11,1899612315000,3.26,5.43,-0.29964766,5
11,1899662242000,4.67,8.08,0.3405087,5
11,1899712291000,6.21,9.3,0.27240697,5
11,1899762248000,6.36,12.07,3.6774938,5
11,1899822337000,8.08,11.11,5.8567495,5
11,1899872417000,9.62,9.66,-1.879608,5
11,1899922374000,8.28,10.27,-4.140586,5
11,1899972301000,5.79,9.92,-1.607201,5
11,1900022319000,3.02,8.24,-2.0294318,5
11,1900082286000,3.49,4.4,-0.9125633,5
11,1900132213000,9.77,4.48,5.5571017,5
11,1900182292000,3.06,4.52,1.3075534,5
11,1900232249000,1.46,6.17,5.829509,5
11,1900282329000,-0.65,10.92,11.223166,5
11,1900332255000,4.4,9.77,5.09401,5
11,1900382304000,6.78,10.23,7.246025,5
11,1900432201000,6.09,10.69,-1.2666923,5
11,1900482280000,5.79,8.92,-0.19068487,5
11,1900532207000,5.98,8.96,-0.3405087,5
11,1900582347000,7.16,6.24,-0.23154591,5
11,1900632274000,4.14,3.91,0.23154591,5
11,1900682262000,3.06,4.6,0.6946377,5
11,1900732249000,5.43,7.97,0.8036005,5
11,1900782298000,6.13,12.03,4.9850473,5
11,1900832255000,6.55,10.92,5.6252036,5
11,1900882304000,9.77,9.96,0.88532263,5
11,1900932231000,10.04,10.5,-0.6537767,5
11,1900982310000,5.22,6.89,-1.6480621,5
11,1901032237000,4.86,9.53,-0.9125633,5
11,1901082286000,4.02,10.73,-2.7513103,5
11,1901132274000,2.76,5.52,-1.0351465,5
11,1901182292000,2.45,4.25,0.14982383,5
11,1901232249000,3.6,4.63,-0.27240697,5
11,1901282268000,7.44,7.06,1.7978859,5
11,1901332225000,6.89,8.05,8.308413,5
11,1901382274000,-0.57,14.14,11.917805,5
11,1901432201000,2.98,10.76,2.3018389,5
11,1901482310000,8.81,11.56,2.7240696,5
11,1901532237000,4.75,6.32,-0.50395286,5
11,1901582286000,5.63,7.97,-0.27240697,5
11,1901632213000,7.78,7.27,-0.3405087,5
11,1901682262000,5.75,3.79,-0.38136974,5
11,1901732249000,3.49,3.99,0.23154591,5
11,1901782268000,4.75,6.85,0.7218784,5
11,1901832255000,7.31,9.62,0.8036005,5
11,1901882304000,5.28,12.83,13.484144,5
11,1901932201000,9.47,10.73,0.50395286,5
11,1901982310000,9.7,11.03,0.313268,5
11,1902032207000,6.28,8.12,-1.1441092,5
11,1902082286000,3.95,8.5,-1.56634,5
11,1902132213000,3.11,11.07,-2.3426998,5
11,1902182262000,2.53,7.5,-1.2666923,5
11,1902232249000,2.22,4.6,-0.50395286,5
11,1902282268000,2.91,4.79,-0.5720546,5
11,1902332286000,7.31,5.86,1.6480621,5
11,1902382274000,8.12,8.47,7.8180795,5
11,1902432231000,-0.72,15.09,11.223166,5
11,1902482280000,2.11,10.04,1.4573772,5
11,1902532207000,8.58,12.45,2.8330324,5
11,1902582286000,6.09,8.35,-0.53119355,5
11,1902632213000,4.75,8.47,-1.4165162,5
11,1902682292000,7.01,8.31,-0.61291564,5
11,1902732249000,7.59,3.76,-0.95342433,5
11,1902782298000,4.63,3.41,-0.10896278,5
11,1902832225000,4.67,6.02,-0.10896278,5
11,1902882274000,6.55,8.81,0.7218784,5
11,1902932231000,6.89,9.96,0.6537767,5
11,1902982280000,8.28,12.41,13.443283,5
11,1903032207000,9.0,10.0,0.10896278,5
11,1903082317000,7.59,8.62,-2.6423476,5
11,1903132243000,5.83,9.77,-2.1111538,5
11,1903182292000,5.01,12.37,-2.5606253,5
11,1903232249000,2.96,8.39,-2.2609777,5
11,1903282268000,2.45,3.83,-0.7218784,5
11,1903332225000,2.49,4.86,-0.9942854,5
11,1903382274000,3.91,6.78,-0.53119355,5
11,1903432201000,5.13,8.73,0.08172209,5
11,1903482280000,11.8,13.53,10.95076,5
11,1903532207000,-0.15,5.05,11.604536,5
11,1903582286000,8.69,12.72,-2.2201166,5
11,1903632243000,7.44,9.43,-2.1383946,5
11,1903682292000,8.31,8.58,-1.334794,5
11,1903732249000,6.7,5.98,-1.6480621,5
11,1903782268000,4.06,4.21,-0.61291564,5
11,1903832286000,2.64,5.13,0.313268,5
11,1903882365000,4.14,7.63,0.6946377,5
11,1903882365000,4.14,7.63,0.6946377,5
11,1903962382000,8.58,9.08,-1.6480621,5
11,1904012248000,13.67,11.18,14.7916975,5
11,1904062236000,9.92,12.26,-0.6537767,5
11,1904112346000,6.74,9.0,-3.6774938,5
11,1904172282000,3.91,8.35,-1.0351465,5
11,1904222209000,3.38,9.53,-1.9885708,5
11,1904272258000,3.06,6.21,-1.7297841,5
11,1904322215000,2.68,4.1,-0.88532263,5
11,1904372264000,4.29,6.59,-0.23154591,5
11,1904422282000,6.02,8.73,0.19068487,5
11,1904472301000,9.66,8.16,9.152874,5
11,1904522227000,-0.65,10.69,12.367276,5
11,1904572276000,4.63,8.69,0.95342433,5
11,1904622234000,8.96,11.75,-0.23154591,5
11,1904672282000,4.18,7.25,-2.4516625,5
11,1904722270000,6.59,8.05,-0.9942854,5
11,1904772288000,6.82,6.97,-0.9125633,5
11,1904822276000,4.75,5.52,-0.3405087,5
11,1904872325000,3.45,5.09,0.10896278,5
11,1904922343000,4.44,6.93,0.61291564,5
11,1904972270000,7.44,8.35,0.46309182,5
11,1905022227000,8.31,10.42,2.3018389,5
11,1905072307000,10.53,10.8,10.61025,5
11,1905122264000,9.89,12.18,-1.607201,5
11,1905172313000,6.24,7.86,-2.982856,5
11,1905222270000,4.1,8.08,-1.525479,5
11,1905272288000,3.41,10.38,-1.920469,5
11,1905322215000,2.26,7.27,-1.920469,5
11,1905372264000,2.68,4.63,-0.5720546,5
11,1905422221000,3.49,6.05,-0.84446156,5
11,1905472270000,6.02,8.08,0.27240697,5
11,1905522197000,8.69,7.5,6.701211,5
11,1905572276000,0.8,11.07,12.830367,5
11,1905622203000,3.57,8.89,2.2609777,5
11,1905672282000,8.47,11.41,1.1168685,5
11,1905722270000,5.52,7.55,-2.1383946,5
11,1905772288000,6.05,7.74,-0.3405087,5
11,1905874248000,5.24,5.67,-0.3405087,5
11,1905874248000,5.24,5.67,-0.3405087,5
11,1905922191000,3.38,5.18,0.14982383,5
11,1905972240000,3.95,6.66,0.46309182,5
11,1906022197000,6.59,7.78,0.46309182,5
11,1906072337000,8.01,9.96,-0.14982383,5
11,1906132274000,11.8,10.42,13.184497,5
11,1906182231000,10.0,12.26,-1.920469,5
11,1906232249000,5.63,7.7,-3.255263,5
11,1906282207000,3.95,8.58,-1.2258313,5
11,1906332347000,3.6,9.92,-2.7513103,5
11,1906382213000,2.6,6.7,-1.8387469,5
11,1906432292000,2.41,4.44,-0.84446156,5
11,1906482249000,4.4,6.13,-0.5720546,5
11,1906532298000,6.21,7.31,0.19068487,5
11,1906582255000,10.08,7.25,9.997335,5
11,1906632274000,0.04,11.65,11.985906,5
11,1906682231000,3.83,9.62,0.6946377,5
11,1906732249000,8.54,11.3,1.9885708,5
11,1906782237000,4.56,7.21,-1.1168685,5
11,1906832317000,6.28,8.43,-0.84446156,5
11,1906882213000,7.86,7.78,-0.53119355,5
11,1906932262000,5.18,4.9,-0.7627395,5
11,1906982249000,3.15,4.56,-0.27240697,5
11,1907032298000,4.4,6.59,0.10896278,5
11,1907082255000,7.27,7.93,0.27240697,5
11,1907132304000,8.12,9.66,-0.8036005,5
11,1907182231000,11.69,11.99,14.709975,5
11,1907232402000,10.73,11.73,-1.56634,5
11,1907282237000,6.66,8.89,-3.9499009,5
11,1907332286000,4.63,9.15,-1.7297841,5
11,1907382213000,3.38,9.92,-2.2609777,5
11,1907432292000,2.26,6.74,-1.607201,5
11,1907482280000,1.84,3.95,-0.88532263,5
11,1907532268000,3.49,5.43,-0.42223078,5
11,1907582225000,6.85,7.35,1.3756552,5
11,1907632304000,10.5,6.36,7.5865335,5
11,1907682231000,-0.19,11.96,14.206022,5
11,1907732371000,5.09,11.37,1.1441092,5
11,1907782268000,8.54,11.56,2.1792557,5
11,1907832286000,4.44,6.51,-0.7218784,5
11,1907882243000,6.63,9.0,-1.7297841,5
11,1907932262000,6.85,7.46,-0.27240697,5
11,1907982249000,4.86,4.25,-0.5720546,5
11,1908032329000,3.57,3.64,-0.0,5
11,1908082255000,4.56,6.05,0.313268,5
11,1908132304000,6.78,8.12,0.7218784,5
11,1908182231000,7.31,10.73,0.23154591,5
11,1908232280000,10.61,11.8,14.47843,5
11,1908282268000,9.96,11.56,-1.1849703,5
11,1908332317000,7.78,9.85,-3.336985,5
11,1908382274000,4.71,9.23,-1.4573772,5
11,1908432262000,3.3,10.5,-2.4108016,5
11,1908482219000,2.79,6.97,-1.4573772,5
11,1908532268000,2.15,4.02,-0.88532263,5
11,1908582225000,2.07,4.99,-1.4982382,5
11,1908632304000,4.86,7.35,-0.14982383,5
11,1908682231000,14.1,6.78,12.762266,5
11,1908732249000,-0.38,12.15,10.079058,5
11,1908782237000,5.22,9.47,-0.9125633,5
11,1908832286000,7.21,12.37,1.0760075,5
11,1908882243000,6.21,8.43,-0.3405087,5
11,1908932262000,6.85,8.81,-0.6537767,5
11,1908982219000,8.89,6.59,-0.6946377,5
11,1909032268000,4.44,3.87,-0.5720546,5
11,1909082225000,2.45,3.45,0.27240697,5
11,1909132335000,4.82,6.7,0.61291564,5
11,1909182262000,8.47,9.58,0.19068487,5
11,1909232280000,7.27,11.54,1.6889231,5
11,1909282237000,9.81,10.76,11.454713,5
11,1909332317000,10.88,12.15,-4.0180025,5
11,1909382274000,6.63,9.66,-3.7864566,5
11,1909432262000,3.68,9.11,-2.2201166,5
11,1909482219000,3.02,8.39,-2.4925237,5
11,1909532298000,3.15,5.79,-1.0760075,5
11,1909582255000,3.64,4.44,-0.5720546,5
11,1909632304000,5.05,5.83,0.3405087,5
11,1909682262000,8.12,6.44,5.8567495,5
11,1909732310000,0.61,10.95,12.299174,5
11,1909782237000,2.07,10.76,1.9885708,5
11,1909832286000,8.58,12.91,2.9556155,5
11,1909882213000,7.21,8.5,0.313268,5
11,1909932292000,5.56,7.06,-0.29964766,5
11,1909982219000,7.35,8.54,-1.1849703,5
11,1910032268000,4.9,5.94,-0.040861044,5
11,1910082225000,3.57,4.25,-1.3075534,5
11,1910132274000,4.56,5.48,0.040861044,5
11,1910182231000,6.28,8.28,0.50395286,5
11,1910232249000,7.63,8.39,-0.0,5
11,1910282329000,6.82,10.53,0.7218784,5
11,1910332317000,9.89,13.21,13.824653,5
11,1910382213000,9.28,10.34,-2.3018389,5
11,1910432292000,8.01,8.5,-5.053149,5
11,1910482249000,5.28,10.08,-1.334794,5
11,1910532268000,3.26,11.03,-2.6423476,5
11,1910582225000,2.18,6.44,-1.4573772,5
11,1910632274000,1.5,4.18,-0.9125633,5
11,1910682231000,4.06,5.79,-1.2258313,5
11,1910732280000,6.36,7.59,0.6946377,5
11,1910782268000,8.35,6.36,7.43671,5
11,1910832317000,-0.95,9.89,12.598822,5
11,1910832317000,-0.95,9.89,12.598822,5
11,1910902293000,3.79,10.53,2.9556155,5
11,1910952281000,9.15,11.96,2.6014864,5
11,1911002330000,5.63,7.82,-1.1441092,5
11,1911062266000,6.17,7.78,-1.3075534,5
11,1911112224000,7.78,7.89,-0.46309182,5
11,1911162303000,5.28,5.83,-0.50395286,5
11,1911212199000,3.26,5.22,-0.23154591,5
11,1911262218000,3.26,5.6,0.5720546,5
11,1911312205000,6.36,6.89,0.040861044,5
11,1911362285000,8.16,8.28,-0.10896278,5
11,1911412242000,9.62,12.72,3.445948,5
11,1911462291000,13.59,12.22,7.8180795,5
11,1911512218000,5.67,9.3,-1.7978859,5
11,1911562297000,4.6,8.43,-3.214402,5
11,1911612224000,3.72,9.89,-1.1849703,5
11,1911662273000,3.15,7.4,-2.070293,5
11,1911712230000,2.18,4.6,-0.7218784,5
11,1911762279000,2.72,4.79,-0.95342433,5
11,1911832378000,7.01,7.01,2.2609777,5
11,1911882274000,9.04,5.67,11.182305,5
11,1911882274000,9.04,5.67,11.182305,5
11,1911982219000,5.37,8.81,0.42223078,5
11,1912032298000,7.31,11.96,2.4516625,5
11,1912032298000,7.31,11.96,2.4516625,5
11,1912093608000,5.98,9.04,-1.7570249,5
11,1912142223000,7.01,9.11,-0.53119355,5
11,1912192271000,7.55,6.36,0.040861044,5
11,1912243693000,4.75,3.79,-0.46309182,5
11,1912292277000,2.45,2.79,-0.23154591,5
11,1912343730000,4.48,4.6,0.313268,5
11,1912392253000,8.47,8.58,0.08172209,5
11,1912443584000,9.81,11.6,-0.42223078,5
11,1912492229000,12.83,11.75,14.2877445,5
11,1912542247000,8.24,10.04,-4.2904096,5
11,1912592265000,8.05,10.0,-3.255263,5
11,1912642284000,5.48,12.15,-1.920469,5
11,1912693645000,3.57,10.99,-2.4925237,5
11,1912742229000,2.34,3.68,-0.6946377,5
11,1912793529000,1.54,1.95,-1.1849703,5
11,1912842265000,3.76,4.63,-1.7297841,5
11,1912892223000,8.35,7.67,3.405087,5
11,1912943645000,9.3,13.02,10.991621,5
11,1912992198000,-2.64,7.97,1.7570249,5
11,1913043559000,5.6,12.49,3.990762,5
11,1913092204000,6.74,9.85,1.2258313,5
11,1913144054000,7.31,10.5,-0.6946377,5
11,1913193462000,9.34,9.19,-1.1168685,5
11,1913242229000,4.29,3.53,-1.4982382,5
11,1913292247000,0.95,1.84,0.27240697,5
11,1913343639000,1.65,4.02,0.19068487,5
11,1913392253000,6.82,8.92,-0.19068487,5
11,1913443492000,10.99,13.29,0.6946377,5
11,1913492229000,8.16,11.22,3.0237172,5
11,1913542277000,11.54,9.34,10.841797,5
11,1913593669000,7.4,11.37,-6.2108784,5
11,1913642284000,5.98,11.18,-1.4573772,5
11,1913693553000,3.6,9.34,-1.56634,5
11,1913742259000,2.45,4.79,-1.6480621,5
11,1913792247000,3.21,4.14,-1.4165162,5
11,1913843608000,3.57,5.83,-1.2666923,5
11,1913892223000,5.67,7.82,0.61291564,5
11,1913943492000,12.91,10.88,12.830367,5
11,1913992198000,-3.11,6.51,7.205164,5
11,1914042277000,6.78,10.99,1.0760075,5
11,1914093669000,7.21,10.69,0.3405087,5
11,1914142253000,6.28,9.19,-3.6774938,5
11,1914193553000,8.31,8.96,-1.0351465,5
11,1914242229000,6.36,4.4,-0.23154591,5
11,1914292216000,3.26,2.96,-0.08172209,5
11,1914343639000,2.07,4.44,-0.50395286,5
11,1914392253000,6.78,8.62,0.42223078,5
11,1914443462000,10.95,13.63,-0.53119355,5
11,1914492259000,7.25,11.65,14.982383,5
11,1914542247000,9.58,11.99,-4.440233,5
11,1914593639000,5.94,8.12,-2.1111538,5
11,1914642284000,4.4,12.26,-3.486809,5
11,1914693462000,2.49,9.43,-3.718355,5
11,1914742229000,2.56,3.72,-0.5720546,5
11,1914792216000,2.15,2.87,-0.23154591,5
11,1914843639000,4.56,5.01,-0.6537767,5
11,1914892284000,9.23,7.59,5.175732,5
11,1914943462000,4.86,10.08,9.656827,5
11,1914992229000,-0.53,10.65,6.0882955,5
11,1915042216000,5.67,11.84,3.6774938,5
11,1915093608000,7.08,10.8,1.4165162,5
11,1915142223000,5.22,10.92,-2.982856,5
11,1915193523000,9.23,9.85,-1.334794,5
11,1915244090000,6.28,3.76,-0.6537767,5
11,1915293559000,1.61,2.56,-1.1168685,5
11,1915342235000,0.99,4.06,-0.29964766,5
11,1915392284000,6.63,7.97,0.19068487,5
11,1915443645000,11.14,12.07,-0.19068487,5
11,1915492198000,11.14,11.45,13.184497,5
11,1915543559000,9.04,11.37,-3.9499009,5
11,1915592235000,5.28,10.27,-3.718355,5
11,1915643382000,4.9,13.8,-2.0294318,5
11,1915692241000,2.22,8.85,-1.6889231,5
11,1915742259000,2.87,3.53,-0.7218784,5
11,1915793651000,2.87,2.37,-0.19068487,5
11,1915842235000,2.91,3.83,-0.08172209,5
11,1915893504000,11.26,6.02,9.765789,5
11,1915942363000,2.41,14.02,8.962189,5
11,1915992229000,0.72,10.04,2.2201166,5
11,1916042247000,9.72,13.38,3.568531,5
11,1916092235000,3.83,8.12,-0.42223078,5
11,1916143657000,6.85,11.41,-0.9942854,5
11,1916192241000,8.16,8.16,-0.27240697,5
11,1916243693000,5.05,3.15,-1.7978859,5
11,1916292247000,2.49,2.96,-0.42223078,5
11,1916343547000,4.06,5.01,-0.14982383,5
11,1916392253000,8.08,8.62,0.50395286,5
11,1916442210000,9.53,11.65,2.6423476,5
11,1916493602000,8.39,11.92,7.504812,5
11,1916542216000,10.76,11.54,-2.4925237,5
11,1916593455000,5.83,9.51,-1.4982382,5
11,1916642253000,5.09,12.79,-2.3426998,5
11,1916692241000,2.03,8.39,-2.3018389,5
11,1916743755000,1.95,2.76,-1.0351465,5
11,1916792247000,1.84,2.15,-1.1849703,5
11,1916843455000,3.68,5.67,-0.6537767,5
11,1916902263000,6.51,10.38,0.50395286,5
11,1916952281000,6.82,14.71,12.830367,5
11,1917002269000,-2.11,7.21,8.471856,5
11,1917052318000,7.97,12.11,-1.0351465,5
11,1917102275000,7.7,9.08,-0.42223078,5
11,1917152293000,7.5,9.92,-2.8738933,5
11,1917202281000,10.73,9.51,-1.7570249,5
11,1917252299000,4.82,4.63,-1.0351465,5
11,1917302287000,1.99,3.17,-0.42223078,5
11,1917352275000,2.79,4.99,-0.0,5
11,1917402263000,5.83,8.47,0.23154591,5
11,1917452281000,13.57,10.92,12.4489975,5
11,1917502269000,8.66,7.27,-1.2666923,5
11,1917552287000,9.38,10.19,-4.2086873,5
11,1917602275000,5.9,8.85,-3.405087,5
11,1917652263000,5.56,11.07,-2.5606253,5
11,1917702281000,4.99,9.28,-2.2201166,5
11,1917702281000,4.99,9.28,-2.2201166,5
11,1917802165000,2.64,2.72,-0.7218784,5
11,1917852244000,5.13,3.64,2.070293,5
11,1917902415000,7.44,7.86,4.8216033,5
11,1917952281000,3.38,12.34,7.9270425,5
11,1918002299000,2.53,10.69,2.2201166,5
11,1918052287000,7.25,10.76,2.152015,5
11,1918102275000,7.89,8.24,0.10896278,5
11,1918152263000,6.05,7.86,-1.7570249,5
11,1918202312000,9.77,9.53,-1.9477097,5
11,1918252238000,7.89,6.28,-0.46309182,5
11,1918302318000,3.91,3.15,-0.95342433,5
11,1918352244000,2.76,3.79,-1.0351465,5
11,1918402293000,7.08,8.35,-0.7627395,5
11,1918452281000,9.81,10.04,12.912089,5
11,1918502299000,9.3,7.08,-2.6423476,5
11,1918552287000,10.19,9.04,-2.2201166,5
11,1918602306000,7.16,9.34,-2.8738933,5
11,1918652263000,6.7,13.4,-2.6832085,5
11,1918702312000,4.06,10.19,-3.214402,5
11,1918752269000,3.17,4.63,-1.6889231,5
11,1918802318000,2.56,3.17,-0.38136974,5
11,1918852275000,5.83,3.6,0.7218784,5
11,1918902293000,6.55,5.86,3.6774938,5
11,1918952281000,4.25,10.19,9.765789,5
11,1919002299000,3.17,12.11,2.6423476,5
11,1919052287000,3.95,10.42,1.2666923,5
11,1919102306000,8.77,12.03,1.5390993,5
11,1919152263000,8.43,11.84,-3.2961242,5
11,1919202312000,11.8,11.45,-2.982856,5
11,1919252238000,5.05,4.37,-1.879608,5
11,1919302287000,1.92,1.92,-2.982856,5
11,1919352275000,2.26,3.11,-1.607201,5
11,1919402263000,6.47,7.86,-0.53119355,5
11,1919452281000,12.91,12.98,12.367276,5
11,1919502299000,7.97,8.92,-1.920469,5
11,1919552287000,10.95,9.96,-2.7921712,5
11,1919602275000,6.13,10.61,-3.568531,5
11,1919652263000,4.48,11.35,-4.140586,5
11,1919702281000,3.3,10.34,-2.3018389,5
11,1919752299000,4.06,5.52,0.10896278,5
11,1919802318000,6.66,2.49,1.1168685,5
11,1919852275000,3.26,2.41,0.14982383,5
11,1919902293000,3.68,6.09,2.8738933,5
11,1919952312000,4.75,9.77,6.742072,5
11,1920002299000,5.33,13.02,6.469665,5
11,1920052287000,2.64,8.54,1.2666923,5
11,1920102306000,11.03,13.18,3.2961242,5
11,1920152263000,6.17,8.92,-3.336985,5
11,1920202312000,8.69,12.57,-1.1849703,5
11,1920252269000,10.04,7.78,-1.9477097,5
11,1920302287000,2.53,2.64,-0.61291564,5
11,1920352275000,1.54,1.23,-1.4573772,5
11,1920402263000,4.37,4.67,-0.8036005,5
11,1920452281000,11.54,12.6,6.782933,5
11,1920502299000,7.59,8.69,2.6014864,5
11,1920552287000,8.69,7.74,0.6537767,5
11,1920602275000,9.11,9.89,-3.636633,5
11,1920652263000,5.86,10.0,-2.4925237,5
11,1920702281000,6.85,14.33,-3.336985,5
11,1920752238000,3.76,7.21,-1.9885708,5
11,1920802287000,2.53,2.91,-1.525479,5
11,1920852275000,1.8,2.83,-0.46309182,5
11,1920902263000,4.18,5.79,0.88532263,5
11,1920952281000,9.53,7.16,5.47538,5
11,1921002299000,5.13,12.87,9.00305,5
11,1921052318000,1.38,9.92,2.2201166,5
11,1921102275000,7.31,12.37,1.4573772,5
11,1921152263000,7.46,9.89,-1.1441092,5
11,1921202342000,6.93,10.92,-5.09401,5
11,1921252299000,10.08,9.43,-2.1792557,5
11,1921302287000,5.05,3.41,-2.5333846,5
11,1921352275000,2.83,2.07,-1.334794,5
11,1921402263000,4.63,5.28,1.0351465,5
11,1921452281000,6.74,9.85,9.915613,5
11,1921502299000,9.15,8.54,-1.7297841,5
11,1921552287000,9.34,8.01,1.2258313,5
11,1921602275000,9.51,9.58,-1.6480621,5
11,1921652263000,6.44,11.11,-2.5333846,5
11,1921702281000,5.71,13.25,-3.1054392,5
11,1921752238000,3.83,8.92,-1.0760075,5
11,1921802318000,2.53,3.38,-0.38136974,5
11,1921852306000,1.27,2.6,-0.46309182,5
11,1921902293000,7.01,4.02,3.173541,5
11,1921952281000,7.86,7.31,5.243834,5
11,1922002299000,4.56,11.18,6.0474343,5
11,1922052287000,1.61,10.27,2.3699405,5
11,1922102306000,6.85,11.41,2.6014864,5
11,1922152263000,8.54,9.53,-0.10896278,5
11,1922202312000,9.28,9.23,-6.0882955,5
11,1922252483000,9.92,8.81,-1.4165162,5
11,1922302287000,5.33,3.87,-1.4573772,5
11,1922352275000,2.83,2.56,-1.1441092,5
11,1922402293000,4.21,5.86,0.5720546,5
11,1922452281000,5.94,10.23,8.349273,5
11,1922502299000,9.81,8.31,-1.56634,5
11,1922552287000,10.12,7.93,-0.84446156,5
11,1922602306000,8.39,9.04,-2.6832085,5
11,1922652263000,5.94,10.23,-2.5606253,5
11,1922702281000,6.13,12.83,-2.7513103,5
11,1922752330000,4.79,7.59,-0.8036005,5
11,1922802348000,3.99,2.53,0.53119355,5
11,1922852336000,3.76,1.8,0.53119355,5
11,1922902415000,4.99,6.36,3.7864566,5
11,1922952342000,5.09,7.31,4.1814466,5
11,1923002391000,7.35,12.64,5.938472,5
11,1923062236000,2.64,8.43,1.920469,5
11,1923112224000,10.42,11.22,0.14982383,5
11,1923162303000,7.7,10.61,-3.1463003,5
11,1923212230000,9.7,10.65,-4.372132,5
11,1923262248000,7.16,6.13,-0.95342433,5
11,1923312114000,3.49,2.79,-2.2609777,5
11,1923362224000,1.23,4.25,7.6273947,5
11,1923412242000,6.66,8.28,4.2495484,5
11,1923462230000,10.12,7.44,-0.46309182,5
11,1923512309000,9.51,7.5,1.8387469,5
11,1923562236000,10.15,9.77,-2.1383946,5
11,1923612315000,5.86,8.54,-3.1054392,5
11,1923662273000,5.75,10.88,-2.1111538,5
11,1923712291000,5.43,11.35,-1.6889231,5
11,1923762248000,3.76,5.01,-0.7218784,5
11,1923822307000,2.64,2.53,-0.7218784,5
11,1923872234000,7.5,4.1,3.214402,5
11,1923922374000,5.09,6.93,3.990762,5
11,1923972240000,5.86,9.96,4.9850473,5
11,1924022288000,3.68,10.88,3.636633,5
11,1924082286000,9.62,10.57,1.879608,5
11,1924132213000,6.63,8.08,-2.2609777,5
11,1924182262000,9.7,10.46,-3.636633,5
11,1924232249000,10.08,8.31,-1.1849703,5
11,1924282268000,5.18,3.79,-2.4516625,5
11,1924332225000,2.72,2.87,-0.7627395,5
11,1924382274000,2.96,9.58,10.460427,5
11,1924432231000,8.77,7.21,-0.27240697,5
11,1924482280000,10.34,6.55,0.19068487,5
11,1924532237000,11.03,8.31,-0.08172209,5
11,1924582317000,8.2,9.92,-1.607201,5
11,1924632274000,4.9,8.31,-2.7240696,5
11,1924682262000,6.24,13.06,-2.6832085,5
11,1924732249000,3.91,10.19,-1.9885708,5
11,1924782268000,2.76,4.56,-0.88532263,5
11,1924832225000,2.22,3.3,-0.5720546,5
11,1924882335000,9.7,4.63,4.372132,5
11,1924932201000,4.25,6.32,4.6036777,5
11,1924982310000,7.5,8.54,3.2961242,5
11,1925032268000,3.68,10.76,3.255263,5
11,1925082286000,7.31,11.73,1.56634,5
11,1925132213000,7.25,8.58,-1.7297841,5
11,1925182231000,7.31,11.11,-2.1111538,5
11,1925232249000,9.77,9.66,-2.3699405,5
11,1925282298000,4.71,3.99,-1.7297841,5
11,1925332225000,2.6,1.84,-2.3018389,5
11,1925382335000,4.56,7.31,4.2904096,5
11,1925432231000,8.54,7.27,7.5865335,5
11,1925482280000,9.85,8.01,-0.3405087,5
11,1925532207000,11.73,6.55,-0.61291564,5
11,1925582286000,9.77,10.61,-1.7570249,5
11,1925632213000,5.41,10.27,-1.8387469,5
11,1925682262000,4.14,11.92,-2.5606253,5
11,1925732219000,2.34,9.62,-1.7570249,5
11,1925782268000,2.87,4.4,-0.53119355,5
11,1925832255000,3.17,3.34,-0.38136974,5
11,1925882304000,7.55,4.9,3.3778462,5
11,1925932262000,5.13,6.7,4.7126403,5
11,1925982310000,7.21,8.85,3.8273177,5
11,1926032268000,4.71,12.15,3.568531,5
11,1926082286000,3.95,11.45,2.6014864,5
11,1926132213000,9.58,12.53,1.0760075,5
11,1926182292000,5.79,9.19,-0.53119355,5
11,1926232249000,10.42,9.08,-2.7921712,5
11,1926282298000,5.83,4.48,-2.1383946,5
11,1926332225000,1.42,1.65,-2.6423476,5
11,1926382274000,2.37,3.34,-2.5606253,5
11,1926432201000,8.96,9.3,-0.46309182,5
11,1926482310000,10.57,12.18,3.445948,5
11,1926532237000,7.97,11.03,7.205164,5
11,1926582286000,8.81,9.62,-3.5957718,5
11,1926632243000,7.27,9.43,-4.3312707,5
11,1926682262000,5.67,9.92,-3.1054392,5
11,1926732219000,4.82,10.99,-1.7978859,5
11,1926782268000,2.6,6.47,-1.3075534,5
11,1926832225000,2.56,3.15,-0.8036005,5
11,1926882274000,2.98,4.86,0.19068487,5
11,1926932231000,7.74,6.85,2.7649305,5
11,1926982310000,8.73,7.21,8.390134,5
11,1927032268000,5.86,10.8,-0.14982383,5
11,1927082286000,5.79,10.04,1.5390993,5
11,1927132243000,8.01,12.26,1.4982382,5
11,1927182262000,5.13,8.35,-1.6480621,5
11,1927232280000,7.78,9.04,-1.6889231,5
11,1927282268000,9.43,7.97,-2.3699405,5
11,1927332286000,4.37,3.15,-3.3642259,5
11,1927382274000,2.79,3.72,-1.607201,5
11,1927432262000,5.01,7.06,-0.5720546,5
11,1927482280000,8.89,12.79,-0.3405087,5
11,1927532237000,8.43,10.53,9.112013,5
11,1927582347000,8.77,8.35,-2.982856,5
11,1927632213000,9.3,10.53,-3.7864566,5
11,1927682262000,6.28,10.8,-3.3642259,5
11,1927732219000,4.67,11.88,-2.8330324,5
11,1927782298000,3.91,7.25,-1.7570249,5
11,1927832225000,4.33,4.6,-0.3405087,5
11,1927882274000,3.21,3.17,-0.08172209,5
11,1927932231000,5.56,4.4,2.8738933,5
11,1927982310000,6.55,6.85,8.894087,5
11,1928032237000,6.09,11.8,2.3018389,5
11,1928082317000,3.34,10.23,2.070293,5
11,1928132274000,8.39,12.76,2.152015,5
11,1928182262000,5.37,8.81,-1.2258313,5
11,1928232219000,7.46,9.81,-2.7921712,5
11,1928282298000,10.15,8.47,-3.173541,5
11,1928332225000,5.48,3.53,-2.8330324,5
11,1928382274000,3.72,2.64,-0.42223078,5
11,1928432201000,4.4,6.02,-0.50395286,5
11,1928482280000,8.39,12.87,11.958665,5
11,1928532207000,6.66,7.89,-0.88532263,5
11,1928582286000,9.85,5.63,-0.42223078,5
11,1928632243000,8.69,8.2,-4.099725,5
11,1928682323000,7.4,12.07,-2.4925237,5
11,1928732280000,6.09,13.53,-2.6014864,5
11,1928782298000,3.76,10.69,-0.9125633,5
11,1928832286000,4.44,5.41,-0.3405087,5
11,1928832286000,4.44,5.41,-0.3405087,5
11,1928893565000,2.34,2.98,0.313268,5
11,1928942210000,6.74,2.37,6.932757,5
11,1928992259000,4.9,6.66,1.5390993,5
11,1929052318000,10.99,8.08,3.5276701,5
11,1929102275000,1.27,8.54,2.7921712,5
11,1929152293000,6.36,12.57,1.8387469,5
11,1929202281000,10.31,13.06,0.23154591,5
11,1929252269000,2.37,9.96,-3.568531,5
11,1929302287000,10.12,14.18,-5.012288,5
11,1929352275000,6.85,7.08,-3.7864566,5
11,1929402263000,3.34,3.49,-2.3018389,5
11,1929452312000,2.72,3.83,-1.56634,5
11,1929502269000,4.14,5.05,-0.61291564,5
11,1929552318000,8.85,11.56,12.871228,5
