user-id,timestamp,accX,accY,accZ,ActivityEncoded
5,2482232250000,-3.41,13.21,-0.7627395,4
5,2482282299000,-1.04,8.01,4.372132,4
5,2482332226000,-1.95,9.77,0.23154591,4
5,2482382305000,0.46,9.08,0.53119355,4
5,2482432201000,0.34,8.35,0.9942854,4
5,2482482281000,-1.69,9.34,1.2666923,4
5,2482532207000,-0.19,9.58,-2.5606253,4
5,2482582348000,-0.99,11.03,-3.405087,4
5,2482632213000,-3.15,12.53,-0.42223078,4
5,2482682293000,-0.5,11.37,0.53119355,4
5,2482732220000,-2.18,10.92,0.14982383,4
5,2482782299000,-0.27,9.92,1.1441092,4
5,2482832287000,1.31,9.28,2.3018389,4
5,2482882305000,0.8,8.08,2.4516625,4
5,2579322277000,-0.89,10.15,2.4925237,0
5,2579372204000,-2.07,11.92,3.5276701,0
5,2579422283000,-0.04,17.62,0.88532263,0
5,2579472332000,9.38,17.86,2.6014864,0
5,2579522259000,1.08,8.62,1.6480621,0
5,2579572277000,0.72,9.62,1.5390993,0
5,2579622234000,3.41,8.58,2.8738933,0
5,2579672283000,1.27,5.9,2.6014864,0
5,2579722240000,0.46,4.71,1.4165162,0
5,2579772259000,1.76,4.63,1.3075534,0
5,2579822247000,3.21,7.27,2.5333846,0
5,2579872265000,4.29,8.2,1.1168685,0
5,2579922222000,-1.99,17.2,6.3198414,0
5,2579972301000,-3.02,16.09,10.991621,0
5,2580022259000,2.15,10.99,6.2789803,0
5,2580072277000,2.03,6.24,2.982856,0
5,2580122234000,-1.27,3.57,0.53119355,0
5,2580172283000,-1.69,1.54,1.334794,0
5,2580222240000,1.65,1.88,2.152015,0
5,2580272259000,3.41,8.96,0.08172209,0
5,2580322247000,-3.83,9.62,3.990762,0
5,2580372265000,-6.09,16.74,0.46309182,0
5,2580422222000,9.23,18.28,2.6832085,0
5,2580472301000,4.52,12.07,3.5957718,0
5,2580522198000,0.27,9.38,1.6889231,0
5,2580572277000,0.65,7.78,2.5333846,0
5,2580622204000,2.53,5.56,1.2258313,0
5,2580672283000,-0.3,4.67,-0.3405087,0
5,2580722210000,-0.5,3.76,2.3018389,0
5,2580772289000,4.71,6.93,2.1111538,0
5,2580822216000,0.0,13.21,4.7943625,0
5,2580872265000,0.57,16.21,8.580819,0
5,2580922253000,2.3,11.3,8.921328,0
5,2580972271000,0.72,8.05,5.134871,0
5,2581022228000,-0.23,5.24,2.6014864,0
5,2581072277000,0.0,3.76,2.2609777,0
5,2581122265000,1.27,3.06,0.95342433,0
5,2581122265000,1.27,3.06,0.95342433,0
5,2581122265000,1.27,3.06,0.95342433,0
5,2581272198000,-0.11,6.28,1.6480621,0
5,2581322430000,-4.1,13.53,2.7649305,0
5,2581372234000,3.53,11.84,-2.0294318,0
5,2581422314000,7.78,16.93,4.2495484,0
5,2581472210000,1.31,10.53,2.152015,0
5,2581522259000,-1.46,6.85,0.95342433,0
5,2581572247000,1.18,8.81,0.92618364,0
5,2581622265000,2.6,5.79,2.7240696,0
5,2581672253000,2.07,5.48,2.4925237,0
5,2581722301000,3.99,7.55,2.5606253,0
5,2581772228000,5.48,7.16,2.5606253,0
5,2581822277000,-0.72,12.34,4.0588636,0
5,2581872204000,-3.36,15.09,3.1054392,0
5,2581922283000,0.53,15.79,10.56939,0
5,2581972240000,0.15,9.72,5.134871,0
5,2582022259000,1.08,4.25,1.920469,0
5,2582072277000,0.27,2.15,1.2258313,0
5,2582122295000,1.08,1.23,1.6889231,0
5,2582172222000,0.04,2.45,-0.38136974,0
5,2582222271000,-2.6,14.86,-0.10896278,0
5,2582272198000,-3.26,8.35,4.2086873,0
5,2582322277000,-3.72,17.67,-0.29964766,0
5,2582372234000,4.79,16.7,6.1291566,0
5,2582422314000,6.51,6.97,2.152015,0
5,2582472240000,0.15,9.81,0.23154591,0
5,2582522259000,0.11,8.96,2.7240696,0
5,2582572277000,1.42,6.4,1.920469,0
5,2582622265000,0.08,5.86,0.7627395,0
5,2582672222000,-0.72,5.6,2.3426998,0
5,2582722301000,6.32,8.47,3.5957718,0
5,2582772259000,8.73,7.89,2.982856,0
5,2582822277000,0.95,12.41,3.759216,0
5,2582822277000,0.95,12.41,3.759216,0
5,2582932201000,1.57,13.4,8.62168,0
5,2582932201000,1.57,13.4,8.62168,0
5,2582982250000,1.61,7.89,2.3426998,0
5,2583032238000,-1.46,4.21,0.46309182,0
5,2583092297000,0.04,3.15,0.7218784,0
5,2583142284000,-0.61,4.94,-0.27240697,0
5,2583192272000,-4.06,11.73,1.1168685,0
5,2583242260000,-2.11,8.31,2.2201166,0
5,2583292309000,-4.67,13.57,5.243834,0
5,2583342297000,4.1,10.57,-5.053149,0
5,2583392284000,7.63,17.01,7.3549876,0
5,2583442272000,0.99,8.69,1.9477097,0
5,2583492260000,-1.8,7.78,1.5390993,0
5,2583542278000,1.84,8.81,0.10896278,0
5,2583592266000,0.46,5.09,1.56634,0
5,2583642284000,-0.19,4.4,2.2609777,0
5,2583692303000,3.57,6.09,1.920469,0
5,2583742840000,8.35,8.01,2.1792557,0
5,2583792278000,-1.08,13.1,7.0553403,0
5,2583842297000,-1.84,14.37,10.501288,0
5,2583892284000,0.42,12.3,8.390134,0
5,2583942272000,3.17,7.46,5.2165933,0
5,2583992260000,0.04,5.09,2.1111538,0
5,2584042309000,-0.08,4.25,2.070293,0
5,2584092266000,0.72,3.34,1.3756552,0
5,2584142315000,-1.76,4.94,1.9477097,0
5,2584192272000,-2.83,11.14,0.040861044,0
5,2584242290000,-4.37,7.89,4.5628166,0
5,2584292278000,-0.19,17.69,-0.27240697,0
5,2584342266000,4.21,11.37,1.5390993,0
5,2584392284000,5.9,14.82,3.0645783,0
5,2584442272000,1.14,11.11,-0.0,0
5,2584492260000,-1.84,8.05,0.313268,0
5,2584542278000,3.3,6.13,0.6946377,0
5,2584592266000,3.79,5.79,1.607201,0
5,2584642284000,4.21,6.24,2.5333846,0
5,2584692272000,3.99,6.97,2.9147544,0
5,2584742290000,4.56,7.93,0.7627395,0
5,2584792278000,-4.48,12.45,4.440233,0
5,2584842266000,-0.8,16.82,-1.2666923,0
5,2584892284000,-1.61,18.09,8.580819,0
5,2584942272000,4.86,12.26,1.7570249,0
5,2584992229000,-1.99,6.7,1.7570249,0
5,2585042278000,-0.84,3.72,1.1441092,0
5,2585092266000,-0.15,2.37,2.4108016,0
5,2585142284000,1.84,8.35,4.2904096,0
5,2585192272000,-0.3,9.92,10.18802,0
5,2585248302000,-0.61,17.62,-0.9125633,0
5,2585302288000,1.5,7.46,-0.53119355,0
5,2585352215000,-5.86,11.07,-3.8681788,0
5,2585402294000,4.1,11.26,-1.0760075,0
5,2585452221000,0.38,8.05,-2.6832085,0
5,2585502331000,4.06,10.46,-1.2258313,0
5,2585552257000,5.71,9.23,0.92618364,0
5,2585602276000,3.76,11.37,2.3426998,0
5,2585652203000,3.57,9.47,0.19068487,0
5,2585702312000,2.96,7.21,-0.9125633,0
5,2585752209000,-2.26,10.65,0.46309182,0
5,2585802319000,-1.08,14.02,-0.8036005,0
5,2585852245000,-0.84,12.83,0.8036005,0
5,2585902294000,-3.49,12.87,0.92618364,0
5,2585952221000,0.04,10.23,1.4165162,0
5,2586002300000,2.26,8.24,2.4925237,0
5,2586052257000,1.76,5.37,3.173541,0
5,2586102306000,0.0,4.52,2.3018389,0
5,2586152233000,0.31,7.67,3.9090397,0
5,2586202312000,0.72,7.93,5.7886477,0
5,2586202312000,0.72,7.93,5.7886477,0
5,2586322247000,2.64,8.24,7.273266,0
5,2586372326000,-3.53,17.58,3.718355,0
5,2586372326000,-3.53,17.58,3.718355,0
5,2586482220000,-0.57,10.34,-3.568531,0
5,2586482220000,-0.57,10.34,-3.568531,0
5,2586532238000,4.99,11.65,-0.29964766,0
5,2586582256000,2.37,6.24,-0.46309182,0
5,2586682232000,4.25,8.43,0.42223078,0
5,2586682232000,4.25,8.43,0.42223078,0
5,2586732281000,4.75,9.7,1.7297841,0
5,2586782207000,2.79,9.3,2.0294318,0
5,2586832287000,1.95,10.27,2.070293,0
5,2586932232000,1.18,11.84,-1.1441092,0
5,2586932232000,1.18,11.84,-1.1441092,0
5,2586982250000,-7.7,13.67,-0.50395286,0
5,2587082287000,0.72,5.09,3.214402,0
5,2587212109000,1.23,5.09,3.214402,0
5,2587212109000,1.23,5.09,3.214402,0
5,2587212109000,1.23,5.09,3.214402,0
5,2587262859000,0.99,4.56,2.6014864,0
5,2587312633000,-1.04,3.57,1.9885708,0
5,2587362255000,-1.46,5.37,0.27240697,0
5,2587412304000,-2.79,9.08,2.070293,0
5,2587462231000,-4.63,9.47,2.6014864,0
5,2587512279000,2.53,16.02,-2.070293,0
5,2587562267000,8.01,17.58,7.0553403,0
5,2587612316000,2.41,8.89,2.0294318,0
5,2587662243000,-2.07,7.31,0.19068487,0
5,2587712261000,-1.31,7.21,1.5390993,0
5,2587762249000,0.65,4.52,1.3756552,0
5,2587812298000,0.34,3.79,2.1111538,0
5,2587862255000,3.11,8.01,2.8330324,0
5,2587912304000,5.33,8.12,3.2961242,0
5,2587962200000,-0.95,18.5,7.43671,0
5,2588012310000,-1.8,16.32,10.310603,0
5,2588062237000,5.75,9.51,6.4424243,0
5,2588112316000,0.8,6.78,3.3778462,0
5,2588162243000,-1.38,2.07,0.88532263,0
5,2588212292000,0.57,1.27,0.38136974,0
5,2588262249000,-0.04,4.75,1.0760075,0
5,2588312420000,-3.17,14.14,1.7297841,0
5,2588362225000,-4.1,3.95,0.19068487,0
5,2588412273000,-0.34,7.82,2.6832085,0
5,2588462231000,-1.84,18.31,-1.9477097,0
5,2588512310000,3.45,15.6,4.9850473,0
5,2588562267000,7.21,7.86,2.4516625,0
5,2588612286000,0.95,11.88,1.8387469,0
5,2588662273000,0.23,9.04,3.8681788,0
5,2588712292000,4.14,6.97,2.8738933,0
5,2588762279000,1.88,5.63,1.4165162,0
5,2588812298000,0.8,5.37,0.42223078,0
5,2588862286000,3.3,5.28,0.9942854,0
5,2588912304000,5.01,8.43,2.5606253,0
5,2588962261000,-0.53,10.31,3.336985,0
5,2589012279000,-0.11,15.75,6.3607025,0
5,2589062237000,-0.42,14.82,11.264028,0
5,2589112286000,0.0,10.12,4.8216033,0
5,2589162243000,0.76,4.02,1.7297841,0
5,2589212292000,0.31,1.57,2.070293,0
5,2589262249000,0.89,1.92,3.214402,0
5,2589312267000,1.69,9.47,1.1168685,0
5,2589362286000,-0.89,8.81,2.6014864,0
5,2589412304000,-5.28,9.51,2.3018389,0
5,2589462261000,2.64,14.86,-2.4108016,0
5,2589512279000,5.18,16.78,4.7943625,0
5,2589562267000,4.71,12.72,1.0760075,0
5,2589612347000,-1.42,8.85,1.3756552,0
5,2589662243000,0.65,6.85,0.3405087,0
5,2589712261000,0.65,4.4,1.920469,0
5,2589762249000,1.18,3.72,2.9556155,0
5,2589812298000,2.6,7.89,2.6014864,0
5,2589862286000,5.9,9.53,2.3699405,0
5,2589912304000,1.18,9.66,2.8330324,0
5,2589962292000,-0.65,16.21,5.243834,0
5,2590012279000,0.23,17.12,8.962189,0
5,2590062237000,3.21,9.3,4.7126403,0
5,2590112316000,-1.23,6.13,1.4573772,0
5,2590162273000,-2.87,3.72,1.1441092,0
5,2590212292000,-0.34,2.91,1.0760075,0
5,2590262249000,0.23,6.32,0.8036005,0
5,2590312298000,-2.87,11.11,3.255263,0
5,2590362286000,1.33,5.63,2.4108016,0
5,2590412273000,-1.73,9.0,2.3699405,0
5,2590462231000,0.61,18.12,-0.040861044,0
5,2590512310000,5.37,16.44,7.0553403,0
5,2590562237000,5.33,11.35,1.3756552,0
5,2590612286000,-0.95,8.39,1.3075534,0
5,2590662243000,-0.8,7.31,0.38136974,0
5,2590712292000,1.99,6.55,1.9885708,0
5,2590762279000,1.42,5.01,2.5333846,0
5,2590812298000,1.92,7.74,1.4573772,0
5,2590862286000,5.83,9.66,0.8036005,0
5,2590912273000,-2.41,12.72,5.09401,0
5,2590962261000,3.17,13.63,8.281172,0
5,2591012279000,-4.33,12.91,6.5513873,0
5,2591062237000,-1.65,8.05,5.5162406,0
5,2591112286000,-1.95,5.94,0.61291564,0
5,2591162243000,0.08,2.41,1.1441092,0
5,2591212292000,1.31,3.34,1.8387469,0
5,2591262279000,-1.12,9.81,1.7978859,0
5,2591312267000,-2.07,11.54,3.718355,0
5,2591362225000,-3.64,5.48,0.38136974,0
5,2591412273000,4.1,16.02,1.879608,0
5,2591462261000,8.81,17.43,6.1291566,0
5,2591512279000,0.57,10.12,2.3426998,0
5,2591562298000,-1.42,8.58,0.23154591,0
5,2591612286000,0.23,8.5,0.9942854,0
5,2591662243000,2.26,6.47,1.9477097,0
5,2591712292000,2.07,4.94,2.070293,0
5,2591762249000,1.8,6.24,2.0294318,0
5,2591812298000,6.51,7.59,1.334794,0
5,2591862255000,0.08,10.23,4.372132,0
5,2591912273000,0.11,16.04,6.2789803,0
5,2591962444000,-3.11,14.29,9.575105,0
5,2592012310000,0.27,9.72,5.175732,0
5,2592062237000,-1.18,7.82,3.636633,0
5,2592112286000,-0.8,3.87,2.4925237,0
5,2592162273000,1.5,1.88,2.2609777,0
5,2592212292000,2.03,3.68,1.3075534,0
5,2592212292000,2.03,3.68,1.3075534,0
5,2592286938000,-0.15,9.3,1.5390993,0
5,2592342358000,-3.21,9.62,4.630918,0
5,2592392284000,0.99,15.4,-2.1111538,0
5,2592442394000,2.87,10.84,1.3075534,0
5,2592492321000,5.86,15.6,3.0645783,0
5,2592542339000,0.8,11.37,0.95342433,0
5,2592602245000,1.27,9.62,0.14982383,0
5,2592652203000,1.65,5.52,-0.0,0
5,2592702312000,1.46,4.4,0.53119355,0
5,2592752239000,2.6,6.09,2.1792557,0
5,2592802288000,4.48,7.7,2.9147544,0
5,2592852245000,6.74,9.28,1.4165162,0
5,2592902264000,-0.91,11.6,2.6423476,0
5,2592952221000,-3.06,14.79,-3.214402,0
5,2593002300000,-5.94,19.5,2.152015,0
5,2593052227000,1.18,13.4,1.5390993,0
5,2593102306000,2.76,7.86,2.8738933,0
5,2593152264000,0.57,4.75,0.8036005,0
5,2593212322000,0.38,1.54,1.4165162,0
5,2593262279000,-0.11,2.37,2.4108016,0
5,2593312359000,1.73,16.63,8.853226,0
5,2593362255000,-4.29,18.31,3.718355,0
5,2593412334000,2.37,6.63,-2.1792557,0
5,2593472271000,-2.34,8.12,-1.607201,0
5,2593522259000,0.42,14.41,-0.42223078,0
5,2593572308000,2.49,7.55,-1.6889231,0
5,2593622234000,1.95,9.08,-2.5606253,0
5,2593672283000,7.7,9.3,-0.0,0
5,2593722210000,5.6,9.66,1.1849703,0
5,2593772259000,3.21,9.38,0.040861044,0
5,2593822216000,3.06,9.38,-0.42223078,0
5,2593872265000,-0.8,10.95,0.61291564,0
5,2593922222000,-1.12,11.92,0.7627395,0
5,2593972271000,-0.91,14.37,-1.3756552,0
5,2594022289000,-2.34,10.08,-2.5606253,0
5,2594072277000,-3.15,11.14,-1.7978859,0
5,2594122204000,-3.06,9.77,0.9942854,0
5,2594172283000,2.96,9.53,2.3018389,0
5,2594222240000,1.69,7.21,3.5957718,0
5,2594272259000,0.34,6.28,2.6423476,0
5,2594322277000,0.69,5.63,3.636633,0
5,2594372265000,1.23,5.9,6.701211,0
5,2594422222000,0.04,6.17,6.8237944,0
5,2594472301000,2.72,6.55,5.8976107,0
5,2594522228000,-1.53,17.47,5.325556,0
5,2594572277000,0.31,6.17,-0.0,0
5,2594622204000,-2.14,6.55,-1.7570249,0
5,2594672314000,3.6,16.02,0.61291564,0
5,2594722210000,1.33,6.47,2.070293,0
5,2594772259000,0.15,9.15,1.3075534,0
5,2594822216000,0.46,8.85,1.2258313,0
5,2594872265000,2.37,8.08,2.982856,0
5,2594922253000,1.8,5.9,2.6423476,0
5,2594972271000,1.57,6.24,1.9477097,0
5,2595022228000,3.87,8.54,3.0645783,0
5,2595072277000,3.34,8.28,2.2609777,0
5,2595122234000,-0.5,7.35,1.4573772,0
5,2595172283000,-4.94,7.16,4.5219555,0
5,2595222240000,5.41,17.69,8.19945,0
5,2595272259000,-1.69,13.02,9.193735,0
5,2595322247000,2.87,7.08,5.6660647,0
5,2595372265000,1.33,3.06,2.1111538,0
5,2595422222000,-0.19,1.76,2.0294318,0
5,2595472301000,-0.42,4.99,0.53119355,0
5,2595522259000,0.27,11.73,0.9942854,0
5,2595572277000,-0.57,6.13,4.9850473,0
5,2595622204000,-5.09,16.02,-1.2258313,0
5,2595672283000,6.02,12.07,4.0180025,0
5,2595722210000,6.93,16.74,3.636633,0
5,2595772259000,0.15,9.85,2.152015,0
5,2595822216000,-0.84,6.05,1.7978859,0
5,2595872265000,0.65,6.97,2.1111538,0
5,2595922253000,2.87,7.59,1.920469,0
5,2595972301000,1.73,5.52,2.070293,0
5,2596022259000,4.02,7.44,0.61291564,0
5,2596072277000,-1.69,13.91,3.5276701,0
5,2596122234000,0.69,12.11,7.5865335,0
5,2596172283000,0.0,14.48,9.915613,0
5,2596222240000,2.03,7.06,5.407278,0
5,2596272259000,0.0,5.24,2.3699405,0
5,2596322247000,-0.99,2.56,0.92618364,0
5,2596372295000,-0.3,1.38,2.1792557,0
5,2596422253000,0.38,3.76,0.7627395,0
5,2596472271000,-1.5,16.55,0.7218784,0
5,2596522228000,-2.6,5.41,5.7886477,0
5,2596572277000,-1.88,18.47,-1.6480621,0
5,2596622204000,7.25,14.63,4.5219555,0
5,2596672314000,3.06,5.86,3.0645783,0
5,2596722210000,-1.33,8.35,-0.14982383,0
5,2596772259000,2.15,10.73,1.920469,0
5,2596822247000,0.89,6.32,0.7627395,0
5,2596872265000,0.76,3.72,2.1111538,0
5,2596922222000,0.46,4.56,0.8036005,0
5,2596972271000,4.44,7.86,2.6423476,0
5,2597022228000,-0.89,8.47,2.3018389,0
5,2597072277000,1.12,16.02,7.6273947,0
5,2597122234000,0.8,17.82,14.09706,0
5,2597172283000,-0.34,9.92,7.3141265,0
5,2597222210000,1.76,6.7,2.3699405,0
5,2597222210000,1.76,6.7,2.3699405,0
5,2597282330000,-0.65,2.83,1.4573772,0
5,2597382153000,-0.42,0.27,0.5720546,0
5,2597382153000,-0.42,0.27,0.5720546,0
5,2597432354000,0.76,12.91,0.88532263,0
5,2597482250000,-4.48,9.51,4.440233,0
5,2597532299000,-6.63,12.15,1.2666923,0
5,2597592297000,5.22,12.79,-0.19068487,0
5,2597642284000,10.38,13.87,5.597963,0
5,2597692272000,-1.57,12.07,1.4982382,0
5,2597742260000,-2.07,9.19,1.4165162,0
5,2597792309000,1.12,6.4,1.1849703,0
5,2597842693000,0.61,4.4,1.1168685,0
5,2597892284000,2.18,3.3,1.607201,0
5,2597942242000,2.56,6.24,1.607201,0
5,2597992260000,3.6,7.63,1.6889231,0
5,2598042278000,0.19,13.95,6.1700177,0
5,2598092266000,0.95,14.79,8.921328,0
5,2598142284000,3.11,12.37,10.038197,0
5,2598192272000,1.46,9.19,5.2165933,0
5,2598242260000,0.08,5.94,2.152015,0
5,2598292278000,-0.99,2.68,1.607201,0
5,2598342266000,-0.91,0.5,0.92618364,0
5,2598392345000,-2.79,12.76,2.5333846,0
5,2598452251000,1.04,3.26,2.4516625,0
5,2598502209000,-4.33,6.21,-3.0237172,0
5,2598552319000,2.37,18.12,4.140586,0
5,2598602245000,13.02,15.55,2.3018389,0
5,2598652264000,0.93,11.03,0.53119355,0
5,2598702251000,-4.37,7.55,0.6946377,0
5,2598752270000,0.95,9.19,1.0351465,0
5,2598802288000,3.83,7.08,2.0294318,0
5,2598852306000,1.31,4.86,1.4982382,0
5,2598902203000,-0.08,5.33,1.920469,0
5,2598952312000,7.63,7.21,1.4165162,0
5,2599002239000,1.38,11.6,6.4424243,0
5,2599052319000,2.87,13.1,7.43671,0
5,2599102245000,-0.99,10.92,9.343558,0
5,2599152294000,0.69,8.62,8.390134,0
5,2599202251000,1.69,6.89,4.0588636,0
5,2599272350000,0.95,2.72,2.0294318,0
5,2599322460000,1.65,3.72,2.3426998,0
5,2599322460000,1.65,3.72,2.3426998,0
5,2599422283000,-3.41,9.96,0.95342433,0
5,2599472332000,0.8,4.86,3.173541,0
5,2599472332000,0.8,4.86,3.173541,0
5,2599582226000,0.99,10.5,5.938472,0
5,2599582226000,0.99,10.5,5.938472,0
5,2599632275000,10.69,14.44,3.1054392,0
5,2599682262000,1.42,10.92,1.3075534,0
5,2599732250000,-1.23,8.01,2.1111538,0
5,2599832226000,1.88,6.63,1.2258313,0
5,2599832226000,1.88,6.63,1.2258313,0
5,2599932201000,3.72,6.82,1.9885708,0
5,2599932201000,3.72,6.82,1.9885708,0
5,2599982250000,6.55,6.7,1.7978859,0
5,2600082256000,0.65,11.03,4.903325,0
5,2600082256000,0.65,11.03,4.903325,0
5,2600132275000,-3.57,16.4,10.269742,0
5,2600182201000,1.65,7.31,4.440233,0
5,2600232250000,0.42,4.25,2.1792557,0
5,2600332256000,-2.18,4.21,1.920469,0
5,2600332256000,-2.18,4.21,1.920469,0
5,2600382305000,-3.41,3.99,2.1111538,0
5,2600482220000,-6.02,17.54,9.765789,0
5,2600482220000,-6.02,17.54,9.765789,0
5,2600532268000,0.19,14.98,-2.6832085,0
5,2600582226000,6.32,10.42,-2.6832085,0
5,2600632244000,-0.19,9.92,0.23154591,0
5,2600732250000,5.28,5.43,-3.5276701,0
5,2600732250000,5.28,5.43,-3.5276701,0
5,2600782299000,-0.89,9.62,-0.88532263,0
5,2600882275000,2.68,7.93,-0.42223078,0
5,2600882275000,2.68,7.93,-0.42223078,0
5,2600982220000,1.92,11.45,0.42223078,0
5,2600982220000,1.92,11.45,0.42223078,0
5,2601032268000,1.57,11.65,0.7627395,0
5,2601132244000,-2.3,10.84,1.1849703,0
5,2601132244000,-2.3,10.84,1.1849703,0
5,2601182232000,-2.75,10.73,2.1111538,0
5,2601282207000,1.76,6.55,2.9556155,0
5,2601282207000,1.76,6.55,2.9556155,0
5,2601332287000,-0.3,4.79,3.255263,0
5,2601382305000,-1.08,4.86,3.5957718,0
5,2601432262000,1.8,6.44,5.243834,0
5,2601532207000,-3.68,17.97,5.434519,0
5,2601532207000,-3.68,17.97,5.434519,0
5,2601582256000,-1.08,5.09,-3.255263,0
5,2601632214000,-1.12,11.18,-0.7627395,0
5,2601682262000,4.44,13.33,-0.8036005,0
5,2601782207000,0.5,9.89,-1.2258313,0
5,2601782207000,0.5,9.89,-1.2258313,0
5,2601832287000,5.18,9.3,0.3405087,0
5,2601932201000,3.41,8.89,1.8387469,0
5,2601932201000,3.41,8.89,1.8387469,0
5,2601982281000,2.72,9.04,0.5720546,0
5,2602082256000,1.33,12.79,-0.08172209,0
5,2602082256000,1.33,12.79,-0.08172209,0
5,2602082256000,1.33,12.79,-0.08172209,0
5,2602222240000,-1.04,11.45,2.5333846,0
5,2602222240000,-1.04,11.45,2.5333846,0
5,2602322247000,2.03,3.41,2.152015,0
5,2602322247000,2.03,3.41,2.152015,0
5,2602381542000,-0.76,3.87,2.4925237,0
5,2602442303000,1.65,4.1,3.3778462,0
5,2602492260000,0.11,3.64,0.88532263,0
5,2602542278000,-1.08,10.8,2.070293,0
5,2602592266000,-0.5,9.08,3.9090397,0
5,2602642284000,-0.89,9.19,2.4108016,0
5,2602692272000,0.15,16.02,-0.5720546,0
5,2602742260000,9.3,17.69,4.2086873,0
5,2602792278000,1.61,8.24,1.1441092,0
5,2602842297000,-0.65,9.81,1.3756552,0
5,2602892284000,2.26,8.08,1.6889231,0
5,2602942394000,-0.15,4.6,1.0760075,0
5,2602992260000,1.69,6.47,3.255263,0
5,2603062633000,3.45,6.4,3.173541,0
5,2603112316000,5.79,6.09,0.040861044,0
5,2603162487000,0.31,10.73,4.372132,0
5,2603212353000,-3.95,17.2,4.2495484,0
5,2603262218000,-0.84,15.43,10.61025,0
5,2603312420000,1.95,9.38,5.434519,0
5,2603362347000,1.14,5.63,1.8387469,0
5,2603412640000,-0.11,3.11,1.6480621,0
5,2603462597000,0.11,1.76,1.2666923,0
5,2603512524000,1.38,5.24,1.4982382,0
5,2603562664000,-1.76,11.69,-1.2666923,0
5,2603612652000,-1.99,6.51,5.8976107,0
5,2603662273000,-1.95,17.92,-1.6889231,0
5,2603712200000,9.23,13.33,7.0553403,0
5,2603762371000,5.01,11.54,2.0294318,0
5,2603822277000,-1.95,7.67,0.8036005,0
5,2603822277000,-1.95,7.67,0.8036005,0
5,2603892284000,-0.76,6.28,1.3756552,0
5,2603942272000,1.04,5.98,2.7649305,0
5,2603992290000,3.99,4.48,2.3699405,0
5,2604042370000,5.37,7.74,2.2201166,0
5,2604092266000,1.8,10.8,3.1463003,0
5,2604142284000,-2.26,15.55,4.944186,0
5,2604192272000,-0.69,16.97,10.56939,0
5,2604242260000,2.98,8.81,4.372132,0
5,2604292278000,1.46,3.6,-0.040861044,0
5,2604342266000,-0.15,1.08,0.61291564,0
5,2604392284000,-0.53,0.84,1.1168685,0
5,2604442272000,0.34,6.93,0.46309182,0
5,2604492290000,-1.95,16.28,3.445948,0
5,2604542278000,-4.14,5.01,1.5390993,0
5,2604592266000,3.49,15.02,0.8036005,0
5,2604642284000,5.37,15.17,7.3549876,0
5,2604692303000,4.99,10.04,3.173541,0
5,2604742260000,0.84,11.96,2.7240696,0
5,2604792278000,1.46,10.0,2.4108016,0
5,2604842266000,1.12,6.82,1.2666923,0
5,2604892284000,0.0,5.71,1.1441092,0
5,2604942272000,2.18,6.09,0.8036005,0
5,2604992290000,2.91,5.33,2.2201166,0
5,2605042309000,6.21,8.73,2.7921712,0
5,2605042309000,6.21,8.73,2.7921712,0
5,2605142162000,-1.92,17.58,3.8681788,0
5,2605192242000,-3.41,15.7,7.8861814,0
5,2605242687000,2.72,9.34,4.4810944,0
5,2605292278000,0.72,4.71,1.7297841,0
5,2605342297000,-1.42,1.04,1.1168685,0
5,2605392284000,-1.61,1.95,1.4165162,0
5,2605442303000,1.12,13.57,3.3778462,0
5,2605492260000,-0.99,8.01,0.46309182,0
5,2605542278000,-5.2,6.4,0.10896278,0
5,2605592266000,8.12,19.34,5.325556,0
5,2605642315000,8.31,12.95,5.366417,0
5,2605692272000,1.46,9.19,0.5720546,0
5,2605742260000,-2.49,8.66,0.95342433,0
5,2605792278000,-0.95,5.43,2.7240696,0
5,2605842297000,0.99,1.88,0.313268,0
5,2605892284000,1.33,5.86,1.6480621,0
5,2605942272000,2.83,8.92,0.313268,0
5,2605992260000,1.99,17.5,7.5865335,0
5,2606042309000,-3.83,14.29,12.367276,0
5,2606100414000,1.73,8.35,5.8976107,0
5,2606152325000,1.42,3.34,1.2666923,0
5,2606202801000,0.34,0.46,1.2258313,0
5,2606252422000,1.54,-0.08,2.6423476,0
5,2606302319000,0.53,7.67,0.08172209,0
5,2606352306000,-3.83,18.58,3.486809,0
5,2606402264000,5.01,17.35,3.0237172,0
5,2606452251000,7.31,9.51,1.5390993,0
5,2606502270000,-4.48,13.29,0.9942854,0
5,2606552380000,-1.61,12.26,1.0760075,0
5,2606602245000,3.57,5.56,0.10896278,0
5,2606652233000,1.42,6.93,1.2258313,0
5,2606702343000,2.22,6.21,2.5606253,0
5,2606763134000,2.87,4.21,3.1463003,0
5,2606812267000,3.21,6.02,0.19068487,0
5,2606862286000,2.68,9.62,3.486809,0
5,2606912212000,-1.99,14.67,8.19945,0
5,2606962261000,-0.72,15.79,13.633968,0
5,2607012279000,2.56,8.05,4.6036777,0
5,2607062298000,-3.53,8.77,4.0180025,0
5,2607112286000,-2.64,5.79,2.4516625,0
5,2607162273000,0.34,3.45,1.6889231,0
5,2607212261000,2.37,5.18,3.6774938,0
5,2607262463000,2.22,6.09,4.4810944,0
5,2607312237000,-0.46,8.28,4.1814466,0
5,2607362316000,-1.5,8.81,3.8273177,0
5,2607412273000,-3.36,12.83,3.718355,0
5,2607462261000,2.18,11.22,-1.3756552,0
5,2607512279000,4.29,15.21,5.407278,0
5,2607562298000,4.56,9.34,2.4925237,0
5,2607612286000,0.27,9.23,1.6480621,0
5,2607662273000,2.26,9.43,1.5390993,0
5,2607712200000,1.61,7.74,1.1168685,0
5,2607762279000,-0.04,7.89,1.7978859,0
5,2607812237000,3.26,7.59,-0.08172209,0
5,2607862286000,1.54,5.24,-0.6537767,0
5,2607912243000,0.69,7.27,1.4573772,0
5,2607962261000,3.91,8.92,4.0588636,0
5,2608012249000,3.17,6.4,2.982856,0
5,2608062298000,5.33,17.73,4.0180025,0
5,2608112225000,0.08,13.44,4.140586,0
5,2608162304000,-0.11,16.04,7.5456724,0
5,2608212231000,3.72,11.14,3.8681788,0
5,2608262279000,-1.27,6.17,3.3778462,0
5,2608312237000,-0.42,4.63,1.1441092,0
5,2608362286000,0.04,3.87,1.334794,0
5,2608412243000,-1.04,5.18,3.486809,0
5,2608462292000,3.6,10.88,5.407278,0
5,2608512279000,1.99,7.67,7.3549876,0
5,2608562298000,5.28,18.09,-2.6423476,0
5,2608612225000,-3.49,3.38,2.070293,0
5,2608662273000,-2.3,11.35,-2.4108016,0
5,2608712231000,8.08,9.85,-0.14982383,0
5,2608762279000,1.14,8.24,0.7218784,0
5,2608812267000,1.8,9.66,-0.19068487,0
5,2608862316000,4.4,8.62,1.7570249,0
5,2608912243000,3.15,10.04,2.0294318,0
5,2608962261000,1.54,8.89,0.3405087,0
5,2609012249000,0.61,11.92,-0.53119355,0
5,2609062298000,-0.89,13.53,0.27240697,0
5,2609112225000,-0.84,10.42,2.070293,0
5,2609162273000,0.0,8.96,1.607201,0
5,2609212231000,2.37,10.53,4.440233,0
5,2609262310000,1.92,6.78,2.8330324,0
5,2609312237000,1.73,5.67,2.2609777,0
5,2609362316000,0.11,6.78,4.7535014,0
5,2609412243000,-0.23,7.44,5.325556,0
5,2609462231000,-0.23,7.44,4.6036777,0
5,2609512279000,-0.3,7.93,6.742072,0
5,2609562298000,2.83,7.08,6.8237944,0
5,2609612286000,0.99,17.73,4.5628166,0
5,2609662304000,-2.3,6.36,1.920469,0
5,2609712261000,1.08,9.34,-1.1168685,0
5,2609762279000,2.34,12.03,0.040861044,0
5,2609812237000,1.57,8.28,2.3426998,0
5,2609862286000,-0.46,8.96,0.040861044,0
5,2609912273000,2.3,9.15,0.95342433,0
5,2609962261000,3.26,8.01,2.070293,0
5,2610012218000,3.26,7.86,2.6423476,0
5,2610062298000,2.49,6.28,1.8387469,0
5,2610112255000,1.27,6.55,2.7649305,0
5,2610172344000,3.02,9.0,4.7535014,0
5,2610222271000,1.31,6.97,3.1054392,0
5,2610272289000,-1.88,5.6,1.1441092,0
5,2610322247000,0.84,14.63,4.7126403,0
5,2610372265000,-1.33,18.31,10.841797,0
5,2610422253000,1.61,9.77,6.1700177,0
5,2610472271000,1.31,5.41,2.3426998,0
5,2610522228000,-0.11,3.41,1.7570249,0
5,2610572308000,0.95,1.42,2.7240696,0
5,2610622234000,2.49,3.87,0.7218784,0
5,2610672314000,-1.18,13.29,1.607201,0
5,2610722240000,-5.52,7.27,3.486809,0
5,2610772289000,3.83,17.31,1.0351465,0
5,2610822247000,6.7,16.02,5.2165933,0
5,2610872295000,5.37,8.96,3.1054392,0
5,2610922222000,-2.34,10.53,-0.10896278,0
5,2610972271000,1.38,11.5,1.6889231,0
5,2611022228000,2.72,6.51,0.53119355,0
5,2611072277000,0.11,8.39,2.152015,0
5,2611122143000,1.84,8.39,2.152015,0
5,2611172283000,3.83,5.28,0.46309182,0
5,2611172283000,3.83,5.28,0.46309182,0
5,2611272259000,5.28,8.62,2.3699405,0
5,2611322308000,2.18,9.66,1.4573772,0
5,2611322308000,2.18,9.66,1.4573772,0
5,2611382275000,-1.92,15.09,5.6660647,0
5,2611482250000,4.21,9.77,5.47538,0
5,2611482250000,4.21,9.77,5.47538,0
5,2611582226000,-0.34,2.83,2.0294318,0
5,2611582226000,-0.34,2.83,2.0294318,0
5,2611632244000,0.27,3.49,2.1792557,0
5,2611682201000,0.93,2.96,0.61291564,0
5,2611782207000,0.23,9.34,3.6774938,0
5,2611782207000,0.23,9.34,3.6774938,0
5,2611832287000,-3.72,14.41,2.3426998,0
5,2611882214000,3.06,11.99,3.990762,0
5,2611932262000,6.51,12.34,2.1111538,0
5,2612032207000,1.04,9.89,1.9885708,0
5,2612032207000,1.04,9.89,1.9885708,0
5,2612082256000,2.49,6.24,1.2258313,0
5,2612132244000,-0.08,6.21,1.334794,0
5,2612182659000,0.19,6.09,1.4165162,0
5,2612282268000,5.05,7.12,0.84446156,0
5,2612282268000,5.05,7.12,0.84446156,0
5,2612332287000,1.69,14.41,6.8237944,0
5,2612432232000,1.33,10.69,10.310603,0
5,2612432232000,1.33,10.69,10.310603,0
5,2612482281000,1.46,7.35,4.8216033,0
5,2612532207000,-1.18,5.33,2.7649305,0
5,2612632244000,2.41,5.67,3.255263,0
5,2612632244000,2.41,5.67,3.255263,0
5,2612732220000,0.31,8.39,2.8330324,0
5,2612732220000,0.31,8.39,2.8330324,0
5,2612782268000,1.73,7.01,4.1814466,0
5,2612882244000,-0.42,17.47,-0.84446156,0
5,2612882244000,-0.42,17.47,-0.84446156,0
5,2612932262000,6.44,16.32,4.903325,0
5,2613032238000,-0.5,10.53,0.9942854,0
5,2613032238000,-0.5,10.53,0.9942854,0
5,2613082256000,1.84,11.6,1.607201,0
5,2613132244000,1.33,6.44,1.4573772,0
5,2613182232000,-0.19,7.7,2.4925237,0
5,2613282238000,-0.76,3.6,1.6480621,0
5,2613282238000,-0.76,3.6,1.6480621,0
5,2613332287000,4.86,7.46,2.3018389,0
5,2613432262000,-1.14,13.8,4.944186,0
5,2613432262000,-1.14,13.8,4.944186,0
5,2613482250000,0.15,13.67,12.067628,0
5,2613532268000,3.17,10.65,8.19945,0
5,2613582256000,2.49,7.44,5.284695,0
5,2613682201000,-0.23,4.52,2.3426998,0
5,2613682201000,-0.23,4.52,2.3426998,0
5,2613732250000,-0.15,4.6,1.9477097,0
5,2613782207000,0.65,10.92,4.5628166,0
5,2613832409000,-0.57,12.15,5.366417,0
5,2613882244000,1.23,7.21,3.0645783,0
5,2613932232000,0.93,6.24,2.2201166,0
5,2613982250000,0.76,5.43,2.070293,0
5,2614082256000,0.15,10.73,4.4810944,0
5,2614082256000,0.15,10.73,4.4810944,0
5,2614132275000,0.57,6.89,1.0351465,0
5,2614232250000,5.41,15.51,5.8567495,0
5,2614232250000,5.41,15.51,5.8567495,0
5,2614282238000,2.76,9.47,1.1168685,0
5,2614382275000,1.23,6.59,1.1849703,0
5,2614382275000,1.23,6.59,1.1849703,0
5,2614482220000,1.33,6.51,2.982856,0
5,2614482220000,1.33,6.51,2.982856,0
5,2614532268000,3.3,7.25,2.4925237,0
5,2614632214000,-2.11,16.47,7.4639506,0
5,2614632214000,-2.11,16.47,7.4639506,0
5,2614682232000,-1.14,10.31,8.62168,0
5,2614782268000,1.76,6.63,5.243834,0
5,2614782268000,1.76,6.63,5.243834,0
5,2614832287000,0.42,5.09,3.336985,0
5,2614882244000,0.23,2.53,1.334794,0
5,2614932262000,1.08,2.64,1.4165162,0
5,2615032207000,-1.18,13.48,3.9090397,0
5,2615032207000,-1.18,13.48,3.9090397,0
5,2615082256000,1.8,5.94,4.5628166,0
5,2615182232000,0.42,18.5,-1.0351465,0
5,2615182232000,0.42,18.5,-1.0351465,0
5,2615232250000,2.34,14.25,5.407278,0
5,2615282207000,4.67,13.18,2.7921712,0
5,2615332531000,1.69,7.63,1.1168685,0
5,2615432232000,2.26,6.28,1.2666923,0
5,2615432232000,2.26,6.28,1.2666923,0
5,2615482250000,1.46,5.05,1.6889231,0
5,2615582226000,6.24,7.97,-0.08172209,0
5,2615582226000,6.24,7.97,-0.08172209,0
5,2615632244000,-0.42,13.02,4.099725,0
5,2615682232000,-2.6,14.1,6.469665,0
5,2615732281000,2.07,12.07,8.894087,0
5,2615782238000,0.57,8.24,5.597963,0
5,2615832287000,-0.11,4.94,2.9556155,0
5,2615932262000,-0.91,3.17,1.4573772,0
5,2615932262000,-0.91,3.17,1.4573772,0
5,2615982250000,-1.14,5.79,3.336985,0
5,2616032207000,1.46,17.24,5.09401,0
5,2616082256000,-2.49,10.65,5.012288,0
5,2616132214000,-1.53,15.21,-2.1383946,0
5,2616182262000,6.17,17.58,-1.879608,0
5,2616232250000,-2.41,11.8,1.7570249,0
5,2616332287000,4.82,9.19,-1.2666923,0
5,2616332287000,4.82,9.19,-1.2666923,0
5,2616432262000,5.56,4.37,-0.46309182,0
5,2616432262000,5.56,4.37,1.334794,0
5,2616532207000,3.79,13.06,1.7570249,0
5,2616532207000,3.79,13.06,1.7570249,0
5,2616632214000,-2.53,15.24,-0.7627395,0
5,2616632214000,-2.53,15.24,-0.7627395,0
5,2616682323000,-4.4,12.6,0.9942854,0
5,2616782330000,-2.72,12.6,0.9942854,0
5,2616782330000,-2.72,12.6,0.9942854,0
5,2616842388000,1.95,8.01,1.920469,0
5,2616892376000,0.99,4.99,2.5606253,0
5,2616942303000,-0.04,6.28,4.2086873,0
5,2616992321000,1.65,6.97,6.6331096,0
5,2617052257000,0.23,4.52,4.399372,0
5,2617102215000,1.23,17.73,5.6252036,0
5,2617152264000,-1.57,5.28,-1.2666923,0
5,2617202221000,0.53,8.69,-2.5333846,0
5,2617252270000,2.37,14.06,2.3426998,0
5,2617302257000,0.76,6.97,-0.42223078,0
5,2617352245000,0.76,10.8,-0.50395286,0
5,2617402203000,3.53,8.39,0.27240697,0
5,2617452312000,4.29,10.12,1.9477097,0
5,2617502239000,2.26,8.5,1.334794,0
5,2617552380000,3.34,9.19,0.61291564,0
5,2617602215000,4.52,8.81,-0.53119355,0
5,2617652264000,1.38,11.96,0.19068487,0
5,2617702221000,0.5,14.44,0.46309182,0
5,2617752270000,-2.83,12.22,1.4982382,0
5,2617802227000,-2.72,11.69,2.4516625,0
5,2617852428000,2.56,10.38,2.5606253,0
5,2617902233000,1.76,5.01,1.1168685,0
5,2617952312000,0.23,4.56,2.4516625,0
5,2618002239000,0.84,6.59,4.3312707,0
5,2618002239000,0.84,6.59,4.3312707,0
5,2618092419000,0.84,5.43,1.6889231,0
5,2618143475000,-0.61,7.67,1.5390993,0
5,2618192303000,-0.91,7.35,2.6014864,0
5,2618242351000,-0.19,9.23,2.6832085,0
5,2618292278000,-1.65,8.96,2.8738933,0
5,2618342358000,1.23,15.94,-0.6537767,0
5,2618402233000,1.73,10.76,2.4516625,0
5,2618452221000,9.38,13.25,2.6014864,0
5,2618502270000,0.08,8.58,0.23154591,0
5,2618552227000,-0.57,7.16,0.6946377,0
5,2618602306000,1.18,4.6,0.313268,0
5,2618652203000,2.18,5.63,1.6889231,0
5,2618702312000,-0.23,6.36,2.8330324,0
5,2618752239000,3.68,7.82,2.7649305,0
5,2618802319000,3.79,8.24,0.040861044,0
5,2618852245000,-4.48,18.54,7.8180795,0
5,2618902294000,0.72,12.72,9.384419,0
5,2618952251000,2.3,9.28,5.597963,0
5,2619002300000,-1.27,7.67,4.0180025,0
5,2619052471000,-1.42,5.43,2.6014864,0
5,2619102306000,0.27,2.3,1.56634,0
5,2619152203000,2.3,1.57,-0.29964766,0
5,2619202282000,0.46,6.78,1.5390993,0
5,2619252209000,0.8,9.43,2.4516625,0
5,2619302288000,-1.31,8.05,3.255263,0
5,2619352245000,-0.91,18.12,0.42223078,0
5,2619402264000,8.54,17.16,5.5162406,0
5,2619452251000,2.15,9.3,1.920469,0
5,2619502270000,-0.72,9.0,0.50395286,0
5,2619552227000,1.46,7.97,2.982856,0
5,2619602276000,2.83,5.48,1.7297841,0
5,2619652203000,1.14,6.13,2.5606253,0
5,2619702312000,2.76,5.83,1.9885708,0
5,2619752239000,8.12,6.13,1.9477097,0
5,2619802319000,3.15,9.81,2.9147544,0
5,2619852245000,-3.95,16.02,5.6252036,0
5,2619902294000,0.8,11.8,9.847511,0
5,2619952251000,0.23,11.35,7.082581,0
5,2620002270000,0.57,7.31,3.759216,0
5,2620052257000,0.38,4.02,1.7297841,0
5,2620102306000,-0.19,3.17,2.7240696,0
5,2620152477000,0.65,3.3,0.7627395,0
5,2620202282000,-0.38,10.42,2.6423476,0
5,2620252239000,0.19,9.85,2.8330324,0
5,2620302288000,-1.8,8.81,4.2495484,0
5,2620352245000,0.38,16.36,-2.070293,0
5,2620402325000,5.67,16.02,1.9885708,0
5,2620452251000,6.66,9.19,1.5390993,0
5,2620502300000,4.71,7.63,0.10896278,0
5,2620552227000,1.27,9.96,0.08172209,0
5,2620602306000,-0.95,8.77,2.1111538,0
5,2620652233000,3.49,8.5,0.88532263,0
5,2620702312000,7.21,7.25,-0.19068487,0
5,2620752239000,4.29,5.48,1.920469,0
5,2620802319000,5.71,8.69,2.4108016,0
5,2620852245000,3.95,7.35,2.1111538,0
5,2620902294000,3.45,7.12,0.61291564,0
5,2620952251000,2.3,7.78,1.4982382,0
5,2621002300000,0.99,10.46,1.6480621,0
5,2621052502000,-1.18,13.4,5.053149,0
5,2621102306000,0.31,12.53,7.7772183,0
5,2621152233000,1.33,10.99,6.4424243,0
5,2621202312000,3.02,6.21,3.173541,0
5,2621252209000,-0.08,3.91,1.7570249,0
5,2621302288000,0.19,2.11,3.0237172,0
5,2621352276000,2.07,3.68,-0.46309182,0
5,2621402264000,0.08,11.03,0.7218784,0
5,2621452251000,-2.37,8.24,5.175732,0
5,2621502270000,-0.89,18.12,-3.568531,0
5,2621552257000,7.82,18.16,5.5162406,0
5,2621602306000,0.27,6.59,1.6480621,0
5,2621652233000,1.88,9.51,2.3426998,0
5,2621702312000,3.99,7.59,2.5333846,0
5,2621752209000,-1.23,5.43,2.6014864,0
5,2621802319000,1.08,5.52,1.8387469,0
5,2621852520000,2.83,7.7,2.9147544,0
5,2621912456000,4.52,8.08,-0.040861044,0
5,2621962261000,-2.72,17.43,6.2108784,0
5,2622012249000,-2.68,10.92,8.539958,0
5,2622072277000,2.26,8.89,4.5628166,0
5,2622122234000,0.65,4.48,2.1792557,0
5,2622172283000,-0.04,0.72,0.95342433,0
5,2622222210000,0.57,4.67,1.9885708,0
5,2622272289000,1.46,14.1,1.4982382,0
5,2622322460000,-1.73,6.7,2.1792557,0
5,2622322460000,-1.73,6.7,2.1792557,0
5,2622422222000,12.11,17.69,6.5922484,0
5,2622472332000,0.38,8.24,0.88532263,0
5,2622472332000,0.38,8.24,0.88532263,0
5,2622582226000,2.72,9.04,1.7297841,0
5,2622582226000,2.72,9.04,1.7297841,0
5,2622682232000,2.07,6.59,0.9942854,0
5,2622682232000,2.07,6.59,0.9942854,0
5,2622832134000,1.33,9.51,2.0294318,0
5,2622832134000,1.33,9.51,2.0294318,0
5,2622882275000,-2.91,15.43,5.829509,0
5,2622932323000,4.33,9.43,8.049625,0
5,2622982311000,-0.27,13.53,8.580819,0
5,2622982311000,-0.27,13.53,8.580819,0
5,2623042309000,1.27,7.16,4.140586,0
5,2623092266000,1.12,4.18,2.4108016,0
5,2623142315000,0.89,3.83,3.0237172,0
5,2623192272000,0.53,2.79,0.6946377,0
5,2623242290000,0.8,10.61,2.2609777,0
5,2623292278000,0.84,7.44,3.8681788,0
5,2623342571000,-3.26,10.5,1.9477097,0
5,2623392284000,6.21,11.92,-0.42223078,0
5,2623442333000,4.67,15.89,4.7535014,0
5,2623492260000,3.87,9.81,1.2258313,0
5,2623542278000,-1.65,8.69,-0.38136974,0
5,2623592266000,0.19,10.15,-0.040861044,0
5,2623642315000,1.88,6.17,0.5720546,0
5,2623692272000,3.11,4.75,1.7570249,0
5,2623742260000,4.94,7.46,2.1792557,0
5,2623792278000,4.75,6.4,2.7240696,0
5,2623842297000,6.32,7.27,2.070293,0
5,2623892284000,-2.83,17.77,5.175732,0
5,2623942333000,-1.57,15.55,3.445948,0
5,2623992260000,1.65,13.99,8.281172,0
5,2624042309000,6.89,8.47,4.630918,0
5,2624092266000,0.15,4.67,1.9477097,0
5,2624142315000,-0.42,2.83,1.3756552,0
5,2624192272000,-0.8,2.64,2.9147544,0
5,2624242290000,2.15,13.38,4.2904096,0
5,2624292278000,-2.96,10.61,10.337844,0
5,2624342297000,-0.69,17.86,-0.6537767,0
5,2624392315000,2.72,6.36,0.92618364,0
5,2624442303000,-5.52,3.17,-2.4108016,0
5,2624492260000,7.82,15.36,0.27240697,0
5,2624542278000,0.19,5.09,0.38136974,0
5,2624592266000,0.57,11.03,-1.525479,0
5,2624642315000,5.13,8.92,1.0760075,0
5,2624692242000,3.99,9.53,1.0760075,0
5,2624742290000,2.72,9.58,1.4573772,0
5,2624792278000,3.76,8.12,-0.7218784,0
5,2624842388000,1.27,11.3,-0.29964766,0
5,2624892284000,-2.14,16.74,-0.08172209,0
5,2624942272000,1.38,11.07,-1.4165162,0
5,2624992260000,-2.83,8.85,-0.08172209,0
5,2625042309000,-2.53,11.3,-1.1441092,0
5,2625092266000,-0.5,10.61,1.3075534,0
5,2625142315000,1.38,8.35,2.7240696,0
5,2625192272000,1.23,6.09,2.152015,0
5,2625242382000,-0.61,5.43,2.2609777,0
5,2625292309000,-1.18,6.51,5.284695,0
5,2625342327000,2.64,7.46,6.238119,0
5,2625392284000,0.04,8.58,6.2108784,0
5,2625442272000,0.34,16.02,5.9793324,0
5,2625492260000,0.19,6.59,-0.88532263,0
5,2625542278000,0.19,10.5,-0.14982383,0
5,2625592297000,3.76,12.57,-0.0,0
5,2625642284000,1.31,7.31,0.9942854,0
5,2625692272000,-0.57,10.73,-1.1168685,0
5,2625742260000,2.96,8.77,-0.3405087,0
5,2625792278000,4.6,9.19,1.0760075,0
5,2625842266000,4.06,9.0,1.607201,0
5,2625892284000,3.45,9.72,0.61291564,0
5,2625942272000,3.06,10.23,0.42223078,0
5,2625992260000,0.61,12.34,0.7218784,0
5,2626042339000,0.38,13.1,-0.53119355,0
5,2626092266000,-3.34,11.56,0.5720546,0
5,2626142376000,-1.53,12.18,2.152015,0
5,2626192272000,3.21,8.05,2.0294318,0
5,2626242290000,1.88,4.82,2.6014864,0
5,2626292309000,0.53,5.79,3.405087,0
5,2626342266000,0.23,6.78,4.099725,0
5,2626392284000,1.42,6.13,3.5957718,0
5,2626442272000,1.88,7.86,2.8330324,0
5,2626492260000,0.57,8.12,3.5276701,0
5,2626542278000,-0.53,7.55,3.7864566,0
5,2626592266000,0.15,6.85,2.4925237,0
5,2626642284000,-0.38,7.67,3.9499009,0
5,2626692272000,-0.61,8.35,3.1054392,0
5,2626742260000,1.33,15.75,-0.040861044,0
5,2626792278000,2.87,14.44,2.3426998,0
5,2626842266000,4.02,13.38,3.405087,0
5,2626892284000,-0.8,8.08,1.1441092,0
5,2626942272000,0.61,8.62,1.4165162,0
5,2626992260000,2.49,5.22,1.6889231,0
5,2627042278000,0.84,5.9,2.152015,0
5,2627092266000,2.37,6.51,2.5606253,0
5,2627142315000,6.24,7.55,2.6014864,0
5,2627192272000,2.53,9.51,0.23154591,0
5,2627242260000,-5.98,16.13,6.1700177,0
5,2627292278000,3.02,12.72,8.308413,0
5,2627342266000,3.26,12.91,7.3141265,0
5,2627392284000,1.88,5.71,4.5219555,0
5,2627442303000,0.19,2.15,0.9942854,0
5,2627492290000,0.89,1.04,1.4982382,0
5,2627542278000,0.99,0.53,2.6014864,0
5,2627592266000,3.72,8.47,1.5390993,0
5,2627642315000,-5.48,12.72,1.1849703,0
5,2627692272000,-1.99,17.77,2.3699405,0
5,2627742290000,9.47,17.43,4.8216033,0
5,2627792278000,4.52,8.2,2.7921712,0
5,2627862347000,-0.57,11.26,0.7627395,0
5,2627912243000,1.76,6.02,1.1441092,0
5,2627962322000,1.23,6.36,1.1168685,0
5,2628022259000,-0.04,4.37,2.2609777,0
5,2628072247000,4.18,7.7,2.9556155,0
5,2628122265000,4.44,6.59,1.1849703,0
5,2628172283000,-0.84,15.79,5.47538,0
5,2628222301000,1.38,10.8,7.246025,0
5,2628272259000,4.48,12.18,10.760075,0
5,2628322308000,2.45,6.82,4.5219555,0
5,2628372204000,-0.15,4.4,1.6889231,0
5,2628422314000,-0.76,1.23,0.50395286,0
5,2628472210000,-0.15,1.65,1.0760075,0
5,2628522259000,1.31,9.89,-0.0,0
5,2628572216000,-2.11,10.46,4.440233,0
5,2628622265000,-5.98,14.79,0.27240697,0
5,2628672253000,7.46,16.7,4.3312707,0
5,2628722301000,7.78,10.88,3.568531,0
5,2628772259000,-0.27,13.33,2.2201166,0
5,2628772259000,-0.27,13.33,2.2201166,0
5,2628772259000,-0.27,13.33,2.2201166,0
5,2628922222000,1.12,3.49,1.5390993,0
5,2628972393000,-0.61,0.34,1.0351465,0
5,2629022198000,3.26,7.16,2.4108016,0
5,2629072277000,7.59,9.3,2.3018389,0
5,2629122234000,2.45,16.59,8.349273,0
5,2629172283000,-1.38,16.25,13.375181,0
5,2629222210000,3.02,7.86,5.7886477,0
5,2629272259000,1.73,6.51,1.9885708,0
5,2629322216000,-2.03,2.49,1.1849703,0
5,2629372265000,-0.23,1.33,1.1168685,0
5,2629422253000,3.17,3.79,1.7570249,0
5,2629472271000,0.04,13.57,1.9477097,0
5,2629522228000,-7.31,10.08,5.366417,0
5,2629572277000,4.37,16.13,-0.8036005,0
5,2629622265000,8.2,17.31,3.336985,0
5,2629672283000,3.95,11.14,2.6423476,0
5,2629722240000,-2.03,9.43,0.23154591,0
5,2629772259000,0.19,7.93,-0.0,0
5,2629822308000,2.26,3.53,0.5720546,0
5,2629872295000,2.87,3.26,3.214402,0
5,2629922222000,2.83,5.75,3.214402,0
5,2629972271000,2.37,7.59,2.4925237,0
5,2630022228000,2.07,15.79,4.140586,0
5,2630072277000,-3.45,18.16,11.032481,0
5,2630122204000,1.38,13.06,6.742072,0
5,2630172283000,2.87,6.97,3.990762,0
5,2630222240000,-1.53,4.99,1.8387469,0
5,2630272228000,-1.88,1.8,0.88532263,0
5,2630322216000,1.08,2.26,0.08172209,0
5,2630372326000,1.42,13.38,3.255263,0
5,2630422222000,0.46,5.01,4.0180025,0
5,2630472271000,-5.63,8.73,0.23154591,0
5,2630522198000,2.98,14.63,1.2666923,0
5,2630572308000,11.84,13.63,3.6774938,0
5,2630622204000,2.26,13.91,2.2201166,0
5,2630672283000,-0.76,10.84,1.8387469,0
5,2630722210000,1.38,6.74,1.3756552,0
5,2630772289000,0.34,7.01,0.92618364,0
5,2630822216000,2.26,4.4,1.2258313,0
5,2630872265000,2.79,5.52,1.2666923,0
5,2630922253000,2.15,5.37,1.9885708,0
5,2630972301000,4.9,9.47,1.7978859,0
5,2631022228000,-0.91,12.68,4.7126403,0
5,2631072277000,3.06,15.02,8.962189,0
5,2631122234000,-3.83,12.6,7.8861814,0
5,2631172283000,1.8,8.77,4.903325,0
5,2631222240000,0.34,5.67,2.8330324,0
5,2631272259000,-1.38,3.6,1.879608,0
5,2631322216000,0.15,2.22,1.9477097,0
5,2631372295000,3.53,5.75,1.3756552,0
5,2631422283000,2.03,10.53,2.2609777,0
5,2631472271000,-0.72,6.02,2.2201166,0
5,2631522228000,-3.87,16.28,1.56634,0
5,2631572308000,6.02,16.02,2.1792557,0
5,2631622234000,7.74,15.02,3.336985,0
5,2631672283000,0.95,10.0,2.1792557,0
5,2631722240000,1.31,7.08,-0.0,0
5,2631772259000,1.95,6.89,0.88532263,0
5,2631822216000,0.5,4.82,-0.27240697,0
5,2631872265000,1.73,4.67,0.92618364,0
5,2631922222000,2.34,7.46,2.3426998,0
5,2631972301000,0.84,8.92,1.6480621,0
5,2632022198000,-1.46,14.75,6.1291566,0
5,2632072277000,3.34,14.6,12.871228,0
5,2632122204000,1.12,9.81,7.3549876,0
5,2632172405000,0.89,4.02,2.4108016,0
5,2632222271000,-1.57,2.15,2.1792557,0
5,2632272259000,-0.46,2.22,1.0760075,0
5,2632322247000,-0.3,4.33,3.336985,0
5,2632372295000,3.34,15.43,4.099725,0
5,2632422253000,-5.33,17.16,2.4516625,0
5,2632472271000,3.38,13.95,-4.399372,0
5,2632522228000,3.38,15.66,2.152015,0
5,2632572277000,-1.73,11.8,-0.14982383,0
5,2632622234000,3.87,10.95,-1.1441092,0
5,2632672283000,1.95,6.89,0.5720546,0
5,2632722210000,0.61,9.08,-2.070293,0
5,2632772259000,4.14,8.89,0.92618364,0
5,2632822277000,4.44,10.08,-0.19068487,0
5,2632872295000,5.48,11.69,-0.6946377,0
5,2632922222000,3.15,12.03,-0.7218784,0
5,2632972301000,3.41,13.02,-1.4982382,0
5,2633022228000,1.23,11.37,-1.1168685,0
5,2633022228000,1.23,11.37,-1.1168685,0
5,2633102428000,2.53,10.31,0.313268,0
5,2633152142000,1.14,8.47,5.053149,0
5,2633202251000,0.19,11.5,-1.607201,0
5,2633252239000,6.05,12.95,1.1441092,0
5,2633302349000,2.91,11.56,8.008764,0
5,2633362713000,5.71,12.49,-5.47538,0
5,2633412243000,5.86,7.4,-2.3018389,0
5,2633462261000,1.61,6.32,2.1792557,0
5,2633512218000,-0.42,5.98,0.53119355,0
5,2633562328000,-0.84,6.44,0.6946377,0
5,2633612286000,8.85,6.28,8.471856,0
5,2633662304000,-2.3,7.7,5.2165933,0
5,2633712231000,0.76,8.05,4.3312707,0
5,2659882275000,1.61,10.19,0.8036005,4
5,2659932262000,6.74,13.99,2.2201166,4
5,2659982220000,2.98,10.95,1.3075534,4
5,2660032299000,0.72,10.92,1.1441092,4
5,2660082226000,-0.27,10.76,0.3405087,4
5,2660132305000,1.92,10.08,-1.56634,4
5,2660182262000,5.41,8.47,1.7570249,4
5,2660232281000,2.56,9.81,0.6946377,4
5,2660282207000,2.15,10.38,0.53119355,4
5,2660332317000,1.92,8.96,0.040861044,4
5,2660382244000,1.08,10.5,0.7218784,4
5,2660432323000,1.27,10.46,0.50395286,4
5,2660482250000,1.42,9.08,-0.29964766,4
5,2660532299000,0.99,8.5,-1.1168685,4
5,2660592388000,1.5,9.66,0.42223078,4
5,2660642254000,1.88,11.84,0.7627395,4
5,2660692333000,2.79,13.59,0.08172209,4
5,2660752270000,1.8,13.53,1.7978859,4
5,2660752270000,1.8,13.53,1.7978859,4
5,2660862194000,3.45,11.22,1.6480621,4
5,2660862194000,3.45,11.22,1.6480621,4
5,2660962200000,0.11,9.89,-0.61291564,4
5,2660962200000,0.11,9.89,-0.61291564,4
5,2661012279000,0.19,8.43,0.6946377,4
5,2661072308000,0.34,5.24,0.040861044,4
5,2661132244000,0.31,5.22,1.2666923,4
5,2661182201000,0.93,7.25,3.636633,4
5,2661232281000,2.76,7.63,5.134871,4
5,2661282238000,4.48,8.39,7.9679036,4
5,2661332317000,4.1,11.3,7.1234417,4
5,2661382244000,1.57,14.82,4.099725,4
5,2661432293000,-0.95,3.57,2.1111538,4
5,2661482220000,1.99,10.95,1.7978859,4
5,2661532299000,5.43,11.84,1.4573772,4
5,2661582226000,2.72,5.63,0.61291564,4
5,2661632305000,0.95,7.08,-0.8036005,4
5,2661682232000,0.31,7.44,0.6537767,4
5,2661732281000,-0.34,7.31,0.50395286,4
5,2661782207000,1.46,10.04,2.152015,4
5,2661832317000,3.3,11.84,1.5390993,4
5,2661882244000,1.88,13.18,1.8387469,4
5,2661932293000,2.37,16.66,1.607201,4
5,2661982220000,-1.27,12.91,2.7921712,4
5,2662032268000,1.57,12.41,1.7570249,4
5,2662082256000,1.76,11.41,-0.10896278,4
5,2662132305000,-2.64,8.16,-2.3426998,4
5,2662182232000,-1.95,5.24,-0.53119355,4
5,2662182232000,-1.95,5.24,-0.53119355,4
5,2662282146000,-0.19,5.41,2.3699405,4
5,2662332287000,1.23,7.67,4.7126403,4
5,2662382275000,5.05,8.08,7.0553403,4
5,2662432232000,2.6,5.71,6.973618,4
5,2662482281000,4.63,16.47,4.8216033,4
5,2662532207000,-1.88,4.79,2.6423476,4
5,2662582287000,0.08,6.7,0.38136974,4
5,2662632214000,6.17,14.98,1.3075534,4
5,2662682262000,2.18,6.17,1.4573772,4
5,2662732220000,1.5,5.83,-0.53119355,4
5,2662782299000,0.15,7.89,0.88532263,4
5,2662832287000,1.84,8.77,0.92618364,4
5,2662882275000,0.57,9.53,0.92618364,4
5,2662932201000,2.56,10.8,1.7978859,4
5,2662982311000,2.91,12.87,2.4925237,4
5,2663032207000,1.14,14.56,1.2666923,4
5,2663082317000,0.15,14.48,1.9885708,4
5,2663132214000,1.54,11.37,2.3426998,4
5,2663182293000,1.57,11.99,-0.19068487,4
5,2663232250000,-0.04,9.34,-1.0760075,4
5,2663282268000,-0.53,6.63,0.10896278,4
5,2663332226000,1.14,6.63,1.2666923,4
5,2663382275000,0.53,6.55,1.9885708,4
5,2663432201000,0.46,6.55,3.173541,4
5,2663482311000,2.34,7.27,5.09401,4
5,2663532238000,3.99,6.44,6.1700177,4
5,2663582317000,5.86,9.0,8.430995,4
5,2663632214000,-1.08,12.22,3.568531,4
5,2663682262000,0.19,9.19,2.4516625,4
5,2663732220000,1.8,7.7,0.9942854,4
5,2663782268000,2.53,11.18,1.1849703,4
5,2663832256000,1.95,6.82,1.879608,4
5,2663882275000,1.69,7.82,0.23154591,4
5,2663932201000,1.84,7.55,0.5720546,4
5,2663932201000,1.84,7.55,0.5720546,4
5,2664032299000,1.08,9.43,0.5720546,4
5,2664085033000,2.03,9.47,1.1441092,4
5,2664142254000,3.49,8.92,0.7218784,4
5,2664192242000,1.61,10.46,0.84446156,4
5,2664242321000,1.14,13.18,0.9942854,4
5,2664302319000,0.95,15.02,-1.3756552,4
5,2664352215000,-1.23,13.1,1.0760075,4
5,2664402264000,0.53,11.73,2.152015,4
5,2664452221000,0.61,11.69,-0.27240697,4
5,2664502270000,0.8,9.53,-1.3075534,4
5,2664552257000,0.69,8.5,0.6946377,4
5,2664602276000,1.38,8.05,2.3699405,4
5,2664652233000,1.04,7.67,1.334794,4
5,2664702282000,-0.08,5.43,1.4573772,4
5,2664752209000,1.57,6.66,3.255263,4
5,2664802288000,1.76,5.98,4.1814466,4
5,2664852215000,2.03,6.05,4.7943625,4
5,2664908001000,4.21,7.5,8.499097,4
5,2664962231000,1.04,12.68,7.6273947,4
5,2665012249000,1.08,8.73,4.440233,4
5,2665012249000,1.08,8.73,4.440233,4
5,2665112255000,3.06,11.73,0.53119355,4
5,2665112255000,3.06,11.73,0.53119355,4
5,2665212261000,2.6,7.78,0.9942854,4
5,2665262249000,-0.5,7.78,-0.0,4
5,2665312206000,3.02,9.38,1.334794,4
5,2665312206000,3.02,9.38,1.334794,4
5,2665412212000,1.73,9.15,0.50395286,4
5,2665412212000,1.73,9.15,0.50395286,4
5,2665512218000,1.61,9.7,-0.08172209,4
5,2665562237000,1.23,9.53,-0.14982383,4
5,2665612255000,1.95,12.37,0.42223078,4
5,2665662243000,3.34,12.87,-0.7627395,4
5,2665712261000,-0.76,16.7,0.7218784,4
5,2665712261000,-0.76,16.7,0.7218784,4
5,2665812237000,0.19,11.65,0.7218784,4
5,2665862286000,0.42,10.46,-0.29964766,4
5,2665912395000,-1.27,8.12,-0.27240697,4
5,2665912395000,-1.27,8.12,-0.27240697,4
5,2666012279000,1.42,5.79,2.152015,4
5,2666012279000,1.42,5.79,2.152015,4
5,2666062298000,0.8,6.44,3.445948,4
5,2666122295000,2.18,5.71,3.6774938,4
5,2666172283000,1.69,5.98,6.1700177,4
5,2666222301000,3.95,6.85,7.8589406,4
5,2666272259000,3.53,17.88,6.851035,4
5,2666322308000,-1.65,1.04,2.152015,4
5,2666372265000,1.8,6.85,0.53119355,4
5,2666422436000,5.63,14.63,1.7297841,4
5,2666472271000,3.99,8.05,1.56634,4
5,2666522289000,1.76,6.59,-0.23154591,4
5,2666572277000,-1.31,8.31,1.2666923,4
5,2666622295000,2.37,8.73,1.4573772,4
5,2666672253000,0.95,8.73,0.313268,4
5,2666722271000,0.84,9.58,-0.040861044,4
5,2666772259000,0.8,9.62,0.040861044,4
5,2666822308000,1.84,9.08,-0.10896278,4
5,2666872265000,2.96,11.6,1.4982382,4
5,2666922283000,2.68,15.6,-0.0,4
5,2666972271000,-0.8,15.85,0.53119355,4
5,2667022259000,0.42,11.03,1.607201,4
5,2667072277000,0.15,12.34,1.1168685,4
5,2667122295000,-0.15,11.45,-1.4165162,4
5,2667172283000,-0.38,9.0,-0.50395286,4
5,2667222271000,-0.19,6.85,0.9942854,4
5,2667272259000,1.76,6.93,1.334794,4
5,2667322308000,0.8,6.09,2.3699405,4
5,2667372265000,1.73,7.44,3.8681788,4
5,2667422344000,2.34,6.4,4.2086873,4
5,2667482311000,4.14,6.32,8.008764,4
5,2667532238000,1.46,10.69,4.0588636,4
5,2667582348000,1.42,13.33,3.336985,4
5,2667632244000,-0.15,4.56,0.8036005,4
5,2667682293000,3.87,12.07,1.0760075,4
5,2667732250000,4.67,9.89,1.9885708,4
5,2667782299000,3.02,6.89,1.7297841,4
5,2667832256000,1.54,7.74,0.53119355,4
5,2667882275000,1.31,8.39,1.2666923,4
5,2667932415000,1.57,8.31,0.88532263,4
5,2667982311000,1.61,9.04,0.92618364,4
5,2668032207000,0.69,10.0,0.08172209,4
5,2668082287000,0.69,8.62,-0.38136974,4
5,2668132214000,1.65,10.69,0.6537767,4
5,2668182293000,2.72,13.38,-0.7627395,4
5,2668232220000,-1.53,15.02,-1.7297841,4
5,2668282299000,0.89,13.48,1.6480621,4
5,2668332256000,5.56,12.83,4.0588636,4
5,2668382275000,5.9,9.58,1.4165162,4
5,2668432201000,1.95,10.34,-1.0760075,4
5,2668482311000,0.8,7.5,-0.08172209,4
5,2668532238000,1.08,7.4,-0.50395286,4
5,2668582317000,0.53,8.43,1.4573772,4
5,2668632214000,0.53,6.47,0.27240697,4
5,2668682384000,1.38,6.55,-0.50395286,4
5,2668732250000,0.08,5.94,0.50395286,4
5,2668782299000,1.27,6.93,4.5628166,4
5,2668832256000,7.25,13.57,8.499097,4
5,2668882275000,0.19,14.67,4.671779,4
5,2668952312000,-3.6,12.72,-0.08172209,4
5,2669002270000,0.0,6.02,-2.3426998,4
5,2669002270000,0.0,6.02,-2.3426998,4
5,2669072277000,-0.08,5.75,-4.2086873,4
5,2669122265000,2.26,13.21,4.630918,4
5,2669172283000,0.38,8.24,0.42223078,4
5,2669222271000,-0.34,8.2,0.23154591,4
5,2669272320000,0.23,8.85,0.08172209,4
5,2669322277000,1.08,9.04,0.8036005,4
5,2669372265000,0.93,9.89,-0.6537767,4
5,2669422283000,2.3,11.69,-0.9125633,4
5,2669472301000,4.21,13.59,-0.29964766,4
5,2669522259000,4.52,11.6,-0.23154591,4
5,2669572277000,-1.33,12.6,1.4982382,4
5,2669622265000,-1.73,14.79,1.4573772,4
5,2669672283000,-0.08,11.73,0.95342433,4
5,2669722271000,1.88,9.28,0.19068487,4
5,2669772289000,2.72,7.16,1.3756552,4
5,2669822277000,1.76,7.86,2.2609777,4
5,2669872295000,0.5,6.93,1.879608,4
5,2669932934000,1.57,5.33,3.5276701,4
5,2669982342000,3.3,7.78,7.4639506,4
5,2670032268000,1.76,4.56,7.4639506,4
5,2670082287000,9.38,16.4,6.4015636,4
5,2670132336000,-1.31,10.46,2.1111538,4
5,2670192242000,-0.46,11.8,-0.19068487,4
5,2670252300000,1.54,9.81,2.152015,4
5,2670302257000,4.48,6.32,2.070293,4
5,2670352306000,4.29,6.4,2.152015,4
5,2670402233000,3.95,8.85,2.152015,4
5,2670452282000,1.31,8.92,1.1168685,4
5,2670502209000,-0.42,8.62,0.46309182,4
5,2670552288000,0.61,9.96,0.6946377,4
5,2670602215000,1.04,10.15,0.313268,4
5,2670652264000,0.65,11.69,0.88532263,4
5,2670702221000,3.38,13.99,1.0351465,4
5,2670752270000,0.15,14.67,1.56634,4
5,2670802227000,1.61,12.26,3.0645783,4
5,2670852276000,2.79,10.95,1.0760075,4
5,2670902233000,1.04,10.38,0.08172209,4
5,2670952282000,-2.56,8.92,0.95342433,4
5,2671002270000,0.65,6.51,0.38136974,4
5,2671052288000,1.14,6.82,1.8387469,4
5,2671102245000,0.89,4.9,3.2961242,4
5,2671152294000,2.3,6.59,4.140586,4
5,2671202282000,2.91,5.75,5.5571017,4
5,2671252270000,2.96,9.62,7.273266,4
5,2671302288000,4.06,15.89,4.630918,4
5,2671352276000,0.84,5.52,2.2201166,4
5,2671402233000,-0.38,8.58,1.4573772,4
5,2671452282000,3.87,14.33,2.4108016,4
5,2671502270000,4.6,5.75,0.46309182,4
5,2671552288000,1.8,6.28,-0.040861044,4
5,2671602276000,1.76,7.4,0.27240697,4
5,2671652264000,-0.23,9.72,-0.14982383,4
5,2671702221000,0.5,10.08,0.50395286,4
5,2671752270000,1.38,9.77,0.7627395,4
5,2671802257000,3.38,12.26,1.5390993,4
5,2671852276000,2.34,14.6,1.879608,4
5,2671902233000,-0.5,15.21,2.152015,4
5,2671952282000,-0.27,13.02,1.56634,4
5,2672002209000,1.73,10.8,-0.50395286,4
5,2672052288000,0.15,10.15,-0.38136974,4
5,2672102215000,-3.41,7.82,0.7218784,4
5,2672152264000,1.88,5.09,0.08172209,4
5,2672202312000,1.61,5.24,2.7240696,4
5,2672252300000,1.76,5.05,3.8681788,4
5,2672302257000,4.52,7.55,4.903325,4
5,2672352306000,3.91,6.97,5.325556,4
5,2672402233000,1.99,11.75,7.082581,4
5,2672452282000,-0.46,12.45,2.2201166,4
5,2672502209000,-0.99,4.37,0.95342433,4
5,2672552319000,3.15,13.1,0.46309182,4
5,2672602215000,4.67,8.01,1.7978859,4
5,2672652264000,1.95,3.79,0.38136974,4
5,2672702221000,-0.27,9.85,-0.46309182,4
5,2672752270000,3.15,8.96,2.070293,4
5,2672802257000,0.65,9.51,0.313268,4
5,2672852276000,2.98,9.51,0.27240697,4
5,2672902233000,3.83,12.26,0.5720546,4
5,2672952282000,-1.31,15.98,0.46309182,4
5,2673002270000,-1.42,15.66,3.173541,4
5,2673052288000,0.19,13.29,2.7921712,4
5,2673102215000,2.03,8.54,0.7218784,4
5,2673152264000,1.12,8.05,-0.10896278,4
5,2673202251000,-2.83,6.13,-0.42223078,4
5,2673252270000,0.99,6.17,0.3405087,4
5,2673302257000,0.31,6.97,4.671779,4
5,2673352306000,5.56,7.78,4.7535014,4
5,2673402264000,4.94,8.62,8.471856,4
5,2673452312000,1.8,6.02,4.2495484,4
5,2673502209000,-0.3,15.47,2.2609777,4
5,2673552288000,-0.42,6.32,1.8387469,4
5,2673602245000,2.87,11.3,1.1441092,4
5,2673652294000,5.09,9.15,1.6480621,4
5,2673702221000,-1.38,4.63,0.88532263,4
5,2673752270000,1.61,6.36,-0.42223078,4
5,2673802227000,1.95,11.07,0.313268,4
5,2673852276000,0.15,9.38,0.7218784,4
5,2673902233000,1.95,10.19,1.3075534,4
5,2673952282000,2.15,13.99,2.2609777,4
5,2673952282000,2.15,13.99,2.2609777,4
5,2674062206000,-0.95,13.21,2.7649305,4
5,2674062206000,-0.95,13.21,2.7649305,4
5,2674112316000,-0.76,11.73,1.0351465,4
5,2674172314000,1.65,9.3,0.42223078,4
5,2674222271000,-1.73,7.63,0.38136974,4
5,2674272289000,0.04,5.41,0.6537767,4
5,2674322277000,1.08,6.32,3.1054392,4
5,2674372295000,1.65,5.33,3.0645783,4
5,2674422283000,3.15,7.44,5.5162406,4
5,2674472301000,6.21,8.47,8.281172,4
5,2674522259000,1.69,10.34,6.4015636,4
5,2674572308000,0.5,12.41,3.718355,4
5,2674622265000,-0.11,1.8,0.7218784,4
5,2674672314000,3.76,11.41,0.9942854,4
5,2674722271000,4.25,10.23,2.070293,4
5,2674772259000,0.15,4.67,0.7218784,4
5,2674822277000,-0.61,7.4,-0.29964766,4
5,2674872295000,2.98,8.47,1.4165162,4
5,2674932537000,0.99,9.0,0.14982383,4
5,2674982311000,1.33,9.08,0.92618364,4
5,2675032268000,0.95,13.59,1.0351465,4
5,2675082256000,1.14,14.75,1.2666923,4
5,2675152325000,3.76,16.4,1.6480621,4
5,2675202282000,1.5,11.18,1.9885708,4
5,2675202282000,1.5,11.18,1.9885708,4
5,2675302257000,-2.83,8.66,0.040861044,4
5,2675352337000,0.08,4.44,-2.8738933,4
5,2675412273000,1.76,5.24,1.8387469,4
5,2675462200000,0.0,5.75,3.9499009,4
5,2675462200000,0.0,5.75,3.9499009,4
5,2675562267000,5.86,10.88,9.507003,4
5,2675562267000,5.86,10.88,9.507003,4
5,2675662212000,-0.72,14.48,3.3778462,4
5,2675712292000,-0.91,3.17,1.3075534,4
5,2675762218000,2.22,10.73,0.5720546,4
5,2675762218000,2.22,10.73,0.5720546,4
5,2675862255000,0.15,6.78,0.6537767,4
5,2675862255000,0.15,6.78,0.6537767,4
5,2675962200000,0.69,5.43,1.8387469,4
5,2676012249000,0.95,7.21,0.08172209,4
5,2676062237000,0.72,10.19,-0.84446156,4
5,2676112255000,0.99,10.61,0.19068487,4
5,2676162212000,0.53,15.05,0.9942854,4
5,2676162212000,0.53,15.05,0.9942854,4
5,2676262249000,5.13,15.02,1.0351465,4
5,2676262249000,5.13,15.02,1.0351465,4
5,2676362286000,1.04,8.89,-0.19068487,4
5,2676412273000,0.93,11.18,0.84446156,4
5,2676462200000,-0.76,9.47,-4.099725,4
5,2676512279000,1.33,9.15,0.5720546,4
5,2676562206000,1.46,8.77,0.9942854,4
5,2676562206000,1.46,8.77,0.9942854,4
5,2676662212000,2.76,5.22,0.92618364,4
5,2676712231000,1.69,7.27,-0.27240697,4
5,2676762249000,-0.34,4.9,-0.6537767,4
5,2676762249000,-0.34,4.9,-0.6537767,4
5,2676862255000,5.98,16.82,9.152874,4
5,2676862255000,5.98,16.82,9.152874,4
5,2676962231000,0.95,16.82,1.879608,4
5,2677012249000,0.72,2.45,-0.53119355,4
5,2677062237000,5.67,13.06,-2.3699405,4
5,2677062237000,5.67,13.06,-2.3699405,4
5,2677162273000,0.0,8.31,2.2609777,4
5,2677162273000,0.0,8.31,2.2609777,4
5,2677262218000,0.89,8.39,0.88532263,4
5,2677312237000,-0.34,8.08,-1.607201,4
5,2677362225000,0.0,8.77,-0.08172209,4
5,2677362225000,0.0,8.77,-0.08172209,4
5,2677462231000,3.15,13.33,-0.50395286,4
5,2677512279000,6.44,14.18,0.38136974,4
5,2677562237000,3.06,8.85,-0.7218784,4
5,2677612255000,-2.75,13.33,1.3756552,4
5,2677662243000,-0.42,15.02,1.2258313,4
5,2677662243000,-0.42,15.02,1.2258313,4
5,2677762279000,1.99,11.35,0.50395286,4
5,2677762279000,1.99,11.35,0.50395286,4
5,2677862255000,-1.69,5.98,1.7297841,4
5,2677912273000,0.46,3.49,2.4925237,4
5,2677962231000,3.79,5.24,5.829509,4
5,2677962231000,3.79,5.24,5.829509,4
5,2678062237000,6.17,9.08,11.876944,4
5,2678062237000,6.17,9.08,11.876944,4
5,2678162212000,-0.27,8.39,-0.50395286,4
5,2678212261000,-1.46,12.45,-1.2666923,4
5,2678262279000,1.08,12.11,2.5606253,4
5,2678312237000,0.8,6.51,1.334794,4
5,2678362255000,2.03,6.21,1.2258313,4
5,2678362255000,2.03,6.21,1.2258313,4
5,2678462231000,2.87,8.39,2.6832085,4
5,2678462231000,2.87,8.39,2.6832085,4
5,2678562237000,0.23,11.96,1.7978859,4
5,2678612255000,1.73,14.21,2.4516625,4
5,2678662212000,2.26,14.94,2.982856,4
5,2678662212000,2.26,14.94,2.982856,4
5,2678762218000,3.64,9.11,-0.040861044,4
5,2678762218000,3.64,9.11,-0.040861044,4
5,2678862255000,-5.43,6.28,-0.9125633,4
5,2678912273000,2.49,6.24,1.4982382,4
5,2678962231000,-0.04,4.67,4.0588636,4
5,2679012249000,3.26,6.44,5.09401,4
5,2679062237000,4.86,10.34,8.962189,4
5,2679062237000,4.86,10.34,8.962189,4
5,2679162243000,-0.89,13.25,4.0180025,4
5,2679162243000,-0.89,13.25,4.0180025,4
5,2679212322000,3.87,8.31,2.7240696,4
5,2679312206000,4.4,13.14,1.2258313,4
5,2679362255000,0.53,5.71,1.6889231,4
5,2679412243000,0.31,6.05,-0.46309182,4
5,2679412243000,0.31,6.05,-0.46309182,4
5,2679512249000,0.27,9.19,1.1168685,4
5,2679512249000,0.27,9.19,1.1168685,4
5,2679612225000,2.15,12.83,0.46309182,4
5,2679612225000,2.15,12.83,0.46309182,4
5,2679712231000,-1.84,14.02,2.1792557,4
5,2679762249000,-1.38,11.41,2.3699405,4
5,2679812237000,1.69,10.08,1.4573772,4
5,2679862316000,-0.57,8.85,-1.7978859,4
5,2679862316000,-0.57,8.85,-1.7978859,4
5,2679920361000,-1.8,4.94,-1.1849703,4
5,2679920361000,-1.8,4.94,-1.1849703,4
5,2680032360000,0.38,4.79,3.214402,4
5,2680082226000,4.63,8.08,5.7886477,4
5,2680132214000,3.57,8.69,6.701211,4
5,2680190350000,-0.11,9.28,6.782933,4
5,2680252270000,1.12,12.79,3.0645783,4
5,2680302257000,0.04,6.44,2.0294318,4
5,2680352276000,2.11,12.95,0.46309182,4
5,2680402233000,0.8,6.93,1.2258313,4
5,2680452312000,1.04,6.51,0.313268,4
5,2680502209000,1.65,8.16,-0.040861044,4
5,2680552288000,0.5,9.19,0.7218784,4
5,2680602215000,-0.99,8.69,1.6889231,4
5,2680652264000,4.33,12.15,2.7649305,4
5,2680702221000,2.41,17.16,2.3426998,4
5,2680752270000,1.46,14.9,0.95342433,4
5,2680802227000,-1.76,10.92,1.8387469,4
5,2680852276000,1.14,11.92,-1.0351465,4
5,2680902233000,-0.99,8.2,0.46309182,4
5,2680952312000,-2.91,7.27,0.313268,4
5,2681002209000,2.22,7.08,0.6537767,4
5,2681052319000,-0.23,4.67,3.445948,4
5,2681102245000,2.45,4.86,3.990762,4
5,2681152294000,8.2,10.08,8.117727,4
5,2681202282000,1.84,8.73,7.504812,4
5,2681252331000,-2.07,11.37,2.070293,4
5,2681302288000,-1.33,7.82,1.7297841,4
5,2681352306000,0.76,8.85,0.88532263,4
5,2681402569000,4.25,11.6,0.6537767,4
5,2681402569000,4.25,11.6,0.6537767,4
5,2681502239000,-0.23,6.21,0.50395286,4
5,2681552349000,1.65,8.2,0.42223078,4
5,2681552349000,1.65,8.2,0.42223078,4
5,2681662243000,0.76,12.64,1.9477097,4
5,2681662243000,0.76,12.64,1.9477097,4
5,2681762279000,3.57,17.82,3.1054392,4
5,2681762279000,3.57,17.82,3.1054392,4
5,2681862286000,-0.11,11.45,0.9942854,4
5,2681912243000,0.46,9.23,1.2258313,4
5,2681962231000,-0.84,7.59,-0.23154591,4
5,2681962231000,-0.84,7.59,-0.23154591,4
5,2682062237000,1.57,6.93,1.1168685,4
5,2682062237000,1.57,6.93,1.1168685,4
5,2682162212000,2.72,6.13,3.8273177,4
5,2682162212000,2.72,6.13,3.8273177,4
5,2682262249000,2.22,8.31,8.281172,4
5,2682262249000,2.22,8.31,8.281172,4
5,2682332622000,3.83,14.94,2.3699405,4
5,2682382397000,1.38,5.48,2.4108016,4
5,2682432323000,2.49,12.57,-0.38136974,4
5,2682492260000,-0.19,8.39,0.7218784,4
5,2682542217000,0.84,7.4,0.3405087,4
5,2682592266000,0.0,5.71,0.08172209,4
5,2682642284000,1.69,5.01,2.5333846,4
5,2682692272000,2.6,6.7,1.7978859,4
5,2682742229000,4.71,14.71,1.7570249,4
5,2682792736000,3.53,18.54,3.990762,4
5,2682842236000,4.79,18.39,1.2258313,4
5,2682892284000,-0.3,10.31,3.5957718,4
5,2682942242000,1.54,7.59,1.0760075,4
5,2682992260000,3.49,7.06,0.040861044,4
5,2683042248000,-2.26,6.28,-0.27240697,4
5,2683092297000,-1.8,5.98,-0.46309182,4
5,2683142284000,1.76,8.24,2.1111538,4
5,2683192303000,1.04,7.4,4.5628166,4
5,2683242260000,7.89,11.73,6.66035,4
5,2683292309000,7.35,9.96,8.158588,4
5,2683342266000,-0.11,4.75,4.5628166,4
5,2683392284000,0.89,13.63,3.0645783,4
5,2683442272000,1.46,4.86,2.9556155,4
5,2683492290000,4.44,10.95,0.92618364,4
5,2683542278000,0.89,7.7,0.23154591,4
5,2683592327000,-0.69,5.86,0.46309182,4
5,2683642254000,-0.15,6.63,1.7570249,4
5,2683692272000,0.11,7.97,0.10896278,4
5,2683742229000,0.93,7.97,-0.29964766,4
5,2683792278000,1.57,10.04,0.61291564,4
5,2683842236000,0.04,18.66,1.1441092,4
5,2683892284000,5.9,15.85,2.6014864,4
5,2683942242000,3.49,11.11,0.84446156,4
5,2683992260000,-0.23,10.27,-0.0,4
5,2684042278000,1.57,10.88,3.2961242,4
5,2684092297000,0.15,11.26,-1.2258313,4
5,2684142284000,0.04,9.58,-0.6946377,4
5,2684192272000,1.65,9.11,1.2666923,4
5,2684242260000,0.31,5.28,-0.0,4
5,2684292278000,0.69,3.06,-0.7627395,4
5,2684342236000,1.27,1.99,0.10896278,4
5,2684392284000,0.89,7.08,0.50395286,4
5,2684442272000,1.57,18.5,9.084772,4
5,2684492290000,1.08,6.4,4.3312707,4
5,2684542278000,1.8,14.67,2.3699405,4
5,2684592297000,0.0,12.18,2.4108016,4
5,2684642254000,0.99,4.82,-0.61291564,4
5,2684692272000,1.18,12.45,-2.5606253,4
5,2684742199000,0.93,8.81,1.7570249,4
5,2684792309000,-0.27,7.27,0.7218784,4
5,2684842205000,-0.89,9.77,-0.3405087,4
5,2684892284000,1.12,8.62,-0.27240697,4
5,2684942242000,1.33,9.92,-0.42223078,4
5,2684992260000,-0.11,12.53,1.1441092,4
5,2685042248000,0.99,12.68,1.0351465,4
5,2685092297000,6.21,11.96,-0.7218784,4
5,2685142254000,0.76,9.7,-0.42223078,4
5,2685192303000,-1.38,14.44,0.6946377,4
5,2685242992000,2.91,10.15,0.92618364,4
5,2685292248000,1.69,8.96,0.38136974,4
5,2685342297000,0.61,7.97,0.5720546,4
5,2685392254000,0.61,7.55,0.7627395,4
5,2685442272000,-0.23,6.24,-0.19068487,4
5,2685492229000,-1.5,6.13,2.5333846,4
5,2685542309000,4.33,16.04,7.273266,4
5,2685592266000,3.02,9.58,5.7477865,4
5,2685642315000,0.53,12.34,0.61291564,4
5,2685692242000,-0.27,12.68,0.08172209,4
5,2685742260000,2.49,3.91,-0.61291564,4
5,2685792217000,-0.61,13.29,-2.7240696,4
5,2685842327000,0.38,8.2,4.0180025,4
5,2685892223000,-0.65,7.4,0.38136974,4
5,2685942272000,1.5,10.27,1.8387469,4
5,2685992229000,1.88,9.34,0.50395286,4
5,2686042278000,2.72,8.77,-0.61291564,4
5,2686092236000,0.04,13.76,0.14982383,4
5,2686142315000,1.92,16.44,-1.0760075,4
5,2686192242000,1.33,13.53,0.313268,4
5,2686242321000,1.54,11.96,2.3699405,4
5,2686292248000,2.41,12.76,2.152015,4
5,2686342297000,-0.11,10.95,0.61291564,4
5,2686398998000,-0.23,7.7,0.3405087,4
5,2686452343000,0.69,5.48,1.6480621,4
5,2686502270000,-0.72,4.21,2.152015,4
5,2686552227000,1.04,6.4,3.3778462,4
5,2686602276000,3.21,6.66,4.7126403,4
5,2686652233000,4.56,7.59,8.580819,4
5,2686702282000,1.18,11.69,5.47538,4
5,2686752239000,1.92,14.63,3.5276701,4
5,2686802288000,-0.76,4.71,1.6889231,4
5,2686852306000,-0.46,7.93,1.1849703,4
5,2686902264000,3.95,13.33,0.88532263,4
5,2686952221000,0.57,6.55,2.070293,4
5,2687002300000,0.19,6.74,0.46309182,4
5,2687052227000,1.33,7.21,0.84446156,4
5,2687102276000,2.26,8.31,0.27240697,4
5,2687152233000,-0.11,8.5,1.8387469,4
5,2687202282000,2.22,14.1,2.5333846,4
5,2687252239000,3.72,14.44,2.4925237,4
5,2687302288000,4.6,16.09,2.5606253,4
5,2687352215000,-1.73,12.64,2.7921712,4
5,2687402294000,1.57,10.84,1.2258313,4
5,2687452221000,1.33,8.92,-0.040861044,4
5,2687552257000,-3.17,5.33,0.6946377,4
5,2687552257000,-3.17,5.33,0.6946377,4
5,2687602276000,1.84,5.6,0.92618364,4
5,2687602276000,1.84,5.6,0.92618364,4
5,2687702282000,2.49,7.44,5.134871,4
5,2687752331000,6.21,9.92,7.504812,4
5,2687752331000,6.21,9.92,7.504812,4
5,2687862225000,0.46,13.02,3.1463003,4
5,2687912273000,-0.99,9.15,2.4516625,4
5,2687962261000,0.72,7.46,1.2666923,4
5,2688012279000,6.7,13.99,1.1168685,4
5,2688062267000,1.18,5.63,1.56634,4
5,2688062267000,1.18,5.63,1.56634,4
5,2688162212000,1.27,7.12,0.23154591,4
5,2688162212000,1.27,7.12,0.23154591,4
5,2688262249000,1.14,8.96,1.334794,4
5,2688312267000,4.02,11.26,0.50395286,4
5,2688362255000,-0.91,14.71,1.56634,4
5,2688412273000,2.91,16.74,1.879608,4
5,2688462200000,-1.04,13.38,2.8738933,4
5,2688512279000,0.95,10.15,1.3756552,4
5,2688562237000,1.54,8.77,-0.88532263,4
5,2688562237000,1.54,8.77,-0.88532263,4
5,2688662243000,-3.36,6.85,0.88532263,4
5,2688662243000,-3.36,6.85,0.88532263,4
5,2688762279000,-0.42,5.67,3.255263,4
5,2688762279000,-0.42,5.67,3.255263,4
5,2688862286000,5.22,8.54,8.049625,4
5,2688912304000,2.15,7.4,6.1291566,4
5,2688962200000,-0.15,11.45,2.7649305,4
5,2688962200000,-0.15,11.45,2.7649305,4
5,2689062206000,2.87,10.92,1.0760075,4
5,2689062206000,2.87,10.92,1.0760075,4
5,2689162212000,1.18,6.93,0.61291564,4
5,2689162212000,1.18,6.93,0.61291564,4
5,2689262249000,0.99,7.4,0.6537767,4
5,2689262249000,0.99,7.4,0.6537767,4
5,2689362286000,1.8,10.31,1.1441092,4
5,2689412304000,1.65,11.41,0.61291564,4
5,2689462200000,2.3,13.14,1.2258313,4
5,2689512249000,1.12,14.52,1.7978859,4
5,2689562206000,-2.68,14.1,3.0645783,4
5,2689562206000,-2.68,14.1,3.0645783,4
5,2689662212000,0.89,11.22,1.6480621,4
5,2689662212000,0.89,11.22,1.6480621,4
5,2689762218000,-0.08,5.33,-0.46309182,4
5,2689762218000,-0.08,5.33,-0.46309182,4
5,2689862286000,-0.27,6.63,3.636633,4
5,2689862286000,-0.27,6.63,3.636633,4
5,2689962231000,4.6,7.97,8.662541,4
5,2690012218000,0.0,10.76,4.4810944,4
5,2690062237000,-0.19,11.8,3.5276701,4
5,2690062237000,-0.19,11.8,3.5276701,4
5,2690162273000,2.83,13.4,1.334794,4
5,2690212292000,2.34,7.27,0.88532263,4
5,2690262218000,0.57,6.32,0.6537767,4
5,2690312237000,1.04,6.93,0.6537767,4
5,2690362225000,1.54,8.92,1.6480621,4
5,2690362225000,1.54,8.92,1.6480621,4
5,2690462231000,0.15,9.51,1.4165162,4
5,2690512249000,1.84,11.03,1.9477097,4
5,2690562267000,5.33,13.8,1.0351465,4
5,2690612255000,0.61,14.67,-0.6537767,4
5,2690662212000,-2.07,13.72,2.9147544,4
5,2690662212000,-2.07,13.72,2.9147544,4
5,2690762249000,-0.3,11.22,-0.9125633,4
5,2690762249000,-0.3,11.22,-0.9125633,4
5,2690862255000,-1.04,5.18,-0.7218784,4
5,2690912273000,1.5,6.63,1.5390993,4
5,2690962200000,0.38,5.24,2.4925237,4
5,2691012249000,1.92,6.85,4.2086873,4
5,2691062237000,3.3,6.4,5.7886477,4
5,2691062237000,3.3,6.4,5.7886477,4
5,2691162212000,2.37,15.36,6.0201936,4
5,2691212292000,-1.88,10.31,1.334794,4
5,2691262218000,-0.61,3.38,0.7218784,4
5,2691312298000,3.17,12.49,0.92618364,4
5,2691362286000,1.84,5.71,2.4516625,4
5,2691362286000,1.84,5.71,2.4516625,4
5,2691462231000,-0.95,9.15,0.040861044,4
5,2691462231000,-0.95,9.15,0.040861044,4
5,2691562267000,0.89,9.72,0.5720546,4
5,2691562267000,0.89,9.72,0.5720546,4
5,2691662212000,1.8,11.37,0.7218784,4
5,2691662212000,1.8,11.37,0.7218784,4
5,2691762218000,0.15,14.1,-1.4982382,4
5,2691812267000,-1.5,14.75,1.6889231,4
5,2691862255000,0.46,13.02,3.0645783,4
5,2691862255000,0.46,13.02,3.0645783,4
5,2691962231000,-1.73,10.8,0.313268,4
5,2691962231000,-1.73,10.8,0.313268,4
5,2692062237000,0.65,6.93,0.50395286,4
5,2692112286000,2.64,7.12,4.099725,4
5,2692162212000,2.64,5.79,2.1792557,4
5,2692162212000,2.64,5.79,2.1792557,4
5,2692262279000,2.91,5.13,6.0201936,4
5,2692262279000,2.91,5.13,6.0201936,4
5,2692362225000,9.08,15.6,8.580819,4
5,2692412273000,-2.87,2.34,3.636633,4
5,2692462200000,-2.53,8.85,-0.50395286,4
5,2692512279000,4.06,12.53,2.152015,4
5,2692562206000,2.45,5.01,1.0760075,4
5,2692562206000,2.45,5.01,1.0760075,4
5,2692662212000,0.99,9.28,2.1792557,4
5,2692662212000,0.99,9.28,2.1792557,4
5,2692712261000,0.0,9.08,0.92618364,4
5,2692772289000,0.31,8.89,0.10896278,4
5,2692822247000,0.8,9.53,0.53119355,4
5,2692872295000,0.95,9.38,0.38136974,4
5,2692922283000,2.41,9.0,0.46309182,4
5,2692972301000,2.79,10.73,2.4108016,4
5,2693022259000,2.76,13.18,-0.7218784,4
5,2693072277000,0.53,11.73,-0.38136974,4
5,2693122265000,-0.08,8.66,0.6537767,4
5,2693172283000,-1.42,13.82,0.7627395,4
5,2693222271000,0.61,10.0,-0.53119355,4
5,2693272289000,1.69,8.81,1.607201,4
5,2693322277000,2.18,7.46,0.95342433,4
5,2693372478000,0.38,6.32,1.4165162,4
5,2693422405000,1.99,5.83,1.7297841,4
5,2693472301000,2.07,7.01,3.214402,4
5,2693522259000,1.84,17.69,6.66035,4
5,2693572308000,3.06,10.73,4.3312707,4
5,2693622478000,-0.65,12.95,0.7627395,4
5,2693672314000,0.69,4.1,0.92618364,4
5,2693722271000,4.63,8.35,-2.1111538,4
5,2693722271000,4.63,8.35,-2.1111538,4
5,2693822124000,-0.19,7.25,1.7570249,4
5,2693872234000,-2.6,8.96,-0.6537767,4
5,2693922436000,-0.57,8.92,-0.040861044,4
5,2693972271000,1.33,9.15,-0.6537767,4
5,2694022259000,2.26,11.56,0.8036005,4
5,2694072277000,3.3,12.34,1.6480621,4
5,2694122295000,5.63,11.56,2.1792557,4
5,2694172283000,2.3,9.19,0.42223078,4
5,2694222301000,-1.88,19.27,2.2201166,4
5,2694272259000,0.15,12.76,1.3756552,4
5,2694322277000,0.8,11.26,0.46309182,4
5,2694372265000,0.89,6.13,1.7978859,4
5,2694422741000,1.14,5.37,2.0294318,4
5,2694472271000,1.27,6.89,1.1849703,4
5,2694522259000,3.83,5.71,6.8237944,4
5,2694572308000,7.78,5.01,6.701211,4
5,2694622295000,0.53,11.5,8.281172,4
5,2694672283000,-1.65,6.93,0.08172209,4
5,2694722271000,-1.69,7.44,-0.040861044,4
5,2694772259000,4.1,15.79,2.070293,4
5,2694822308000,2.37,6.63,1.9885708,4
5,2694872295000,1.8,5.86,0.46309182,4
5,2694872295000,1.8,5.86,0.46309182,4
5,2694972454000,1.12,8.66,1.7570249,4
5,2695022106000,0.84,10.04,1.5390993,4
5,2695072277000,3.53,10.31,1.920469,4
5,2695122265000,3.76,11.8,0.88532263,4
5,2695172314000,-0.61,17.5,0.88532263,4
5,2695232250000,-0.61,13.76,4.372132,4
5,2695282238000,2.6,10.19,0.5720546,4
5,2695332287000,1.88,10.31,1.0351465,4
5,2695382244000,-5.18,8.92,-2.7921712,4
5,2695432262000,-0.95,6.59,0.8036005,4
5,2695482250000,1.23,5.43,3.1054392,4
5,2695532268000,1.27,5.18,2.982856,4
5,2695582256000,4.52,7.44,6.4424243,4
5,2695632275000,5.43,6.55,8.349273,4
5,2695682232000,5.56,12.49,7.273266,4
5,2695732311000,-3.17,6.17,3.9499009,4
5,2695782268000,-1.42,1.65,-0.8036005,4
5,2695832653000,3.3,17.67,2.3018389,4
5,2695892254000,3.11,6.44,1.1441092,4
5,2695942242000,0.84,5.71,0.14982383,4
5,2695992260000,-1.33,8.81,1.334794,4
5,2696042248000,1.08,9.7,1.1441092,4
5,2696092297000,-0.42,8.47,0.5720546,4
5,2696142284000,3.15,9.66,1.56634,4
5,2696192272000,2.07,9.92,1.1849703,4
5,2696242199000,1.57,11.69,1.879608,4
5,2696292309000,2.03,14.41,1.0760075,4
5,2696342236000,0.5,14.21,0.84446156,4
5,2696392284000,-1.18,12.76,1.7297841,4
5,2696442211000,0.93,10.99,0.08172209,4
5,2696492260000,0.08,11.35,0.46309182,4
5,2696542278000,-2.37,10.08,0.50395286,4
5,2696592297000,1.14,6.17,-0.29964766,4
5,2696642223000,1.18,6.51,2.3699405,4
5,2696692272000,0.31,3.53,3.636633,4
5,2696742199000,2.79,6.32,4.2495484,4
5,2696792309000,3.06,9.04,6.1291566,4
5,2696842236000,1.54,9.28,8.158588,4
5,2696892345000,0.31,14.18,4.0180025,4
5,2696942211000,-0.23,6.21,2.7240696,4
5,2696992260000,2.68,8.24,1.3756552,4
5,2697042248000,4.06,13.21,1.9885708,4
5,2697092297000,1.65,5.79,0.6537767,4
5,2697142254000,-1.12,6.51,-1.0760075,4
5,2697192303000,-0.89,9.15,1.5390993,4
5,2697242260000,1.08,9.43,0.23154591,4
5,2697292278000,0.76,9.11,-0.29964766,4
5,2697342205000,2.03,9.11,0.27240697,4
5,2697392284000,2.64,13.21,0.7627395,4
5,2697442242000,0.93,14.56,1.6889231,4
5,2697492260000,2.96,17.77,4.7126403,4
5,2697542248000,1.46,12.03,3.486809,4
5,2697592297000,2.34,9.0,1.4165162,4
5,2697642223000,-0.5,11.56,0.88532263,4
5,2697692303000,-3.41,7.5,-1.1849703,4
5,2697742199000,-0.61,5.22,-0.53119355,4
5,2697792339000,0.8,5.43,2.2201166,4
5,2697842266000,1.84,6.32,3.8681788,4
5,2697892315000,4.9,8.92,6.0474343,4
5,2697942242000,4.06,6.09,7.5865335,4
5,2697992260000,0.31,11.73,4.9850473,4
5,2698042278000,-0.27,10.12,3.445948,4
5,2698092297000,-1.5,3.76,-0.10896278,4
5,2698142254000,3.38,14.67,1.2258313,4
5,2698192303000,3.72,6.05,1.6480621,4
5,2698242229000,-0.08,5.09,0.53119355,4
5,2698292278000,-0.53,9.34,0.46309182,4
5,2698342266000,0.5,9.89,1.1849703,4
5,2698392345000,0.38,9.23,0.92618364,4
5,2698442211000,3.45,9.11,0.88532263,4
5,2698492260000,2.22,10.99,1.2258313,4
5,2698542248000,0.38,13.25,1.7978859,4
5,2698592297000,1.99,14.6,0.6946377,4
5,2698642223000,-0.99,15.02,2.0294318,4
5,2698692272000,0.0,11.03,1.7978859,4
5,2698742199000,0.65,10.19,-0.84446156,4
5,2698792309000,-1.8,10.23,-0.38136974,4
5,2698842327000,-2.56,8.05,-0.040861044,4
5,2698892345000,-0.27,6.66,1.0351465,4
5,2698942272000,0.89,6.66,3.2961242,4
5,2698992229000,1.33,7.01,4.7126403,4
5,2699042309000,5.94,9.62,5.829509,4
5,2699092266000,3.21,5.86,5.6252036,4
5,2699142315000,-1.23,7.86,2.1111538,4
5,2699192242000,0.61,14.21,2.1111538,4
5,2699242260000,1.18,5.13,0.61291564,4
5,2699292248000,4.79,11.45,0.53119355,4
5,2699342297000,2.07,9.34,1.0760075,4
5,2699392254000,-0.72,7.7,0.23154591,4
5,2699442272000,-0.5,7.97,0.88532263,4
5,2699492229000,0.72,8.35,1.0760075,4
5,2699542278000,1.23,9.62,0.3405087,4
5,2699592205000,1.54,10.08,0.23154591,4
5,2699642284000,1.84,11.54,0.42223078,4
5,2699692211000,1.69,12.72,0.50395286,4
5,2699742260000,-0.34,15.4,2.9147544,4
5,2699792248000,-1.38,15.55,4.862464,4
5,2699842297000,2.72,10.5,0.313268,4
5,2699892284000,0.69,10.92,-0.7627395,4
5,2699942303000,-6.09,8.81,-1.9885708,4
5,2699992229000,-0.11,6.85,3.445948,4
5,2700042339000,2.11,7.01,3.445948,4
5,2700092327000,2.64,6.4,3.990762,4
5,2700142406000,4.82,6.82,5.325556,4
5,2700192272000,3.38,4.25,5.8567495,4
5,2700243603000,0.46,5.13,3.990762,4
5,2700243603000,0.46,5.13,3.990762,4
5,2700362255000,-0.65,7.21,-0.6946377,4
5,2700412273000,0.76,15.21,1.879608,4
5,2700462231000,0.84,6.21,1.2666923,4
5,2700462231000,0.84,6.21,1.2666923,4
5,2700562206000,0.99,10.23,1.7570249,4
5,2700562206000,0.99,10.23,1.7570249,4
5,2700662212000,-0.04,8.73,-0.7627395,4
5,2700712231000,1.42,8.31,-0.10896278,4
5,2700762249000,2.45,12.57,2.0294318,4
5,2700812237000,0.95,13.8,1.4165162,4
5,2700862225000,0.72,16.7,-0.14982383,4
5,2700912273000,0.31,12.3,1.2666923,4
5,2700962200000,0.19,11.26,1.1849703,4
5,2700962200000,0.19,11.26,1.1849703,4
5,2701062237000,1.69,10.15,0.84446156,4
5,2701062237000,1.69,10.15,0.84446156,4
5,2701162243000,-0.15,8.24,0.5720546,4
5,2701212231000,0.5,8.01,0.95342433,4
5,2701262310000,0.53,6.21,0.313268,4
5,2701262310000,0.53,6.21,0.313268,4
5,2701362255000,0.11,6.17,-0.040861044,4
5,2701362255000,0.11,6.17,-0.040861044,4
5,2701462231000,4.82,11.5,5.134871,4
5,2701512249000,5.83,14.33,6.510526,4
5,2701562206000,1.5,12.07,2.2201166,4
5,2701612286000,0.19,12.03,3.173541,4
5,2701662243000,0.46,5.52,0.313268,4
5,2701662243000,0.46,5.52,0.313268,4
5,2701762218000,-0.95,13.02,0.6537767,4
5,2701762218000,-0.95,13.02,0.6537767,4
5,2701862286000,-1.14,8.16,-0.29964766,4
5,2701912273000,-0.3,9.28,0.6946377,4
5,2701962261000,1.18,8.92,0.040861044,4
5,2701962261000,1.18,8.92,0.040861044,4
5,2702062267000,1.08,11.75,1.607201,4
5,2702062267000,1.08,11.75,1.607201,4
5,2702162243000,2.79,9.11,-1.4573772,4
5,2702162243000,2.79,9.11,-1.4573772,4
5,2702262249000,0.76,13.44,0.88532263,4
5,2702262249000,0.76,13.44,0.88532263,4
5,2702362255000,0.08,8.47,1.2666923,4
5,2702412273000,-0.15,7.7,3.1054392,4
5,2702462231000,1.04,6.97,1.2258313,4
5,2702512279000,1.61,5.48,5.134871,4
5,2702562267000,6.09,4.99,7.3958488,4
5,2702562267000,6.09,4.99,7.3958488,4
5,2702662273000,-0.38,8.85,-0.0,4
5,2702662273000,-0.38,8.85,-0.0,4
5,2702762249000,2.72,15.21,1.4165162,4
5,2702762249000,2.72,15.21,1.4165162,4
5,2702862286000,0.72,6.05,0.6537767,4
5,2702912273000,2.98,9.15,1.879608,4
5,2702962231000,0.99,8.39,1.5390993,4
5,2702962231000,0.99,8.39,1.5390993,4
5,2703062237000,0.0,9.43,0.27240697,4
5,2703062237000,0.0,9.43,0.27240697,4
5,2703162334000,1.33,12.49,1.4165162,4
5,2703162334000,1.33,12.49,1.4165162,4
5,2703262249000,1.31,15.75,4.1814466,4
5,2703262249000,1.31,15.75,4.1814466,4
5,2703362255000,2.34,10.23,0.3405087,4
5,2703412273000,-0.8,10.5,-0.3405087,4
5,2703462231000,-1.8,5.18,-0.88532263,4
5,2703512279000,1.23,5.86,1.4982382,4
5,2703562237000,0.11,5.79,2.6423476,4
5,2703562237000,0.11,5.79,2.6423476,4
5,2703662273000,3.87,9.11,7.246025,4
5,2703662273000,3.87,9.11,7.246025,4
5,2703762249000,1.69,14.52,2.1792557,4
5,2703812267000,-2.98,3.99,2.1111538,4
5,2703862255000,-0.53,5.9,-0.19068487,4
5,2703862255000,-0.53,5.9,-0.19068487,4
5,2703962261000,3.72,4.67,1.56634,4
5,2703962261000,3.72,4.67,1.56634,4
5,2704062267000,-0.65,9.19,1.2258313,4
5,2704112286000,0.15,9.51,0.14982383,4
5,2704162243000,-0.42,9.92,0.8036005,4
5,2704162243000,-0.42,9.92,0.8036005,4
5,2704262249000,-0.04,12.83,1.0760075,4
5,2704312267000,-0.84,18.24,1.0351465,4
5,2704362255000,-0.34,15.21,4.0588636,4
5,2704412273000,0.53,10.19,0.7218784,4
5,2704462231000,2.03,8.66,0.61291564,4
5,2704462231000,2.03,8.66,0.61291564,4
5,2704562237000,-0.53,6.24,0.040861044,4
5,2704562237000,-0.53,6.24,0.040861044,4
5,2704662273000,1.18,5.28,3.1054392,4
5,2704712261000,2.6,6.78,4.903325,4
5,2704762249000,4.06,7.82,8.580819,4
5,2704762249000,4.06,7.82,8.580819,4
5,2704862255000,4.44,16.28,1.9885708,4
5,2704862255000,4.44,16.28,1.9885708,4
5,2704962261000,0.84,11.18,-0.6537767,4
5,2705012279000,3.53,9.28,2.152015,4
5,2705062267000,-0.42,5.98,0.8036005,4
5,2705062267000,-0.42,5.98,0.8036005,4
5,2705122295000,0.61,8.08,-0.08172209,4
5,2705172314000,1.42,10.88,1.920469,4
5,2705222332000,1.69,10.5,0.38136974,4
5,2705282268000,1.5,10.84,1.1849703,4
5,2705332256000,1.08,11.75,1.1849703,4
5,2705382305000,1.61,15.24,-0.42223078,4
5,2705432262000,-3.36,14.33,2.3426998,4
5,2705482311000,-1.14,11.35,1.0351465,4
5,2705532238000,0.57,11.14,1.2666923,4
5,2705582317000,-1.61,10.12,0.38136974,4
5,2705632244000,0.31,5.05,-0.88532263,4
5,2705682293000,1.95,5.48,1.8387469,4
5,2705732250000,1.5,5.67,3.759216,4
5,2705782299000,4.9,7.86,4.3312707,4
5,2705832256000,4.21,8.24,7.8589406,4
5,2705882305000,1.27,7.4,5.5571017,4
5,2705932232000,3.02,16.47,3.8273177,4
5,2705982342000,-0.19,1.65,0.95342433,4
5,2706032268000,0.89,7.31,-0.7218784,4
5,2706082317000,2.18,13.87,1.7978859,4
5,2706132244000,0.42,5.01,0.8036005,4
5,2706182293000,-0.61,5.71,-0.3405087,4
5,2706232250000,2.15,10.65,1.7570249,4
5,2706302380000,0.0,9.3,-0.08172209,4
5,2706352306000,2.56,10.15,2.5606253,4
5,2706352306000,2.56,10.15,2.5606253,4
5,2706452251000,1.04,15.79,2.8738933,4
5,2706502331000,1.5,14.29,1.9477097,4
5,2706502331000,1.5,14.29,1.9477097,4
5,2706612255000,2.41,10.04,-0.08172209,4
5,2706612255000,2.41,10.04,-0.08172209,4
5,2706712261000,-3.3,6.59,-0.27240697,4
5,2706712261000,-3.3,6.59,-0.27240697,4
5,2706812298000,0.31,5.9,2.1792557,4
5,2706862286000,1.18,6.28,3.405087,4
5,2706912426000,6.32,9.47,6.510526,4
5,2706912426000,6.32,9.47,6.510526,4
5,2707012279000,-0.3,9.3,3.2961242,4
5,2707012279000,-0.3,9.3,3.2961242,4
5,2707112286000,0.04,5.43,1.9885708,4
5,2707162273000,1.08,12.49,1.920469,4
5,2707212261000,2.22,9.58,1.56634,4
5,2707212261000,2.22,9.58,1.56634,4
5,2707312267000,0.27,8.16,1.0760075,4
5,2707362286000,0.34,7.46,1.2666923,4
5,2707412273000,0.76,7.86,1.879608,4
5,2707462261000,2.3,11.65,1.607201,4
5,2707512341000,2.6,14.63,2.4108016,4
5,2707562237000,4.56,14.63,2.4516625,4
5,2707612255000,-2.14,12.18,2.6423476,4
5,2707612255000,-2.14,12.18,2.6423476,4
5,2707712231000,-3.21,10.99,-0.5720546,4
5,2707762279000,-3.06,10.38,-0.84446156,4
5,2707812237000,-0.69,4.67,-0.14982383,4
5,2707862286000,3.34,6.24,1.2666923,4
5,2707912273000,1.27,5.63,3.9090397,4
5,2707912273000,1.27,5.63,3.9090397,4
5,2708012279000,4.79,9.3,6.0201936,4
5,2708012279000,4.79,9.3,6.0201936,4
5,2708112286000,0.19,11.8,3.8681788,4
5,2708162273000,1.42,10.23,2.3426998,4
5,2708212261000,2.37,4.71,1.7297841,4
5,2708212261000,2.37,4.71,1.7297841,4
5,2708312237000,0.04,5.79,0.9942854,4
5,2708312237000,0.04,5.79,0.9942854,4
5,2708412518000,0.08,7.16,0.313268,4
5,2708462261000,0.57,8.2,1.4165162,4
5,2708512249000,1.14,9.08,0.19068487,4
5,2708512249000,1.14,9.08,0.19068487,4
5,2708612286000,1.23,15.55,1.2666923,4
5,2708612286000,1.23,15.55,1.2666923,4
5,2708712231000,5.13,14.33,0.6537767,4
5,2708762279000,0.65,13.48,-0.38136974,4
5,2708812267000,-0.27,9.66,0.92618364,4
5,2708862286000,0.93,9.85,-0.27240697,4
5,2708912273000,1.5,8.69,-0.6946377,4
5,2708912273000,1.5,8.69,-0.6946377,4
5,2709012279000,0.46,7.78,-0.6537767,4
5,2709012279000,0.46,7.78,-0.6537767,4
5,2709112255000,-0.27,5.67,0.42223078,4
5,2709162273000,1.54,4.52,0.46309182,4
5,2709212261000,1.92,7.12,0.9942854,4
5,2709212261000,1.92,7.12,0.9942854,4
5,2709312267000,2.83,13.59,6.851035,4
5,2709312267000,2.83,13.59,6.851035,4
5,2709412273000,1.5,12.91,1.56634,4
5,2709412273000,1.5,12.91,1.56634,4
5,2709512279000,2.68,4.44,-1.56634,4
5,2709562237000,0.72,12.49,-1.9885708,4
5,2709612286000,-0.89,11.37,1.7297841,4
5,2709662273000,-1.38,8.05,0.6946377,4
5,2709712200000,-0.38,9.04,0.19068487,4
5,2709712200000,-0.38,9.04,0.19068487,4
5,2709812237000,0.93,9.34,0.19068487,4
5,2709812237000,0.93,9.34,0.19068487,4
5,2709912426000,2.72,11.3,2.0294318,4
5,2709962231000,4.71,14.21,1.6889231,4
5,2710012279000,4.48,11.11,-1.7570249,4
5,2710012279000,4.48,11.11,-1.7570249,4
5,2710112255000,-1.18,14.98,1.2258313,4
5,2710112255000,-1.18,14.98,1.2258313,4
5,2710212231000,0.8,10.57,0.8036005,4
5,2710262249000,0.27,6.44,3.405087,4
5,2710312206000,1.88,7.25,1.7978859,4
5,2710312206000,1.88,7.25,1.7978859,4
5,2710412273000,1.54,5.56,4.862464,4
5,2710412273000,1.54,5.56,4.862464,4
5,2710512218000,5.48,11.69,10.841797,4
5,2710512218000,5.48,11.69,10.841797,4
5,2710612225000,0.8,5.75,0.6946377,4
5,2710612225000,0.8,5.75,0.6946377,4
5,2710712200000,1.27,12.11,1.6480621,4
5,2710762279000,0.31,7.46,1.1441092,4
5,2710812237000,0.11,8.81,1.0760075,4
5,2710812237000,0.11,8.81,1.0760075,4
5,2710812237000,0.11,8.81,1.0760075,4
5,2710952434000,0.84,8.85,1.3756552,4
5,2711002239000,1.99,9.47,1.607201,4
5,2711052288000,2.18,9.23,0.8036005,4
5,2711102337000,3.15,10.12,1.1168685,4
5,2711102337000,3.15,10.12,1.1168685,4
5,2711162243000,1.38,15.7,0.42223078,4
5,2711222332000,0.23,14.9,4.0180025,4
5,2711272259000,3.64,11.26,2.4516625,4
5,2711322308000,3.26,10.23,1.1441092,4
5,2711372295000,-0.08,11.92,0.92618364,4
5,2711422283000,-1.57,7.7,0.95342433,4
5,2711472271000,0.31,6.36,1.0760075,4
5,2711522350000,1.38,5.48,0.7218784,4
5,2711582256000,1.04,5.09,3.718355,4
5,2711632214000,4.6,8.5,5.407278,4
5,2711682262000,3.95,7.89,7.5865335,4
5,2711732250000,1.8,7.97,6.8237944,4
5,2711782268000,0.38,13.87,3.6774938,4
5,2711832256000,-0.99,2.11,0.95342433,4
5,2711882275000,2.64,13.48,2.152015,4
5,2711932232000,3.53,9.11,2.4925237,4
5,2711982281000,1.61,4.63,0.6537767,4
5,2712032207000,-0.8,6.36,-0.6946377,4
5,2712082317000,2.03,10.76,2.5333846,4
5,2712132214000,0.34,8.39,0.5720546,4
5,2712182262000,1.31,9.08,1.2666923,4
5,2712232250000,1.99,12.03,1.920469,4
5,2712282299000,2.41,12.72,1.6480621,4
5,2712332256000,2.6,14.82,0.9942854,4
5,2712382275000,-1.38,14.98,2.3426998,4
5,2712432232000,-0.46,11.35,2.3018389,4
5,2712552319000,-0.53,9.08,-1.4165162,4
5,2712552319000,-0.53,9.08,-1.4165162,4
5,2712602276000,-3.68,6.93,0.50395286,4
5,2712602276000,-3.68,6.93,0.50395286,4
5,2712702221000,0.76,6.09,4.2086873,4
5,2712752361000,5.05,7.35,4.7535014,4
5,2712812267000,6.36,6.4,6.0201936,4
5,2712862225000,-1.14,5.01,2.070293,4
5,2712862225000,-1.14,5.01,2.070293,4
5,2712962231000,-0.08,7.01,1.4982382,4
5,2712962231000,-0.08,7.01,1.4982382,4
5,2713062206000,0.8,9.96,0.9942854,4
5,2713112286000,-0.04,6.89,1.0351465,4
5,2713162212000,0.31,6.47,0.313268,4
5,2713212261000,1.54,8.01,0.9942854,4
5,2713262249000,1.33,10.38,1.8387469,4
5,2713262249000,1.33,10.38,1.8387469,4
5,2713362225000,1.27,14.33,2.6423476,4
5,2713362225000,1.27,14.33,2.6423476,4
5,2713462231000,0.04,11.45,1.920469,4
5,2713512279000,1.69,10.04,0.6537767,4
5,2713562237000,0.65,11.18,0.42223078,4
5,2713612286000,-3.64,9.0,-0.42223078,4
5,2713662273000,1.46,8.12,-0.10896278,4
5,2713662273000,1.46,8.12,-0.10896278,4
5,2713762279000,3.53,7.12,2.8738933,4
5,2713762279000,3.53,7.12,2.8738933,4
5,2713862225000,3.02,5.28,4.440233,4
5,2713912273000,-2.03,8.12,1.1849703,4
5,2713962200000,0.04,11.35,2.4516625,4
5,2714012249000,2.15,7.01,1.3075534,4
5,2714062237000,4.82,12.64,0.14982383,4
5,2714062237000,4.82,12.64,0.14982383,4
5,2714162243000,-0.95,8.73,0.27240697,4
5,2714162243000,-0.95,8.73,0.27240697,4
5,2714262218000,0.95,8.5,-0.08172209,4
5,2714312237000,-0.69,11.3,0.3405087,4
5,2714362255000,0.99,11.5,0.08172209,4
5,2714362255000,0.99,11.5,0.08172209,4
5,2714462231000,0.69,15.13,-0.38136974,4
5,2714462231000,0.69,15.13,-0.38136974,4
5,2714562237000,-1.84,12.95,0.92618364,4
5,2714612286000,-1.23,10.84,-0.7627395,4
5,2714662273000,-1.12,10.92,-2.7921712,4
5,2714712231000,-0.72,8.16,-1.4573772,4
5,2714762218000,2.53,8.69,0.23154591,4
5,2714762218000,2.53,8.69,0.23154591,4
5,2759442211000,0.76,9.38,2.7649305,0
5,2759492260000,0.0,7.7,2.7921712,0
5,2759542248000,-0.11,7.67,2.7649305,0
5,2759592266000,0.46,5.56,1.920469,0
5,2759642254000,1.65,5.63,2.3699405,0
5,2759692242000,-0.65,8.31,2.9147544,0
5,2759742260000,-3.11,15.17,2.2609777,0
5,2759792278000,1.69,10.61,-0.95342433,0
5,2759842266000,4.75,17.97,5.5162406,0
5,2759892315000,1.23,9.7,0.7218784,0
5,2759942211000,0.42,8.2,0.95342433,0
5,2759992229000,1.12,10.46,1.7297841,0
5,2760042217000,1.08,7.97,1.7297841,0
5,2760092236000,0.23,8.05,2.5606253,0
5,2760142223000,1.61,6.97,1.7978859,0
5,2760192242000,2.15,6.74,1.1168685,0
5,2760242321000,2.34,7.27,1.7570249,0
5,2760292278000,2.45,8.96,1.9885708,0
5,2760342236000,2.26,7.93,2.2609777,0
5,2760392254000,-2.18,10.42,6.4424243,0
5,2760442211000,3.57,15.66,8.894087,0
5,2760492260000,2.6,11.45,7.7772183,0
5,2760542248000,2.34,7.97,4.7535014,0
5,2760592266000,0.19,4.6,3.445948,0
5,2760642223000,-0.27,5.56,3.405087,0
5,2760692272000,0.65,5.75,2.6832085,0
5,2760742199000,0.72,7.27,3.173541,0
5,2760792278000,1.57,6.93,3.445948,0
5,2760842205000,0.08,7.12,3.7864566,0
5,2760892284000,-0.34,6.17,1.7570249,0
5,2760942242000,0.38,6.55,2.7240696,0
5,2760992229000,-3.91,18.66,0.88532263,0
5,2761042248000,7.7,18.05,3.636633,0
5,2761092266000,3.11,8.96,1.7978859,0
5,2761142254000,0.04,10.95,0.5720546,0
5,2761192272000,3.91,9.34,3.405087,0
5,2761242229000,-0.53,8.2,1.2258313,0
5,2761292248000,-0.27,8.2,2.7240696,0
5,2761342205000,1.99,5.98,1.9477097,0
5,2761392254000,2.68,4.86,0.3405087,0
5,2761442272000,1.65,5.9,3.336985,0
5,2761492260000,4.71,8.31,1.879608,0
5,2761542248000,3.76,9.0,2.9556155,0
5,2761592236000,-0.38,12.11,4.7943625,0
5,2761642223000,-3.64,17.47,11.727119,0
5,2761692303000,6.55,7.5,7.246025,0
5,2761742199000,2.98,10.46,7.5456724,0
5,2761792278000,0.08,6.74,4.671779,0
5,2761842236000,-0.57,4.48,1.5390993,0
5,2761892284000,-0.95,3.83,1.1168685,0
5,2761942211000,-1.76,4.44,2.5606253,0
5,2761992229000,-1.42,8.92,1.879608,0
5,2762042217000,1.46,8.01,2.6014864,0
5,2762092236000,0.72,8.5,3.255263,0
5,2762142223000,-0.19,12.37,2.9147544,0
5,2762192242000,-1.88,14.44,0.23154591,0
5,2762242229000,10.92,16.55,6.6331096,0
5,2762292278000,1.46,11.96,1.9477097,0
5,2762342205000,-0.99,7.97,1.334794,0
5,2762392315000,2.3,8.66,3.0237172,0
5,2762442242000,0.27,7.86,1.3075534,0
5,2762442242000,0.27,7.86,1.3075534,0
5,2762512310000,0.72,7.12,2.5333846,0
5,2762562237000,1.99,6.05,0.8036005,0
5,2762612377000,3.17,6.63,2.1792557,0
5,2762672283000,3.6,7.67,1.7978859,0
5,2762722271000,1.38,10.84,3.405087,0
5,2762772259000,-1.84,14.56,6.0882955,0
5,2762822247000,1.46,13.82,10.691973,0
5,2762872295000,2.6,9.77,6.1700177,0
5,2762922253000,2.07,7.63,5.134871,0
5,2762972301000,1.57,5.63,4.7943625,0
5,2763022228000,0.65,4.86,3.336985,0
5,2763072308000,1.18,2.6,2.7649305,0
5,2763122265000,3.38,6.28,2.8330324,0
5,2763172314000,2.26,7.12,3.255263,0
5,2763222240000,-0.99,9.15,3.0645783,0
5,2763272289000,0.04,7.67,3.3778462,0
5,2763322247000,-0.69,8.92,2.9556155,0
5,2763372265000,-4.56,16.47,-1.334794,0
5,2763422283000,8.81,15.79,4.7126403,0
5,2763472301000,4.71,10.0,2.7240696,0
5,2763522228000,1.08,9.04,-0.14982383,0
5,2763572277000,1.27,10.12,2.4516625,0
5,2763622204000,-0.91,7.7,2.5333846,0
5,2763672283000,0.0,6.78,1.1168685,0
5,2763722210000,2.26,5.22,0.14982383,0
5,2763772259000,1.84,5.43,1.3756552,0
5,2763822277000,4.56,6.78,1.4573772,0
5,2763872295000,4.18,8.85,3.5276701,0
5,2763922253000,-0.04,15.47,7.014479,0
5,2763972271000,0.84,13.21,8.812365,0
5,2764022228000,3.91,11.22,7.082581,0
5,2764072308000,2.49,8.77,5.366417,0
5,2764122265000,0.8,6.51,4.2086873,0
5,2764172314000,0.99,4.6,2.9147544,0
5,2764222240000,0.8,1.69,2.152015,0
5,2764272289000,1.27,7.35,3.7864566,0
5,2764322247000,2.26,9.19,4.2904096,0
5,2764372265000,0.15,5.28,0.92618364,0
5,2764422192000,0.53,6.05,3.1054392,0
5,2764472271000,-0.19,11.18,5.175732,0
5,2764522259000,-1.12,15.05,0.040861044,0
5,2764572277000,9.62,17.86,3.1463003,0
5,2764622295000,-0.89,9.11,1.9477097,0
5,2764672253000,-0.11,9.85,0.9942854,0
5,2764722301000,1.65,9.81,1.3075534,0
5,2764772198000,0.11,8.73,2.152015,0
5,2764822277000,0.34,7.06,1.3075534,0
5,2764872234000,2.79,7.97,2.6014864,0
5,2764922283000,3.99,7.27,2.2201166,0
5,2764972271000,2.98,7.82,1.6889231,0
5,2765022228000,2.34,7.63,2.4516625,0
5,2765072216000,3.91,6.47,1.6889231,0
5,2765122295000,1.54,6.66,2.6014864,0
5,2765172222000,0.5,13.8,9.112013,0
5,2765222301000,3.91,12.95,10.528529,0
5,2765272228000,4.02,10.19,6.6331096,0
5,2765322308000,1.61,6.82,5.243834,0
5,2765372204000,0.84,6.55,4.2495484,0
5,2765422283000,-0.23,5.37,3.1054392,0
5,2765472240000,0.15,4.86,2.9556155,0
5,2765522289000,2.49,8.24,4.0180025,0
5,2765572277000,1.99,8.01,4.5628166,0
5,2765622234000,0.65,7.27,3.6774938,0
5,2765672253000,-0.3,7.08,2.3699405,0
5,2765722301000,1.33,6.32,1.879608,0
5,2765772228000,-0.5,4.79,1.3756552,0
5,2765822277000,3.72,18.85,-1.1168685,0
5,2765872234000,3.57,10.38,5.597963,0
5,2765922314000,4.29,12.76,0.84446156,0
5,2765972240000,-0.08,9.15,0.3405087,0
5,2766022259000,-0.99,8.2,0.42223078,0
5,2766072247000,2.98,6.93,1.334794,0
5,2766122295000,4.52,6.13,1.8387469,0
5,2766172253000,4.52,6.93,1.2258313,0
5,2766222301000,3.3,6.78,0.040861044,0
5,2766272228000,-6.02,14.6,0.88532263,0
5,2766322277000,-4.71,19.11,2.982856,0
5,2766372234000,1.18,15.09,5.134871,0
5,2766422314000,4.44,13.14,4.5628166,0
5,2766472240000,0.46,7.7,2.4108016,0
5,2766522289000,0.08,3.15,1.4573772,0
5,2766572247000,1.27,0.89,3.759216,0
5,2766622295000,4.52,8.96,6.782933,0
5,2766672222000,-6.05,18.09,5.7886477,0
5,2766722301000,3.17,7.12,-4.5628166,0
5,2766772198000,-1.73,13.21,0.95342433,0
5,2766822277000,-1.08,11.75,-0.53119355,0
5,2766872265000,2.91,6.78,-1.3075534,0
5,2766922344000,3.06,8.69,-0.7218784,0
5,2766972240000,1.23,10.31,0.5720546,0
5,2767022289000,5.18,8.16,1.3075534,0
5,2767072216000,3.45,9.47,0.38136974,0
5,2767122295000,3.06,10.34,0.6537767,0
5,2767172253000,1.46,12.03,1.4982382,0
5,2767222271000,-0.04,13.67,-0.14982383,0
5,2767272259000,-4.71,10.38,-0.10896278,0
5,2767322338000,-2.98,12.64,1.920469,0
5,2767372204000,0.95,11.5,1.7978859,0
5,2767422314000,3.3,7.63,2.9147544,0
5,2767472240000,1.08,5.01,1.9885708,0
5,2767522259000,-0.04,5.22,2.6832085,0
5,2767572277000,0.84,4.6,3.7864566,0
5,2767622295000,4.67,7.86,6.891896,0
5,2767672253000,0.99,14.75,6.3198414,0
5,2767722301000,-2.07,7.27,6.1291566,0
5,2767772198000,-1.8,16.55,-3.445948,0
5,2767822308000,2.68,10.69,1.7978859,0
5,2767872234000,-2.72,2.96,-5.706926,0
5,2767922283000,1.14,16.55,3.1463003,0
5,2767972210000,-0.11,6.82,-3.1054392,0
5,2768022259000,3.15,10.27,0.88532263,0
5,2768072247000,4.18,8.08,0.46309182,0
5,2768122295000,2.34,9.04,1.56634,0
5,2768172222000,3.15,9.47,-0.29964766,0
5,2768222271000,1.14,11.11,0.88532263,0
5,2768272228000,0.69,14.29,1.1168685,0
5,2768322277000,-2.41,12.49,-1.56634,0
5,2768372234000,-2.91,10.84,-0.7627395,0
5,2768422283000,-1.14,11.88,1.6480621,0
5,2768472271000,3.21,9.08,2.982856,0
5,2768522320000,1.73,6.85,3.173541,0
5,2768572277000,1.14,4.82,3.255263,0
5,2768622295000,2.07,4.21,3.5957718,0
5,2768672253000,4.86,4.29,5.2165933,0
5,2768722271000,-1.8,18.39,7.273266,0
5,2768772259000,-0.3,0.27,-0.5720546,0
5,2768822277000,1.95,14.33,-1.334794,0
5,2768872234000,2.6,9.38,3.1463003,0
5,2768922314000,-2.41,7.12,0.14982383,0
5,2768972240000,1.33,10.42,0.27240697,0
5,2769022259000,2.41,8.08,1.5390993,0
5,2769072247000,4.02,9.85,2.0294318,0
5,2769122295000,3.68,8.66,2.152015,0
5,2769172222000,2.03,8.5,-0.29964766,0
5,2769222271000,1.18,11.14,1.5390993,0
5,2769272228000,1.12,12.79,0.88532263,0
5,2769322277000,-1.8,11.88,1.2666923,0
5,2769372265000,-1.69,11.6,4.0180025,0
5,2769422314000,2.45,10.76,4.4810944,0
5,2769472393000,2.64,7.25,2.4108016,0
5,2769522411000,1.61,3.64,2.2609777,0
5,2769572308000,1.46,5.48,3.445948,0
5,2769622326000,1.14,5.98,3.255263,0
5,2769682476000,-0.19,8.43,1.9885708,0
5,2769732220000,0.19,8.5,3.255263,0
5,2769782268000,-0.61,8.16,2.7240696,0
5,2769832226000,0.89,6.78,2.4925237,0
5,2769882275000,-0.3,7.7,3.0237172,0
5,2769932232000,-2.26,12.15,1.1168685,0
5,2769982281000,2.96,12.18,-0.95342433,0
5,2770032238000,4.52,16.78,5.47538,0
5,2770082317000,3.99,8.54,1.1441092,0
5,2770132244000,-0.08,7.82,0.6946377,0
5,2770182262000,-0.38,9.08,0.6537767,0
5,2770232250000,1.88,5.28,1.4982382,0
5,2770282268000,0.46,5.18,1.607201,0
5,2770332256000,2.37,7.97,2.6014864,0
5,2770382305000,4.21,7.01,0.61291564,0
5,2770432201000,-2.11,13.8,6.5922484,0
5,2770482281000,1.8,15.09,9.152874,0
5,2770532238000,4.44,12.6,9.043911,0
5,2770532238000,4.44,12.6,9.043911,0
5,2770532238000,4.44,12.6,9.043911,0
5,2770682201000,-0.53,4.79,1.920469,0
5,2770732403000,0.46,1.92,0.95342433,0
5,2770782238000,-0.27,2.11,0.08172209,0
5,2770832317000,-0.99,11.84,3.3778462,0
5,2770882214000,1.12,8.16,3.9090397,0
5,2770932262000,-4.59,6.63,-0.040861044,0
5,2770982220000,1.95,18.58,0.7218784,0
5,2771032299000,7.82,16.55,6.3198414,0
5,2771082226000,2.72,12.07,2.982856,0
5,2771132275000,-1.23,8.16,0.23154591,0
5,2771182262000,1.14,9.53,1.1168685,0
5,2771232281000,0.72,6.74,1.5390993,0
5,2771282207000,1.92,7.74,1.7570249,0
5,2771332287000,3.34,4.75,1.3075534,0
5,2771382214000,3.21,6.24,2.0294318,0
5,2771432262000,4.44,6.82,1.7570249,0
5,2771482250000,2.26,9.77,2.070293,0
5,2771532268000,-1.31,15.89,5.053149,0
5,2771582256000,3.49,11.92,7.5865335,0
5,2771632275000,4.1,14.56,7.8589406,0
5,2771682232000,1.65,7.01,3.8273177,0
5,2771732281000,0.46,5.33,3.0645783,0
5,2771782238000,1.08,3.15,1.8387469,0
5,2771832287000,1.69,0.95,1.3756552,0
5,2771882214000,-0.11,4.02,0.14982383,0
5,2771932262000,-1.04,11.69,2.1792557,0
5,2771982250000,-3.45,12.98,1.0760075,0
5,2772032299000,-0.19,14.71,1.4573772,0
5,2772082256000,7.55,16.32,4.2904096,0
5,2772132275000,4.33,11.03,2.5606253,0
5,2772182232000,0.46,8.77,0.9942854,0
5,2772232281000,2.83,7.63,1.56634,0
5,2772282268000,0.99,4.52,1.920469,0
5,2772332287000,0.69,5.05,1.9885708,0
5,2772382214000,3.57,8.5,2.2201166,0
5,2772432293000,6.21,7.46,2.152015,0
5,2772482250000,-1.46,13.38,6.469665,0
5,2772532299000,2.3,14.71,8.471856,0
5,2772582256000,-1.23,11.69,8.117727,0
5,2772632275000,1.31,8.39,4.2495484,0
5,2772682201000,0.23,5.6,1.9477097,0
5,2772682201000,0.23,5.6,1.9477097,0
5,2772770397000,0.15,3.41,0.84446156,0
5,2772824902000,1.18,6.74,2.5333846,0
5,2772882366000,-2.07,9.58,3.5957718,0
5,2772932232000,-0.72,7.4,1.9477097,0
5,2772982342000,-3.72,11.35,3.0237172,0
5,2773042278000,1.54,14.56,3.990762,0
5,2773092205000,8.81,12.95,3.255263,0
5,2773142254000,-0.19,11.5,1.8387469,0
5,2773192242000,-1.84,8.08,0.3405087,0
5,2773242260000,2.79,7.44,1.4982382,0
5,2773292248000,3.45,6.02,2.4108016,0
5,2773342266000,1.33,4.52,2.3699405,0
5,2773392254000,3.83,8.58,2.982856,0
5,2773442272000,5.52,6.97,0.9942854,0
5,2773492229000,-2.45,14.25,5.2165933,0
5,2773542278000,2.6,13.1,8.430995,0
5,2773592266000,-1.84,12.64,8.308413,0
5,2773642284000,0.65,8.77,4.7535014,0
5,2773692272000,-0.91,6.82,2.5333846,0
5,2773742229000,-0.84,4.52,1.334794,0
5,2773792248000,-1.57,5.01,0.88532263,0
5,2773842266000,-3.3,8.81,2.070293,0
5,2773892254000,-1.65,10.15,2.9147544,0
5,2773942272000,1.33,5.52,2.982856,0
5,2773992260000,-1.14,6.21,3.6774938,0
5,2774042278000,-1.53,12.83,1.3075534,0
5,2774092266000,4.63,14.33,3.336985,0
5,2774142284000,6.32,18.54,1.920469,0
5,2774192242000,2.15,9.38,1.6480621,0
5,2774242260000,-2.87,7.21,-0.10896278,0
5,2774292248000,-0.23,8.62,0.46309182,0
5,2774342266000,3.21,4.37,2.5606253,0
5,2774392284000,2.34,5.94,3.214402,0
5,2774442242000,2.64,8.05,2.7921712,0
5,2774492229000,3.34,8.16,1.8387469,0
5,2774542309000,-4.02,16.4,5.8976107,0
5,2774592205000,1.8,16.04,8.689782,0
5,2774642284000,4.56,10.27,6.3198414,0
5,2774692242000,-0.53,6.59,3.5276701,0
5,2774742260000,-1.84,3.83,2.982856,0
5,2774792248000,0.93,3.11,2.9147544,0
5,2774842236000,0.19,3.72,3.3778462,0
5,2774892254000,1.42,11.07,3.6774938,0
5,2774942272000,-3.41,7.46,2.6423476,0
5,2774992260000,-5.94,11.69,4.671779,0
5,2775042278000,4.33,10.95,-5.202973,0
5,2775092266000,5.41,16.66,4.671779,0
5,2775142284000,3.53,9.38,2.2609777,0
5,2775192211000,-1.84,7.97,-0.50395286,0
5,2775242351000,0.34,8.24,1.1168685,0
5,2775292278000,2.07,6.59,1.1441092,0
5,2775342236000,3.45,7.55,2.7240696,0
5,2775392254000,4.9,7.63,1.7978859,0
5,2775442272000,5.6,6.63,1.7570249,0
5,2775492229000,0.23,9.7,3.7864566,0
5,2775542278000,-3.83,13.76,0.19068487,0
5,2775592236000,-0.11,17.08,3.8273177,0
5,2775642284000,3.57,15.43,5.366417,0
5,2775692242000,3.49,10.57,2.7649305,0
5,2775742840000,-0.99,4.86,2.4925237,0
5,2775792583000,0.08,0.95,0.19068487,0
5,2775842236000,-1.95,1.04,1.1168685,0
5,2775892254000,6.47,17.88,7.9679036,0
5,2775942242000,-2.75,14.18,2.5333846,0
5,2775992199000,-2.03,0.93,-4.1814466,0
5,2776042278000,1.73,16.04,-0.0,0
5,2776092205000,-1.18,8.69,0.19068487,0
5,2776142284000,4.67,8.89,-1.7297841,0
5,2776192242000,0.08,9.11,-1.4982382,0
5,2776242229000,3.21,9.11,0.50395286,0
5,2776292248000,4.56,10.04,0.84446156,0
5,2776342236000,3.02,9.08,0.84446156,0
5,2776392284000,2.83,8.96,-0.9125633,0
5,2776442242000,1.84,11.45,-0.42223078,0
5,2776492229000,-0.53,13.53,0.46309182,0
5,2776542278000,-3.02,12.68,1.5390993,0
5,2776592205000,-2.03,9.72,2.8738933,0
5,2776642284000,-0.69,9.58,1.920469,0
5,2776692211000,1.88,7.89,2.0294318,0
5,2776742290000,1.95,6.7,3.6774938,0
5,2776792278000,0.99,6.17,3.9499009,0
5,2776792278000,0.99,6.17,3.9499009,0
5,2776792278000,0.99,6.17,3.9499009,0
5,2776942211000,-0.19,11.37,6.891896,0
5,2776942211000,-0.19,11.37,6.891896,0
5,2777042217000,-1.99,14.29,4.7535014,0
5,2777092236000,-1.8,6.09,-3.3642259,0
5,2777142254000,0.19,8.66,-3.9090397,0
5,2777192242000,1.46,11.8,0.3405087,0
5,2777242199000,-1.12,10.08,-0.42223078,0
5,2777292248000,2.83,9.7,-0.95342433,0
5,2777342205000,1.46,9.23,-0.19068487,0
5,2777392284000,2.15,9.7,0.8036005,0
5,2777442211000,1.65,9.28,1.0351465,0
5,2777492229000,2.41,9.28,0.42223078,0
5,2777542217000,1.95,9.66,-0.040861044,0
5,2777592266000,1.54,10.38,0.50395286,0
5,2777642284000,0.95,11.73,0.95342433,0
5,2777692272000,1.65,12.07,0.19068487,0
5,2777742260000,-2.87,10.34,-0.9942854,0
5,2777792248000,-5.56,14.33,0.3405087,0
5,2777842266000,-1.33,10.34,3.718355,0
5,2777892315000,4.94,7.74,1.7978859,0
5,2777942211000,1.33,4.14,1.7978859,0
5,2777992260000,0.99,3.79,2.2201166,0
5,2778042248000,2.26,3.26,2.1792557,0
5,2778092266000,0.11,4.82,1.6480621,0
5,2778142254000,0.5,10.73,3.5276701,0
5,2778192242000,-1.04,7.89,2.1111538,0
5,2778242199000,-2.11,10.42,3.1463003,0
5,2778292248000,0.8,15.7,-0.53119355,0
5,2778342205000,9.0,18.47,7.8180795,0
5,2778392254000,-1.14,8.66,-0.42223078,0
5,2778442242000,-0.57,7.59,2.2609777,0
5,2778492260000,2.6,7.67,1.0351465,0
5,2778542248000,1.23,6.24,1.4165162,0
5,2778592236000,-0.38,4.44,1.4165162,0
5,2778642254000,3.87,7.08,2.7921712,0
5,2778692242000,3.87,7.86,0.8036005,0
5,2778742199000,-0.89,16.28,6.932757,0
5,2778792278000,-0.76,13.33,10.528529,0
5,2778842236000,2.76,8.28,5.8567495,0
5,2778892284000,2.07,3.72,3.759216,0
5,2778942272000,2.3,1.73,3.1463003,0
5,2778992290000,2.98,2.6,2.3018389,0
5,2779042217000,0.42,10.95,0.19068487,0
5,2779092388000,-3.21,8.73,3.8273177,0
5,2779142284000,-5.01,17.01,1.6480621,0
5,2779192303000,4.79,7.7,-0.53119355,0
5,2779242260000,5.79,14.6,3.486809,0
5,2779292278000,1.76,12.98,2.7649305,0
5,2779342205000,1.99,7.16,1.334794,0
5,2779392284000,0.08,7.06,1.5390993,0
5,2779442211000,0.34,5.98,2.2609777,0
5,2779492229000,3.72,4.06,-0.61291564,0
5,2779542278000,2.45,4.56,1.1441092,0
5,2779592266000,4.25,9.66,2.2609777,0
5,2779642223000,-1.46,10.08,6.701211,0
5,2779692242000,4.1,16.13,6.701211,0
5,2779742229000,0.53,15.43,10.147159,0
5,2779792278000,4.63,8.66,6.5922484,0
5,2779842266000,1.65,4.14,2.8330324,0
5,2779892284000,1.84,2.34,0.61291564,0
5,2779942211000,0.11,1.61,1.1849703,0
5,2779992260000,-0.84,2.87,0.313268,0
5,2780042217000,-3.95,15.83,1.7978859,0
5,2780092297000,-6.82,6.97,3.5957718,0
5,2780142223000,3.57,17.47,-0.9125633,0
5,2780192272000,8.01,14.79,6.2789803,0
5,2780192272000,8.01,14.79,6.2789803,0
5,2780292248000,1.08,10.38,1.2258313,0
5,2780342266000,1.73,7.5,3.0237172,0
5,2780392254000,0.34,5.01,1.879608,0
5,2780442242000,1.57,5.9,-0.27240697,0
5,2780492260000,0.57,4.79,2.6423476,0
5,2780542278000,5.41,6.55,1.607201,0
5,2780592297000,4.25,8.5,2.070293,0
5,2780642284000,-1.92,16.7,5.8976107,0
5,2780692272000,1.5,16.04,11.264028,0
5,2780742260000,0.15,9.11,6.6331096,0
5,2780792278000,1.46,5.41,1.7978859,0
5,2780842236000,1.12,2.49,2.2201166,0
5,2780892223000,1.12,2.37,3.718355,0
5,2780942272000,0.99,9.15,1.4573772,0
5,2780992199000,-0.61,8.81,2.2609777,0
5,2781042278000,-6.05,11.65,-0.7627395,0
5,2781092205000,4.29,17.01,2.7240696,0
5,2781142284000,8.39,16.51,2.152015,0
5,2781192242000,1.57,10.84,0.95342433,0
5,2781242321000,-2.11,6.32,1.7570249,0
5,2781292248000,0.57,3.68,0.38136974,0
5,2781342236000,1.46,4.56,1.607201,0
5,2781392284000,2.83,5.79,2.1111538,0
5,2781442852000,8.39,7.31,3.1463003,0
5,2781492199000,2.64,17.47,7.7363577,0
5,2781542278000,2.68,16.44,12.258313,0
5,2781592266000,0.72,8.62,6.1700177,0
5,2781642284000,4.1,7.21,5.175732,0
5,2781692272000,-0.42,5.79,2.4925237,0
5,2781742229000,-0.89,3.15,1.7978859,0
5,2781792248000,0.53,2.76,1.4573772,0
5,2781842236000,-2.41,10.31,3.568531,0
5,2781892254000,-1.27,6.51,0.84446156,0
5,2781892254000,-1.27,6.51,0.84446156,0
5,2781992229000,-2.45,15.85,3.6774938,0
5,2782042309000,2.91,11.73,0.27240697,0
5,2782042309000,2.91,11.73,0.27240697,0
5,2782102306000,12.03,12.95,3.405087,0
5,2782152264000,-0.38,11.5,0.14982383,0
5,2782202282000,-3.45,7.78,1.607201,0
5,2782252270000,1.8,8.01,1.1849703,0
5,2782302288000,3.26,4.6,2.3018389,0
5,2782352276000,1.84,5.98,2.6832085,0
5,2782402264000,5.22,8.08,1.879608,0
5,2782452282000,5.48,6.82,0.6946377,0
5,2782502300000,0.61,10.15,4.2495484,0
5,2782552288000,-1.84,16.66,6.3198414,0
5,2782602306000,2.26,13.72,7.5456724,0
5,2782652264000,-1.31,11.65,5.6660647,0
5,2782702343000,1.46,7.21,3.636633,0
5,2782752270000,0.0,6.24,3.0237172,0
5,2782802319000,-0.38,4.37,2.4925237,0
5,2782852276000,-0.69,3.3,2.152015,0
5,2782902264000,-1.18,8.77,1.7978859,0
5,2782952282000,-1.84,8.5,4.099725,0
5,2782952282000,-1.84,8.5,4.099725,0
5,2783052135000,0.19,7.35,4.6036777,0
5,2783102245000,2.41,15.21,-2.7921712,0
5,2783152416000,2.18,12.79,2.7921712,0
5,2783202312000,5.28,15.7,2.3699405,0
5,2783252270000,1.04,9.3,0.14982383,0
5,2783302288000,-0.69,5.94,0.3405087,0
5,2783352276000,2.98,8.62,0.8036005,0
5,2783402264000,4.29,5.9,2.7649305,0
5,2783452312000,3.57,6.66,2.0294318,0
5,2783502239000,3.57,7.63,2.2609777,0
5,2783552319000,4.29,8.28,-0.53119355,0
5,2783602276000,-8.35,17.73,0.19068487,0
5,2783652264000,-2.22,18.2,0.19068487,0
5,2783702282000,-0.99,15.17,5.243834,0
5,2783752300000,3.91,10.69,3.1054392,0
5,2783802319000,-0.27,5.09,1.6889231,0
5,2783852276000,0.0,1.14,1.7570249,0
5,2783902264000,1.23,-0.08,2.1111538,0
5,2783952282000,0.8,12.37,7.6273947,0
5,2784002270000,-3.17,18.92,3.5957718,0
5,2784052319000,-2.53,3.6,-2.0294318,0
5,2784102276000,-0.95,8.24,-2.3426998,0
5,2784152264000,2.15,15.21,-0.6537767,0
5,2784202282000,4.67,6.97,-1.607201,0
5,2784252300000,-0.42,11.07,-0.14982383,0
5,2784302288000,4.94,9.7,0.19068487,0
5,2784352306000,5.9,8.2,1.0351465,0
5,2784402264000,3.6,9.77,1.6480621,0
5,2784452282000,3.17,8.66,0.50395286,0
5,2784502270000,1.8,10.31,0.46309182,0
5,2784552288000,-2.56,14.44,0.6946377,0
5,2784602276000,-1.92,9.96,-1.3075534,0
5,2784652264000,-2.22,12.07,0.3405087,0
5,2784702282000,-2.75,11.41,0.88532263,0
5,2784752300000,4.02,9.0,3.759216,0
5,2784802319000,2.64,6.51,3.405087,0
5,2784852306000,0.93,5.83,3.1463003,0
5,2784902264000,-0.15,5.41,2.8330324,0
5,2784952282000,0.04,6.36,5.366417,0
5,2785002300000,0.76,9.43,6.469665,0
5,2785052380000,-0.72,13.76,7.7772183,0
5,2785102276000,-2.41,13.29,2.4516625,0
5,2785152294000,-0.11,5.28,-0.29964766,0
5,2785202282000,1.57,12.49,0.50395286,0
5,2785252300000,3.95,9.0,-0.29964766,0
5,2785302319000,0.76,10.12,1.4165162,0
5,2785352276000,-1.92,8.66,0.8036005,0
5,2785402264000,2.53,9.96,-0.42223078,0
5,2785452282000,2.79,8.92,1.2258313,0
5,2785502270000,2.96,9.38,2.0294318,0
5,2785552319000,2.83,9.11,1.607201,0
5,2785602276000,2.18,9.0,0.040861044,0
5,2785652294000,0.57,12.79,0.5720546,0
5,2785702282000,-0.69,13.76,0.19068487,0
5,2785752270000,-1.23,9.15,2.5606253,0
5,2785802288000,-1.12,10.65,4.671779,0
5,2785852276000,1.65,9.89,3.405087,0
5,2785902294000,1.95,4.14,1.4573772,0
5,2785952312000,1.31,4.4,2.6832085,0
5,2786002270000,1.8,6.55,3.759216,0
5,2786052319000,0.57,5.98,2.7921712,0
5,2786102276000,-0.34,6.47,0.6946377,0
5,2786152569000,0.69,8.16,3.0237172,0
5,2786202282000,0.5,10.15,4.2086873,0
5,2786252270000,-0.42,8.73,3.255263,0
5,2786302288000,-1.65,16.97,-1.56634,0
5,2786352276000,1.33,10.92,2.6014864,0
5,2786402264000,6.05,13.53,1.6889231,0
5,2786452282000,-0.23,9.66,0.88532263,0
5,2786502270000,-0.04,8.54,2.1111538,0
5,2786552288000,2.76,8.12,1.3756552,0
5,2786602276000,2.96,5.6,1.607201,0
5,2786652264000,0.95,5.22,1.6480621,0
5,2786702282000,3.38,6.36,1.4165162,0
5,2786752300000,4.48,7.08,1.9885708,0
5,2786802288000,-1.53,12.64,5.243834,0
5,2786852306000,0.89,14.52,5.053149,0
5,2786902294000,-0.19,17.35,11.182305,0
5,2786952282000,1.88,10.5,5.47538,0
5,2787002331000,0.15,6.02,2.2201166,0
5,2787052288000,0.46,3.38,1.1849703,0
5,2787102276000,0.23,1.73,2.1111538,0
5,2787152294000,2.07,0.42,-1.1441092,0
5,2787202282000,-0.38,8.85,2.0294318,0
5,2787252270000,0.0,9.89,4.903325,0
5,2787302288000,-3.49,6.09,0.46309182,0
5,2787352337000,2.49,19.08,1.920469,0
5,2787402264000,9.23,18.31,7.43671,0
5,2787452312000,0.72,12.37,1.9885708,0
5,2787502270000,-1.46,6.24,1.3075534,0
5,2787552319000,1.54,5.75,1.920469,0
5,2787602276000,1.42,4.29,2.1792557,0
5,2787652264000,2.26,9.08,1.2666923,0
5,2787702282000,3.21,5.79,2.5606253,0
5,2787702282000,3.21,5.79,2.5606253,0
5,2787842358000,-1.53,13.67,9.956474,0
5,2787842358000,-1.53,13.67,9.956474,0
5,2787942242000,-1.46,8.69,4.7535014,0
5,2787992290000,-0.38,4.71,1.9477097,0
5,2787992290000,-0.38,4.71,1.9477097,0
5,2788052319000,0.08,2.45,0.38136974,0
5,2788102367000,-0.19,4.86,0.53119355,0
5,2788152294000,-1.8,12.34,3.8681788,0
5,2788202282000,0.57,2.96,-0.19068487,0
5,2788252331000,-4.4,11.18,7.3549876,0
5,2788312237000,1.54,9.11,-0.53119355,0
5,2788362225000,11.5,15.4,2.1111538,0
5,2788412304000,-0.84,10.95,1.3756552,0
5,2788462200000,-2.07,6.7,0.14982383,0
5,2788512310000,0.99,7.55,0.38136974,0
5,2788562237000,1.33,1.8,1.0760075,0
5,2788612286000,1.12,1.08,2.982856,0
5,2788662365000,3.21,13.63,1.4573772,0
5,2788712322000,4.52,4.56,1.7570249,0
5,2788762218000,-3.87,12.15,6.2789803,0
5,2788812298000,2.83,18.12,9.425281,0
5,2788862255000,8.54,16.02,10.337844,0
5,2788912304000,3.68,5.56,3.0645783,0
5,2788962200000,-1.27,3.45,1.9885708,0
5,2789012249000,-0.34,0.8,1.1168685,0
5,2789062237000,-0.57,-1.12,1.2258313,0
5,2789112286000,-0.19,4.99,1.56634,0
5,2789162212000,1.76,14.52,4.399372,0
5,2789212292000,-10.42,9.7,-0.46309182,0
5,2789262188000,4.67,17.43,3.173541,0
5,2789312298000,11.99,11.92,4.399372,0
5,2789362286000,0.5,11.69,0.23154591,0
5,2789412243000,-3.11,8.05,0.53119355,0
5,2789462261000,0.72,6.44,2.070293,0
5,2789512249000,2.03,5.33,2.9147544,0
5,2789562298000,-0.23,2.53,1.7297841,0
5,2789612255000,3.64,8.28,2.4925237,0
5,2789662273000,5.63,7.78,1.1168685,0
5,2789712231000,-2.53,17.43,8.62168,0
5,2789762341000,1.69,15.09,12.367276,0
5,2789812237000,3.49,9.96,7.3958488,0
5,2789862316000,2.15,7.35,3.445948,0
5,2789912212000,-1.5,4.63,2.0294318,0
5,2789962261000,-0.89,2.6,0.10896278,0
5,2790012249000,0.19,2.03,-1.334794,0
5,2790062267000,-2.14,13.06,4.671779,0
5,2790112255000,-0.76,6.66,1.1441092,0
5,2790162304000,-4.29,3.68,-0.23154591,0
5,2790212200000,3.68,17.35,-1.334794,0
5,2790262310000,6.7,15.66,6.238119,0
5,2790312206000,6.74,13.25,4.7126403,0
5,2790362316000,-1.04,10.65,1.2666923,0
5,2790412212000,-3.06,9.15,0.84446156,0
5,2790462292000,1.33,6.13,2.7240696,0
5,2790512249000,1.31,1.69,-1.7570249,0
5,2790562298000,2.26,3.45,0.23154591,0
5,2790612255000,4.06,7.01,2.2609777,0
5,2790662334000,1.08,7.67,7.3141265,0
5,2790712200000,6.63,17.39,7.6954966,0
5,2790762310000,0.93,16.89,12.176591,0
5,2790812206000,2.91,10.34,5.012288,0
5,2790862652000,-1.69,5.18,1.7978859,0
5,2790912243000,-1.88,2.56,2.070293,0
5,2790962292000,-0.11,0.93,1.0760075,0
5,2791012249000,2.07,3.21,-0.84446156,0
5,2791062298000,0.19,7.74,3.8681788,0
5,2791112225000,-6.51,10.12,3.1054392,0
5,2791162304000,4.48,12.76,-2.0294318,0
5,2791212200000,4.9,18.58,5.175732,0
5,2791262279000,4.29,9.92,2.0294318,0
5,2791312206000,-4.06,6.85,-0.5720546,0
5,2791362316000,2.6,7.5,-1.0760075,0
5,2791412212000,1.76,6.13,1.4573772,0
5,2791462292000,2.3,6.66,1.6480621,0
5,2791512218000,4.44,7.01,-0.50395286,0
5,2791562298000,2.49,10.92,2.5606253,0
5,2791612225000,-4.14,14.9,-2.3699405,0
5,2791662304000,-8.58,19.38,0.5720546,0
5,2791712231000,-1.14,15.21,5.47538,0
5,2791762279000,7.86,10.76,2.982856,0
5,2791812237000,-0.34,4.52,1.7570249,0
5,2791862286000,-0.3,0.0,1.6480621,0
5,2791912212000,3.6,0.89,0.08172209,0
5,2791962292000,-0.89,13.1,7.246025,0
5,2792012249000,-5.67,11.88,9.234595,0
5,2792062298000,4.75,15.94,-3.2961242,0
5,2792112225000,-1.8,9.04,-0.29964766,0
5,2792162304000,-4.99,9.92,-2.6423476,0
5,2792212200000,4.29,10.38,-3.636633,0
5,2792262279000,0.31,9.0,-1.9885708,0
5,2792312206000,4.71,10.19,-2.2609777,0
5,2792362316000,6.21,9.3,1.5390993,0
5,2792412212000,4.37,8.16,0.53119355,0
5,2792462261000,2.45,9.51,0.6537767,0
5,2792512279000,1.18,10.15,1.334794,0
5,2792562267000,0.72,11.73,-0.6946377,0
5,2792612225000,-2.53,13.76,-1.879608,0
5,2792662273000,-3.17,11.65,0.38136974,0
5,2792712200000,-3.3,12.45,1.8387469,0
5,2792762310000,2.03,10.04,1.4982382,0
5,2792812206000,2.26,7.89,3.255263,0
5,2792862316000,1.54,5.28,2.4925237,0
5,2792912212000,0.15,4.94,1.879608,0
5,2792962292000,-0.23,3.83,4.0588636,0
5,2793012249000,3.72,7.7,6.2789803,0
5,2793062267000,0.72,14.21,6.238119,0
5,2793112225000,-1.31,11.3,7.273266,0
5,2793162273000,-3.11,14.02,-4.2086873,0
5,2793212231000,0.31,5.43,-0.23154591,0
5,2793262310000,1.5,10.73,-3.5276701,0
5,2793312206000,-0.15,11.22,1.334794,0
5,2793362286000,2.6,9.66,-1.56634,0
5,2793412243000,3.02,9.11,0.14982383,0
5,2793462292000,3.41,8.81,1.1849703,0
5,2793512249000,2.64,8.85,1.7978859,0
5,2793562298000,2.72,9.0,0.3405087,0
5,2793612255000,2.76,10.38,1.0760075,0
5,2793662304000,0.76,12.98,1.1849703,0
5,2793712200000,-4.48,11.69,-0.53119355,0
5,2793762279000,-0.84,13.63,0.7627395,0
5,2793812237000,-1.33,11.73,5.09401,0
5,2793862347000,3.87,7.78,2.4925237,0
5,2793912212000,3.15,3.17,2.3018389,0
5,2793962292000,1.31,3.91,2.7649305,0
5,2794012249000,0.89,4.75,2.4108016,0
5,2794062267000,-0.95,4.14,2.982856,0
5,2794112225000,-0.99,6.55,0.46309182,0
5,2794162273000,-1.42,9.89,4.140586,0
5,2794212231000,-2.68,8.43,0.95342433,0
5,2794262279000,0.19,14.86,-0.0,0
5,2794312389000,5.71,16.78,5.47538,0
5,2794362438000,7.4,10.8,5.053149,0
5,2794412304000,-1.38,8.62,-0.3405087,0
5,2794462322000,-0.8,8.43,0.6946377,0
5,2794522625000,0.0,3.76,1.4982382,0
5,2794572216000,1.08,4.99,1.56634,0
5,2794622265000,6.02,8.01,1.8387469,0
5,2794672253000,3.72,6.17,0.53119355,0
5,2794722271000,-3.21,15.28,9.152874,0
5,2794772259000,5.37,15.83,10.460427,0
5,2794822277000,-3.6,12.53,8.689782,0
5,2794872234000,2.79,9.23,4.5628166,0
5,2794922283000,-0.8,7.25,3.718355,0
5,2794972240000,-1.23,4.4,1.3075534,0
5,2795022259000,0.8,1.76,0.84446156,0
5,2795072247000,0.5,1.08,-0.08172209,0
5,2795122295000,-3.64,11.11,4.2086873,0
5,2795172253000,-2.18,9.81,2.0294318,0
5,2795222301000,-3.57,5.22,2.3426998,0
5,2795272228000,-0.34,17.67,-0.9942854,0
5,2795322277000,7.21,15.89,6.782933,0
5,2795372265000,6.74,5.71,4.2086873,0
5,2795422283000,3.06,6.44,2.4516625,0
5,2795524395000,3.06,6.44,2.4516625,0
5,2795524395000,3.06,6.44,2.4516625,0
5,2795572247000,2.03,5.48,1.56634,0
5,2795622265000,0.69,2.22,3.3778462,0
5,2795672314000,7.27,9.3,0.42223078,0
5,2795722271000,2.76,6.7,0.7218784,0
5,2795772320000,-2.22,18.05,8.240311,0
5,2795832287000,3.02,16.44,11.032481,0
5,2795882244000,2.15,8.01,5.053149,0
5,2795932262000,-0.76,7.89,4.2904096,0
5,2795982250000,-0.34,3.26,1.4573772,0
5,2796032268000,0.72,1.42,0.313268,0
5,2796082256000,0.46,2.87,2.152015,0
5,2796132305000,-1.46,10.99,2.9556155,0
5,2796182201000,-1.42,7.89,1.4982382,0
5,2796232281000,-2.26,8.43,3.255263,0
5,2796282238000,-1.53,15.7,-0.8036005,0
5,2796332317000,12.83,15.89,5.325556,0
5,2796382244000,4.14,14.25,2.7240696,0
5,2796432293000,-2.11,7.93,0.50395286,0
5,2796482250000,1.46,7.16,3.568531,0
5,2796532299000,-0.08,3.87,1.2666923,0
5,2796582256000,2.83,7.7,0.46309182,0
5,2796632305000,0.69,4.52,1.4573772,0
5,2796682262000,2.56,5.52,0.84446156,0
5,2796732281000,0.27,11.96,5.053149,0
5,2796782207000,1.69,15.02,5.938472,0
5,2796832287000,0.04,16.21,11.372991,0
5,2796882244000,1.95,10.5,6.6331096,0
5,2796932262000,0.8,5.05,2.2609777,0
5,2796982220000,-0.95,2.6,0.6537767,0
5,2797032238000,-0.23,1.54,0.6537767,0
5,2797082317000,-0.8,2.53,0.42223078,0
5,2797132305000,-0.65,14.63,3.1054392,0
5,2797182201000,-1.99,6.02,2.8738933,0
5,2797232281000,-3.11,9.89,2.6014864,0
5,2797282238000,-0.42,14.82,-1.879608,0
5,2797332287000,11.96,16.55,2.6423476,0
5,2797382244000,3.99,9.85,1.920469,0
5,2797432262000,-2.26,6.74,0.53119355,0
5,2797482220000,0.69,8.35,2.7921712,0
5,2797532268000,3.38,4.37,1.5390993,0
5,2797582226000,2.37,5.75,1.56634,0
5,2797632305000,2.68,7.5,1.4165162,0
5,2797682232000,4.6,9.43,0.3405087,0
5,2797732281000,-4.9,13.29,5.175732,0
5,2797782207000,0.61,15.24,11.073342,0
5,2797832287000,8.12,11.18,7.668256,0
5,2797882244000,2.64,8.58,6.4015636,0
5,2797932323000,0.04,7.25,3.9090397,0
5,2797982281000,-1.23,2.11,1.3756552,0
5,2798032268000,0.27,3.45,0.92618364,0
5,2798082256000,-0.3,7.82,3.568531,0
5,2798132305000,-1.88,4.14,1.6480621,0
5,2798182232000,-1.92,3.76,2.1792557,0
5,2798232311000,-0.72,9.04,0.92618364,0
5,2798282238000,5.24,18.54,1.7570249,0
5,2798332287000,8.01,18.01,1.4165162,0
5,2798382244000,4.48,10.88,2.1111538,0
5,2798432262000,-0.27,9.58,0.53119355,0
5,2798482250000,-0.38,8.24,1.4982382,0
5,2798532268000,3.57,4.75,2.3426998,0
5,2798582226000,1.88,5.79,2.7921712,0
5,2798632305000,1.8,6.66,2.3699405,0
5,2798682262000,6.74,6.13,1.3756552,0
5,2798732281000,2.3,9.92,4.0588636,0
5,2798782207000,1.61,15.83,5.243834,0
5,2798832348000,-0.99,14.37,8.158588,0
5,2798882275000,4.52,9.72,6.66035,0
5,2798932262000,1.31,5.71,4.671779,0
5,2798982220000,0.76,2.79,1.6480621,0
5,2799032268000,2.11,1.5,2.2609777,0
5,2799082226000,-1.69,5.98,4.903325,0
5,2799132305000,-5.18,8.58,-0.10896278,0
5,2799182201000,-2.14,7.21,4.8216033,0
5,2799232281000,4.56,13.57,-5.706926,0
5,2799282238000,2.34,14.63,1.9885708,0
5,2799332287000,5.09,16.21,0.27240697,0
5,2799382275000,3.02,9.81,0.14982383,0
5,2799432293000,-0.23,4.94,-0.8036005,0
5,2799482250000,1.08,8.43,1.4573772,0
5,2799532268000,3.76,4.6,1.6889231,0
5,2799582226000,1.88,6.85,3.5957718,0
5,2799632305000,4.86,8.16,-0.27240697,0
5,2799682201000,-4.67,13.33,2.152015,0
5,2799732311000,-3.02,17.54,-0.9942854,0
5,2799782238000,-3.53,16.59,6.2108784,0
5,2799832317000,8.05,13.87,4.2904096,0
5,2799882244000,-0.72,6.93,2.5606253,0
5,2799932262000,-0.57,2.72,1.1168685,0
5,2799982311000,1.12,-0.91,0.10896278,0
5,2800032268000,1.14,1.5,2.7921712,0
5,2800082226000,2.07,19.31,10.501288,0
5,2800132336000,-3.3,10.61,-3.6774938,0
5,2800182201000,-1.88,7.93,-3.2961242,0
5,2800232281000,-5.01,15.75,-2.3699405,0
5,2800282238000,8.16,8.2,-5.7477865,0
5,2800332287000,1.95,9.89,-0.53119355,0
5,2800382244000,3.17,9.47,-3.214402,0
5,2800432293000,8.28,9.19,2.5333846,0
5,2800482250000,4.79,9.19,2.070293,0
5,2800532421000,1.42,9.11,0.53119355,0
5,2800582378000,1.08,8.89,-0.50395286,0
5,2800632275000,-5.79,15.85,0.10896278,0
5,2800682232000,-2.34,11.69,-1.3756552,0
5,2800732281000,0.76,11.69,2.3018389,0
5,2800782238000,0.76,9.96,4.7126403,0
5,2800832317000,3.87,6.32,1.8387469,0
5,2800882275000,1.18,3.45,2.7921712,0
5,2800932293000,-0.27,4.52,3.9090397,0
5,2800982281000,2.91,4.86,4.140586,0
5,2801032299000,1.57,4.75,1.8387469,0
5,2801082256000,-1.8,7.59,2.9147544,0
5,2801132305000,-2.49,8.62,4.862464,0
5,2801182232000,-1.53,8.39,2.3699405,0
5,2801232281000,-0.38,18.16,-2.982856,0
5,2801282207000,-1.18,10.84,2.6423476,0
5,2801332287000,6.47,16.17,2.9556155,0
5,2801382244000,0.61,9.62,2.4925237,0
5,2801432262000,0.69,6.78,1.7297841,0
5,2801482220000,0.8,6.05,1.3075534,0
5,2801532360000,2.03,5.43,2.4925237,0
5,2801582226000,1.42,5.33,1.7570249,0
5,2801632305000,2.26,7.74,1.8387469,0
5,2801682232000,1.95,15.13,7.082581,0
5,2801732342000,-3.87,15.13,7.082581,0
5,2801782482000,2.26,16.51,9.956474,0
5,2801782482000,2.26,16.51,9.956474,0
5,2801882275000,0.57,4.63,1.6889231,0
5,2801932262000,-0.38,-0.15,0.88532263,0
5,2801982250000,0.57,0.23,1.9477097,0
5,2802032268000,2.64,6.97,-0.040861044,0
5,2802082256000,-8.66,16.17,0.42223078,0
5,2802132305000,-5.56,8.92,1.6480621,0
5,2802182262000,0.95,16.32,0.5720546,0
5,2802232311000,8.16,16.4,7.8589406,0
5,2802282238000,2.49,10.27,1.4573772,0
5,2802282238000,2.49,10.27,1.4573772,0
5,2802392681000,0.65,7.74,3.0645783,0
5,2802442333000,-0.3,5.24,2.9556155,0
5,2802492229000,-0.5,5.79,0.38136974,0
5,2802542278000,0.65,9.66,3.990762,0
5,2802592236000,2.6,16.51,8.281172,0
5,2802642284000,-0.89,13.18,9.043911,0
5,2802692303000,2.03,6.78,3.445948,0
5,2802742290000,-0.38,3.02,1.920469,0
5,2802792278000,-0.53,0.38,1.1168685,0
5,2802842297000,1.33,5.18,0.61291564,0
5,2802892254000,1.23,12.22,1.2258313,0
5,2802942272000,-4.75,7.67,2.8330324,0
5,2802992199000,-3.83,14.56,0.19068487,0
5,2803042339000,8.66,17.67,4.372132,0
5,2803092236000,2.98,10.84,3.486809,0
5,2803142284000,-1.38,6.66,0.9942854,0
5,2803192211000,0.53,7.01,2.1792557,0
5,2803242321000,3.76,5.86,1.0760075,0
5,2803292644000,-1.18,3.17,1.920469,0
5,2803342266000,2.98,6.44,-0.08172209,0
5,2803392223000,-0.95,18.09,7.5865335,0
5,2803442272000,0.31,14.18,9.997335,0
5,2803492260000,0.34,11.18,8.076866,0
5,2803542278000,2.76,5.6,2.5606253,0
5,2803592205000,0.04,2.64,1.2666923,0
5,2803642254000,-1.08,1.5,1.2666923,0
5,2803642254000,-1.08,1.5,1.2666923,0
5,2803714977000,1.57,10.27,0.84446156,0
5,2803772320000,-0.08,6.89,3.173541,0
5,2803822338000,-8.88,15.94,-4.9850473,0
5,2803872326000,9.11,18.73,5.243834,0
5,2803932262000,2.98,12.45,0.6537767,0
5,2803982220000,-1.99,7.63,1.9477097,0
5,2804032299000,0.34,5.28,0.23154591,0
5,2804082226000,-0.8,2.07,0.50395286,0
5,2804132305000,1.8,5.09,1.56634,0
5,2804182201000,3.57,9.15,1.2666923,0
5,2804232281000,3.3,7.74,2.2609777,0
5,2804282207000,-0.3,17.05,6.742072,0
5,2804332287000,1.54,12.91,8.689782,0
5,2804382244000,0.11,10.61,6.3607025,0
5,2804432262000,0.72,8.16,3.255263,0
5,2804482220000,0.34,2.6,0.5720546,0
5,2804532268000,-0.65,1.57,2.070293,0
5,2804582226000,2.15,6.21,0.84446156,0
5,2804632275000,-0.89,11.18,0.6537767,0
5,2804682232000,-7.27,13.44,2.7240696,0
5,2804732281000,12.91,18.09,2.3426998,0
5,2804782207000,0.15,9.58,1.1168685,0
