user-id,timestamp,accX,accY,accZ,ActivityEncoded
28,1824352276000,0.04,3.76,-0.19068487,5
28,1824402294000,-0.99,5.18,2.4516625,5
28,1824452282000,-1.04,6.74,5.7886477,5
28,1824502300000,0.31,13.38,9.466142,5
28,1824552319000,-1.04,9.77,8.240311,5
28,1824602276000,-1.95,13.44,2.8330324,5
28,1824652264000,2.91,9.43,1.1849703,5
28,1824702343000,1.18,9.7,0.61291564,5
28,1824762249000,0.0,8.2,1.6480621,5
28,1824812206000,2.49,8.39,0.23154591,5
28,1824862286000,1.38,8.5,0.8036005,5
28,1824912243000,1.73,8.62,2.7240696,5
28,1824972362000,2.76,9.47,2.7240696,5
28,1825022106000,2.72,10.73,2.2609777,5
28,1825072369000,4.56,11.35,2.5333846,5
28,1825122265000,2.96,12.91,3.5957718,5
28,1825172283000,2.41,10.84,-0.6946377,5
28,1825222210000,-3.3,17.58,2.3426998,5
28,1825272259000,2.76,11.07,1.9477097,5
28,1825322247000,1.8,8.12,2.1792557,5
28,1825372265000,-0.53,5.41,1.0351465,5
28,1825422253000,0.89,4.06,0.53119355,5
28,1825472271000,-0.69,5.22,1.879608,5
28,1825522259000,-1.31,7.46,6.851035,5
28,1825572277000,0.04,15.6,9.507003,5
28,1825622265000,-2.53,9.3,7.7363577,5
28,1825672283000,-1.69,15.75,1.9885708,5
28,1825722301000,3.06,4.21,-1.1849703,5
28,1825772289000,3.26,12.07,1.1849703,5
28,1825822216000,-1.61,7.4,1.920469,5
28,1825872265000,2.64,8.85,0.46309182,5
28,1825922222000,1.73,8.01,1.1849703,5
28,1825972271000,1.99,8.85,1.3756552,5
28,1826022198000,2.68,9.81,2.6832085,5
28,1826072277000,1.27,11.18,2.070293,5
28,1826122234000,4.79,10.69,2.8738933,5
28,1826172283000,4.63,13.18,3.636633,5
28,1826222210000,3.95,12.68,0.040861044,5
28,1826272259000,-4.86,16.28,1.5390993,5
28,1826322247000,0.72,11.14,0.42223078,5
28,1826372265000,3.06,8.69,2.070293,5
28,1826422253000,0.34,6.17,1.607201,5
28,1826472271000,0.34,4.71,-0.0,5
28,1826522259000,-0.91,4.99,1.8387469,5
28,1826572277000,-1.18,6.21,5.5571017,5
28,1826622204000,0.34,14.21,9.302697,5
28,1826672283000,-0.38,9.19,8.499097,5
28,1826722210000,-0.53,14.6,4.1814466,5
28,1826772259000,1.95,7.78,0.10896278,5
28,1826822247000,0.46,9.47,-0.29964766,5
28,1826872265000,1.08,8.47,1.4165162,5
28,1826922253000,1.12,8.62,0.23154591,5
28,1826972271000,1.8,8.69,0.5720546,5
28,1827022259000,1.73,8.92,1.2258313,5
28,1827072277000,2.98,9.11,2.4108016,5
28,1827122234000,2.18,10.73,2.5606253,5
28,1827172283000,4.1,10.99,2.4516625,5
28,1827222240000,3.02,12.64,2.5333846,5
28,1827272289000,4.29,12.41,0.5720546,5
28,1827322216000,-4.71,15.43,0.9942854,5
28,1827372265000,0.38,13.59,1.0351465,5
28,1827422253000,2.56,8.73,1.7297841,5
28,1827472271000,1.33,6.82,1.9477097,5
28,1827522198000,0.5,4.56,-0.040861044,5
28,1827572277000,-0.42,4.71,1.4982382,5
28,1827622234000,-0.95,5.18,4.7535014,5
28,1827672344000,0.72,11.07,10.732834,5
28,1827722271000,-2.6,14.33,6.742072,5
28,1827772259000,-3.68,12.68,5.6252036,5
28,1827822216000,0.93,9.53,1.0760075,5
28,1827872265000,2.6,9.0,-2.3018389,5
28,1827922222000,-0.11,8.85,1.56634,5
28,1827972271000,-0.65,9.19,1.3756552,5
28,1828022228000,4.82,8.54,1.1441092,5
28,1828072277000,2.49,8.5,2.6423476,5
28,1828122234000,3.15,8.05,2.1792557,5
28,1828172314000,3.06,9.58,2.3699405,5
28,1828222271000,1.8,10.61,1.7570249,5
28,1828272259000,4.6,11.92,2.3426998,5
28,1828322247000,3.17,12.91,3.2961242,5
28,1828372295000,2.56,10.92,-0.46309182,5
28,1828422283000,-4.25,14.71,2.3699405,5
28,1828472271000,2.41,12.34,0.6537767,5
28,1828522228000,2.68,8.39,2.6423476,5
28,1828572308000,0.57,6.93,2.070293,5
28,1828622204000,-0.72,5.24,0.6946377,5
28,1828672344000,-0.8,5.48,2.0294318,5
28,1828722240000,0.57,6.74,4.372132,5
28,1828772289000,2.22,11.26,10.18802,5
28,1828822247000,1.23,16.02,7.8861814,5
28,1828872265000,-1.12,12.45,2.4516625,5
28,1828922222000,-1.57,2.07,0.10896278,5
28,1828972271000,5.67,13.53,1.3756552,5
28,1829022228000,-0.11,6.36,2.982856,5
28,1829072277000,2.96,9.72,1.0351465,5
28,1829122234000,1.27,7.93,1.5390993,5
28,1829172283000,1.18,8.43,1.1168685,5
28,1829222210000,1.33,9.3,1.1849703,5
28,1829272259000,1.42,11.35,2.1792557,5
28,1829322216000,2.83,11.03,2.1111538,5
28,1829372265000,5.6,11.35,2.982856,5
28,1829422222000,4.1,12.41,0.9942854,5
28,1829472271000,-3.76,15.66,-0.0,5
28,1829522198000,-2.34,14.86,0.92618364,5
28,1829572277000,1.92,8.85,1.3756552,5
28,1829622234000,2.87,6.17,1.5390993,5
28,1829672283000,0.0,3.95,-0.61291564,5
28,1829722271000,-1.31,5.75,2.3426998,5
28,1829772259000,-0.15,6.55,4.862464,5
28,1829822277000,1.33,9.11,9.697687,5
28,1829872265000,-0.19,15.17,8.008764,5
28,1829922283000,-2.68,10.57,4.7126403,5
28,1829972271000,0.5,12.79,1.2666923,5
28,1830022320000,0.93,6.59,-2.0294318,5
28,1830072277000,1.92,9.81,1.4573772,5
28,1830122204000,0.46,8.85,1.0760075,5
28,1830172344000,2.98,8.35,0.88532263,5
28,1830232220000,2.15,8.62,1.334794,5
28,1830282238000,2.68,9.15,2.3699405,5
28,1830332287000,1.46,10.92,2.4516625,5
28,1830382214000,4.18,10.88,2.2609777,5
28,1830432262000,4.67,12.83,2.982856,5
28,1830482220000,4.4,11.69,1.56634,5
28,1830532268000,-3.06,13.67,0.14982383,5
28,1830532268000,-3.06,13.67,0.14982383,5
28,1830632214000,2.83,9.15,2.3426998,5
28,1830682354000,2.22,6.93,2.1111538,5
28,1830732220000,-0.91,4.4,0.10896278,5
28,1830782268000,-0.91,4.1,1.56634,5
28,1830832226000,-0.72,5.94,5.175732,5
28,1830882275000,1.12,10.15,9.425281,5
28,1830932201000,1.14,13.63,9.00305,5
28,1830982281000,-1.18,9.81,4.944186,5
28,1831032268000,0.27,13.29,1.4982382,5
28,1831082287000,1.04,6.13,-2.6832085,5
28,1831132244000,2.26,10.04,1.1441092,5
28,1831182262000,0.46,8.92,0.8036005,5
28,1831232250000,2.22,8.69,0.9942854,5
28,1831282268000,2.15,8.81,1.4573772,5
28,1831332226000,2.45,9.11,2.5606253,5
28,1831382275000,2.15,9.96,2.7921712,5
28,1831432232000,3.87,10.61,2.1792557,5
28,1831482281000,4.75,11.88,2.5606253,5
28,1831532238000,3.49,12.34,2.6014864,5
28,1831582256000,-0.99,11.92,-0.42223078,5
28,1831632244000,-3.45,16.36,2.0294318,5
28,1831682262000,2.6,10.69,2.2201166,5
28,1831732281000,2.49,7.74,2.3018389,5
28,1831782268000,-0.42,5.56,1.0760075,5
28,1831832256000,-1.04,3.34,0.95342433,5
28,1831882275000,-1.27,4.82,3.486809,5
28,1831932201000,0.11,8.89,9.084772,5
28,1831982281000,-0.89,17.62,7.9270425,5
28,1832032207000,-0.89,9.72,7.504812,5
28,1832082287000,-0.11,11.56,1.8387469,5
28,1832132244000,2.26,5.37,-2.3699405,5
28,1832182690000,2.3,10.99,0.5720546,5
28,1832232220000,-1.38,8.69,1.56634,5
28,1832282268000,2.22,9.11,0.6537767,5
28,1832332226000,2.45,8.47,0.95342433,5
28,1832382275000,1.61,8.92,1.7978859,5
28,1832432232000,2.56,9.62,2.6832085,5
28,1832482281000,1.57,10.95,2.1792557,5
28,1832532207000,4.21,11.11,2.8738933,5
28,1832582256000,4.48,12.95,2.6832085,5
28,1832632214000,3.68,11.92,0.7627395,5
28,1832682262000,-4.18,13.02,1.1849703,5
28,1832732220000,1.08,13.1,1.0351465,5
28,1832782268000,3.38,9.72,2.4925237,5
28,1832832226000,1.31,6.32,1.879608,5
28,1832882275000,-0.57,4.29,0.3405087,5
28,1832932232000,-1.27,4.71,1.9477097,5
28,1832982281000,-0.3,6.05,5.175732,5
28,1833032238000,1.84,11.3,9.00305,5
28,1833082287000,0.42,13.99,8.689782,5
28,1833132244000,-0.95,15.98,2.5333846,5
28,1833182293000,0.08,5.94,1.1441092,5
28,1833232250000,1.08,7.55,-2.3018389,5
28,1833282238000,3.17,10.19,1.3756552,5
28,1833332226000,0.31,8.69,1.3756552,5
28,1833382305000,3.11,9.0,1.4982382,5
28,1833432201000,3.11,8.24,1.3075534,5
28,1833482281000,2.03,8.39,1.1441092,5
28,1833532207000,0.69,10.42,1.7978859,5
28,1833582256000,1.88,11.18,1.8387469,5
28,1833632244000,5.09,11.26,2.982856,5
28,1833682262000,5.18,12.83,3.214402,5
28,1833732220000,0.46,12.64,-0.95342433,5
28,1833782299000,-4.48,15.7,1.7297841,5
28,1833832226000,2.3,10.42,1.1849703,5
28,1833882305000,2.79,6.97,2.3426998,5
28,1833932201000,-0.57,4.94,1.2666923,5
28,1833982281000,-0.84,4.44,0.92618364,5
28,1834032238000,-1.38,4.82,3.2961242,5
28,1834082287000,-0.15,7.7,8.076866,5
28,1834132214000,0.23,16.86,9.275456,5
28,1834182262000,-1.57,8.66,7.9270425,5
28,1834232220000,-0.38,15.51,-2.6423476,5
28,1834282268000,2.07,5.63,0.040861044,5
28,1834332256000,0.0,9.77,0.61291564,5
28,1834382275000,2.26,9.3,0.6946377,5
28,1834432232000,2.07,8.92,1.0760075,5
28,1834482281000,1.92,8.81,1.1441092,5
28,1834532238000,2.98,8.35,0.9942854,5
28,1834582287000,1.73,9.77,2.152015,5
28,1834632214000,2.68,10.5,2.2609777,5
28,1834682262000,4.33,11.5,2.7240696,5
28,1834732220000,3.11,13.02,3.5957718,5
28,1834782268000,3.34,11.96,-0.14982383,5
28,1834832287000,-4.56,15.51,0.5720546,5
28,1834882275000,2.91,11.84,2.1111538,5
28,1834932201000,2.26,8.05,2.0294318,5
28,1834982281000,-0.42,5.24,1.3075534,5
28,1835032207000,-0.34,3.87,0.9942854,5
28,1835082287000,-0.53,5.18,3.173541,5
28,1835132244000,0.19,6.97,7.205164,5
28,1835182262000,-0.11,15.94,8.771504,5
28,1835232250000,-0.95,11.07,8.281172,5
28,1835282207000,0.34,13.76,-0.08172209,5
28,1835332439000,1.8,5.48,0.6537767,5
28,1835382397000,0.84,9.66,-0.19068487,5
28,1835432201000,0.65,9.7,0.9942854,5
28,1835482403000,1.57,8.66,1.3075534,5
28,1835532238000,2.37,8.47,1.3075534,5
28,1835582287000,2.68,8.43,1.3075534,5
28,1835582287000,2.68,8.43,1.3075534,5
28,1835642498000,1.88,9.28,1.56634,5
28,1835692486000,0.95,11.41,2.0294318,5
28,1835743145000,4.52,10.95,2.8330324,5
28,1835802319000,4.37,12.72,3.336985,5
28,1835862286000,2.45,11.35,-0.95342433,5
28,1835912243000,-4.56,16.4,1.4573772,5
28,1835962261000,1.99,11.5,0.7627395,5
28,1836012249000,2.64,4.99,0.95342433,5
28,1836072338000,-0.34,4.99,0.95342433,5
28,1836122356000,-0.53,4.4,0.84446156,5
28,1836172375000,-0.89,5.71,3.9499009,5
28,1836222240000,0.15,8.01,8.076866,5
28,1836272289000,0.65,16.09,8.689782,5
28,1836322216000,-1.92,14.44,6.782933,5
28,1836372295000,1.04,11.88,-2.3699405,5
28,1836422253000,1.69,2.72,-3.255263,5
28,1836472271000,1.65,11.84,2.6423476,5
28,1836522198000,-0.04,9.23,-0.19068487,5
28,1836572277000,2.6,8.66,2.3426998,5
28,1836622234000,2.34,8.58,0.95342433,5
28,1836672283000,3.26,8.31,1.4982382,5
28,1836722240000,1.57,9.77,2.070293,5
28,1836772259000,2.11,11.3,1.9885708,5
28,1836822247000,4.82,11.75,2.8738933,5
28,1836872265000,5.18,13.53,3.1463003,5
28,1836922253000,-1.18,12.72,-0.84446156,5
28,1836972271000,-3.41,14.98,1.2258313,5
28,1837022198000,2.49,9.92,1.4573772,5
28,1837072308000,2.68,6.63,2.1111538,5
28,1837122204000,-0.46,4.63,0.95342433,5
28,1837172344000,-0.8,5.13,1.7297841,5
28,1837222210000,-0.57,5.75,3.990762,5
28,1837272259000,0.0,8.39,7.9270425,5
28,1837322216000,1.61,15.79,8.580819,5
28,1837372295000,-1.95,10.88,7.082581,5
28,1837422253000,0.61,12.49,-2.4925237,5
28,1837472332000,1.73,4.9,-2.6014864,5
28,1837522198000,1.57,10.57,2.2609777,5
28,1837572338000,0.5,9.23,0.23154591,5
28,1837622295000,2.98,8.69,1.607201,5
28,1837672344000,2.37,8.58,1.0351465,5
28,1837722210000,2.64,8.43,1.1849703,5
28,1837772259000,1.27,10.34,1.879608,5
28,1837822216000,2.76,11.07,1.920469,5
28,1837872295000,3.95,11.26,2.4108016,5
28,1837922283000,3.41,13.1,3.1463003,5
28,1837972332000,2.87,12.45,-0.10896278,5
28,1838022259000,-4.29,14.75,0.95342433,5
28,1838072704000,1.99,10.84,2.2201166,5
28,1838122234000,3.11,7.59,1.4982382,5
28,1838172283000,-0.04,5.13,0.9942854,5
28,1838222240000,-0.91,4.52,1.3756552,5
28,1838272259000,-1.04,5.83,4.099725,5
28,1838322247000,0.5,6.55,6.8237944,5
28,1838372326000,2.68,15.79,9.956474,5
28,1838422283000,-2.83,12.18,6.8237944,5
28,1838472271000,-0.23,13.44,-3.5276701,5
28,1838522259000,1.95,5.05,-1.525479,5
28,1838572277000,0.89,10.27,2.5606253,5
28,1838622234000,2.18,7.82,-0.27240697,5
28,1838672283000,2.41,8.69,1.3756552,5
28,1838722210000,1.76,8.92,1.4165162,5
28,1838772259000,3.53,8.54,1.3075534,5
28,1838822247000,1.57,10.38,2.152015,5
28,1838872295000,2.79,11.03,1.9477097,5
28,1838922253000,4.67,11.3,2.9147544,5
28,1838972332000,4.06,12.79,2.8738933,5
28,1839022198000,-1.53,12.37,-0.14982383,5
28,1839072277000,-3.34,15.64,1.56634,5
28,1839122204000,2.98,10.31,1.9885708,5
28,1839172924000,2.37,7.55,2.1792557,5
28,1839222210000,-1.08,5.43,0.7627395,5
28,1839272289000,-0.8,4.6,1.879608,5
28,1839322247000,-0.46,5.18,3.636633,5
28,1839372265000,0.5,6.89,8.049625,5
28,1839422283000,1.99,16.7,8.390134,5
28,1839472271000,-2.68,9.3,6.469665,5
28,1839522228000,-0.95,14.79,-2.1383946,5
28,1839572277000,3.6,5.71,-2.2201166,5
28,1839622234000,1.69,9.53,2.8738933,5
28,1839672283000,0.57,8.85,-0.6537767,5
28,1839722240000,2.34,9.0,0.88532263,5
28,1839772259000,1.95,9.08,0.6946377,5
28,1839822216000,2.45,8.54,0.88532263,5
28,1839872295000,1.54,10.61,2.3018389,5
28,1839922253000,3.21,10.73,2.3426998,5
28,1839972271000,5.28,11.18,2.9147544,5
28,1840022198000,5.01,13.33,2.4516625,5
28,1840072277000,-0.89,12.41,-0.84446156,5
28,1840122265000,-2.96,15.79,1.7978859,5
28,1840172283000,3.26,10.19,1.2258313,5
28,1840222240000,2.98,7.93,2.8738933,5
28,1840272259000,-0.95,5.18,1.0760075,5
28,1840322460000,-1.04,3.83,1.1849703,5
28,1840372387000,0.0,4.79,3.405087,5
28,1840422436000,0.5,7.59,6.701211,5
28,1840472088000,0.95,16.02,8.689782,5
28,1840522411000,-1.99,10.23,7.8180795,5
28,1840572430000,0.31,15.28,-0.6946377,5
28,1840622906000,0.38,3.76,1.5390993,5
28,1840672253000,2.15,11.07,0.08172209,5
28,1840722424000,1.14,9.38,1.7297841,5
28,1840782238000,2.6,8.66,0.50395286,5
28,1840782238000,2.6,8.66,0.50395286,5
28,1840843029000,2.18,8.81,0.84446156,5
28,1840894390000,1.57,8.81,0.7218784,5
28,1840952312000,1.46,10.27,1.56634,5
28,1841002270000,2.53,10.88,2.1111538,5
28,1841052319000,4.18,10.84,2.8330324,5
28,1841102276000,4.67,12.91,2.982856,5
28,1841152264000,2.87,12.22,-0.84446156,5
28,1841202282000,-5.18,16.66,1.4982382,5
28,1841252361000,1.76,10.88,0.61291564,5
28,1841312267000,2.96,8.31,2.6014864,5
28,1841362225000,-0.23,5.52,1.3075534,5
28,1841412273000,-0.3,4.44,1.2258313,5
28,1841462231000,-0.46,4.99,2.9556155,5
28,1841512829000,0.72,6.44,6.3607025,5
28,1841562115000,1.14,14.33,9.425281,5
28,1841612225000,-2.56,11.37,7.3141265,5
28,1841662273000,-0.76,15.94,1.3075534,5
28,1841712200000,2.18,5.67,-0.23154591,5
28,1841762279000,1.61,8.54,-0.10896278,5
28,1841812206000,0.93,9.89,0.53119355,5
28,1841862286000,0.89,8.96,1.0760075,5
28,1841912212000,2.56,8.73,0.88532263,5
28,1841962292000,2.91,8.39,0.92618364,5
28,1842012249000,1.73,8.73,1.2258313,5
28,1842062298000,1.42,10.84,1.607201,5
28,1842112255000,3.34,11.22,2.3426998,5
28,1842162304000,4.6,12.34,2.4516625,5
28,1842212200000,4.67,12.6,2.4108016,5
28,1842262279000,-1.04,12.22,-0.46309182,5
28,1842312206000,-2.18,15.24,1.607201,5
28,1842362316000,2.18,9.58,1.3756552,5
28,1842412212000,2.53,8.2,3.0237172,5
28,1842462292000,-0.11,5.28,1.5390993,5
28,1842512218000,-0.5,3.95,1.1849703,5
28,1842562328000,-0.34,4.75,3.214402,5
28,1842612225000,0.31,7.12,7.014479,5
28,1842662304000,1.76,15.09,8.812365,5
28,1842712231000,-2.49,12.91,7.3141265,5
28,1842762279000,-0.46,14.52,0.27240697,5
28,1842812237000,2.37,4.33,-1.9885708,5
28,1842862286000,2.68,10.04,1.4573772,5
28,1842912212000,-0.69,9.7,0.53119355,5
28,1842962261000,2.07,9.0,1.2666923,5
28,1843012249000,2.56,8.5,0.88532263,5
28,1843062267000,3.11,8.47,1.4165162,5
28,1843112255000,1.8,9.11,1.607201,5
28,1843162304000,1.65,10.88,2.4108016,5
28,1843212200000,3.26,11.07,2.4516625,5
28,1843262310000,4.21,12.07,3.445948,5
28,1843312206000,4.67,11.56,2.2201166,5
28,1843362316000,-2.87,14.82,1.1441092,5
28,1843412243000,0.15,14.02,1.2666923,5
28,1843462261000,3.57,9.85,2.4516625,5
28,1843512218000,1.38,6.36,1.56634,5
28,1843562298000,-0.23,4.33,-0.040861044,5
28,1843612255000,-1.08,4.71,1.607201,5
28,1843662304000,-1.31,5.56,4.903325,5
28,1843712231000,0.34,13.14,8.539958,5
28,1843762310000,-1.61,11.99,7.6954966,5
28,1843812206000,1.08,16.44,3.759216,5
28,1843862316000,2.6,5.71,-0.10896278,5
28,1843912212000,0.0,7.97,-0.88532263,5
28,1843962292000,2.11,9.96,0.5720546,5
28,1844012249000,1.33,8.85,0.92618364,5
28,1844062267000,1.31,8.58,1.0760075,5
28,1844112255000,2.22,8.35,0.92618364,5
28,1844162273000,1.92,8.73,1.0351465,5
28,1844212200000,1.57,10.8,2.0294318,5
28,1844262310000,3.45,11.14,2.5606253,5
28,1844312237000,5.52,12.6,2.8330324,5
28,1844362286000,4.18,12.68,2.1792557,5
28,1844412243000,-2.14,12.64,-0.50395286,5
28,1844462292000,-2.41,15.47,0.95342433,5
28,1844512218000,2.68,10.12,1.4165162,5
28,1844562298000,2.64,7.67,2.7649305,5
28,1844612255000,-0.53,4.86,0.7627395,5
28,1844662273000,-0.65,3.87,1.2258313,5
28,1844712200000,-0.38,4.63,3.5276701,5
28,1844762310000,0.95,7.55,7.273266,5
28,1844812237000,1.5,17.01,9.193735,5
28,1844862316000,-2.98,15.32,7.273266,5
28,1844912243000,1.54,9.85,-0.040861044,5
28,1844962261000,1.88,4.63,-4.2086873,5
28,1845012218000,2.53,10.5,2.4516625,5
28,1845062267000,-0.08,7.97,1.0351465,5
28,1845112255000,2.98,9.08,0.313268,5
28,1845162304000,1.46,9.04,1.4165162,5
28,1845212200000,2.34,8.47,1.1441092,5
28,1845262249000,2.56,9.19,1.4982382,5
28,1845312206000,2.3,10.69,1.7297841,5
28,1845362316000,3.57,11.07,2.5333846,5
28,1845412212000,4.82,12.91,2.7649305,5
28,1845462261000,4.4,13.53,1.1441092,5
28,1845512218000,-3.68,12.76,-0.14982383,5
28,1845562267000,-1.14,13.72,0.84446156,5
28,1845612255000,3.49,9.23,2.4925237,5
28,1845662304000,2.45,7.16,2.6014864,5
28,1845712200000,-0.65,4.6,0.6537767,5
28,1845762310000,-0.57,4.75,1.9885708,5
28,1845812237000,-0.23,5.05,4.372132,5
28,1845862316000,1.18,8.66,9.00305,5
28,1845912212000,1.04,16.4,7.9679036,5
28,1845962292000,-2.49,10.65,7.246025,5
28,1846012463000,0.11,13.82,-1.9885708,5
28,1846062298000,2.26,4.25,-3.5276701,5
28,1846112255000,2.79,10.65,2.3699405,5
28,1846162273000,-0.99,9.47,0.040861044,5
28,1846212200000,2.37,8.96,0.7627395,5
28,1846262249000,3.02,8.47,0.6537767,5
28,1846312206000,3.06,8.16,1.1849703,5
28,1846362286000,1.27,9.7,1.9477097,5
28,1846412212000,2.79,11.41,2.1792557,5
28,1846462261000,4.02,11.8,3.336985,5
28,1846512218000,4.99,13.91,3.5276701,5
28,1846562328000,3.11,11.5,-0.88532263,5
28,1846612316000,-4.37,15.05,1.5390993,5
28,1846662426000,2.6,10.65,0.46309182,5
28,1846712261000,3.64,8.05,2.7240696,5
28,1846762371000,-0.42,5.83,1.879608,5
28,1846822277000,-0.76,5.48,2.4108016,5
28,1846872234000,-0.84,4.82,2.4108016,5
28,1846922344000,0.8,5.86,6.5513873,5
28,1846972393000,1.23,15.85,8.921328,5
28,1847022259000,-2.53,10.46,7.082581,5
28,1847072216000,-0.11,15.55,-0.23154591,5
28,1847132366000,2.22,4.21,-1.4573772,5
28,1847182629000,1.69,10.53,2.2201166,5
28,1847232189000,-0.38,9.47,0.08172209,5
28,1847282238000,3.15,9.11,0.7218784,5
28,1847332317000,3.11,8.47,1.334794,5
28,1847382244000,2.96,8.35,1.607201,5
28,1847432323000,1.5,9.19,1.7297841,5
28,1847432323000,1.5,9.19,1.7297841,5
28,1847493633000,2.45,10.73,2.1111538,5
28,1847543072000,4.37,10.76,3.214402,5
28,1847593731000,4.6,13.76,3.336985,5
28,1847643078000,3.26,12.83,-0.6537767,5
28,1847693737000,-4.33,15.09,1.2258313,5
28,1847743084000,2.49,10.69,0.84446156,5
28,1847793835000,3.49,8.43,2.7240696,5
28,1847843548000,-0.04,5.86,1.7978859,5
28,1847893047000,-0.69,5.18,2.1111538,5
28,1847943737000,-0.61,5.9,2.7649305,5
28,1847993450000,0.19,4.48,4.2904096,5
28,1848043102000,2.11,12.49,9.343558,5
28,1848093761000,-1.76,13.63,7.3141265,5
28,1848143536000,0.42,14.94,3.2961242,5
28,1848193035000,0.57,7.25,1.6480621,5
28,1848243725000,2.45,6.78,-2.7240696,5
28,1848293438000,2.49,9.66,1.4573772,5
28,1848343060000,-1.18,9.92,1.2258313,5
28,1848393688000,2.91,9.04,1.4982382,5
28,1848443066000,3.02,8.16,1.2258313,5
28,1848493694000,2.64,8.2,1.5390993,5
28,1848543041000,1.8,9.15,1.3075534,5
28,1848593700000,1.92,10.95,1.6480621,5
28,1848643047000,3.79,11.35,2.6014864,5
28,1848694622000,5.71,13.53,2.7649305,5
28,1848752300000,2.56,13.91,0.38136974,5
28,1848802288000,-4.21,13.02,0.6537767,5
28,1848852306000,0.69,10.8,0.3405087,5
28,1848902264000,2.41,9.62,2.2201166,5
28,1848952312000,0.69,7.5,2.6832085,5
28,1849002270000,-1.08,5.94,2.5606253,5
28,1849052288000,-1.12,4.99,2.7921712,5
28,1849102276000,-0.04,3.34,3.214402,5
28,1849152294000,1.92,7.82,8.049625,5
28,1849202282000,1.18,15.6,8.771504,5
28,1849252300000,-4.52,11.96,6.932757,5
28,1849302288000,0.08,14.82,-0.88532263,5
28,1849352276000,1.84,4.21,0.313268,5
28,1849402233000,3.26,10.61,-0.08172209,5
28,1849452282000,0.76,9.23,1.4165162,5
28,1849502239000,0.42,9.47,1.1849703,5
28,1849552349000,2.41,8.73,0.27240697,5
28,1849602276000,2.68,8.69,1.0351465,5
28,1849652294000,2.03,8.73,1.334794,5
28,1849702282000,1.31,9.92,1.3756552,5
28,1849752300000,1.99,11.26,1.879608,5
28,1849802288000,3.76,10.99,2.7649305,5
28,1849852306000,4.75,12.83,3.2961242,5
28,1849902264000,4.1,10.95,-0.040861044,5
28,1849952312000,-4.18,14.94,0.7218784,5
28,1850002270000,0.5,12.18,1.2666923,5
28,1850052288000,3.41,8.66,2.6423476,5
28,1850102276000,0.99,7.06,1.6480621,5
28,1850152294000,-0.65,5.37,1.4165162,5
28,1850202282000,-1.18,6.05,2.7921712,5
28,1850252270000,0.27,4.9,2.982856,5
28,1850302319000,2.37,9.19,8.471856,5
28,1850352306000,1.33,14.41,8.049625,5
28,1850402264000,-1.65,13.87,6.742072,5
28,1850452282000,-0.27,11.96,0.27240697,5
28,1850502270000,0.99,4.25,-3.173541,5
28,1850552288000,4.29,11.22,1.4573772,5
28,1850602276000,-0.61,8.96,0.38136974,5
28,1850652294000,1.5,9.7,0.9942854,5
28,1850702282000,2.26,8.69,0.92618364,5
28,1850752270000,2.79,8.58,0.88532263,5
28,1850802288000,2.22,8.69,1.56634,5
28,1850852276000,1.84,10.15,1.607201,5
28,1850902264000,2.34,11.22,1.920469,5
28,1850952312000,4.82,11.11,2.4108016,5
28,1851002270000,4.1,13.29,3.336985,5
28,1851052288000,1.57,11.69,-0.23154591,5
28,1851102276000,-3.98,14.48,1.5390993,5
28,1851152264000,2.26,10.46,0.23154591,5
28,1851202282000,3.02,9.11,2.6014864,5
28,1851252270000,0.84,7.27,1.607201,5
28,1851302288000,-1.23,6.24,2.0294318,5
28,1851352306000,-1.14,5.28,2.070293,5
28,1851402264000,1.31,5.05,3.9499009,5
28,1851452312000,1.95,10.04,8.730643,5
28,1851502270000,0.27,15.64,7.7363577,5
28,1851552319000,-1.46,15.05,4.5219555,5
28,1851602276000,0.84,7.89,0.46309182,5
28,1851652264000,1.69,5.37,-3.405087,5
28,1851702282000,2.87,10.65,1.8387469,5
28,1851752300000,-0.61,9.92,0.7218784,5
28,1851802288000,2.34,9.15,1.5390993,5
28,1851852306000,2.91,8.35,1.1441092,5
28,1851902599000,2.72,8.81,1.4573772,5
28,1851952282000,1.76,9.04,1.4573772,5
28,1852002270000,1.69,10.15,1.4573772,5
28,1852052288000,3.17,10.99,0.9942854,5
28,1852102276000,3.21,11.88,1.920469,5
28,1852152264000,3.26,12.57,3.0645783,5
28,1852202312000,0.76,11.37,-0.08172209,5
28,1852252300000,-4.21,12.11,1.6889231,5
28,1852302288000,2.91,10.8,1.0760075,5
28,1852352276000,3.11,9.28,3.8273177,5
28,1852412243000,-0.46,7.21,2.7649305,5
28,1852462231000,-0.89,5.33,2.4108016,5
28,1852512279000,-0.15,5.24,2.2201166,5
28,1852562237000,1.65,6.63,4.8216033,5
28,1852612286000,1.73,10.92,8.580819,5
28,1852662334000,0.42,12.26,7.082581,5
28,1852712261000,-0.95,13.33,5.8976107,5
28,1852762249000,-0.69,13.76,0.50395286,5
28,1852812206000,1.73,2.91,-4.0180025,5
28,1852862286000,3.87,11.96,1.9885708,5
28,1852912212000,-0.53,9.11,0.19068487,5
28,1852962261000,1.69,9.7,1.0351465,5
28,1853012218000,2.3,8.85,0.6946377,5
28,1853062298000,3.06,8.58,0.9942854,5
28,1853112255000,2.6,8.85,1.607201,5
28,1853162304000,2.03,10.15,1.6480621,5
28,1853212231000,1.92,11.22,1.2258313,5
28,1853262279000,4.02,10.99,2.070293,5
28,1853312237000,4.94,12.41,3.1054392,5
28,1853362316000,1.08,12.26,0.14982383,5
28,1853412212000,-4.06,12.07,0.6946377,5
28,1853462292000,0.57,11.99,1.0351465,5
28,1853512218000,2.91,9.72,3.405087,5
28,1853562267000,0.65,7.67,2.070293,5
28,1853612255000,-1.27,5.6,2.0294318,5
28,1853662273000,-1.08,5.75,3.214402,5
28,1853712231000,0.69,5.37,3.445948,5
28,1853762310000,2.34,9.04,8.008764,5
28,1853812206000,0.72,13.33,7.8861814,5
28,1853862286000,-1.5,9.53,6.891896,5
28,1853912212000,1.12,13.91,0.84446156,5
28,1853962261000,-0.08,7.89,0.7627395,5
28,1854012249000,1.73,8.24,-1.3075534,5
28,1854062267000,3.21,9.58,0.61291564,5
28,1854112255000,0.42,9.62,0.5720546,5
28,1854162273000,1.57,9.19,0.61291564,5
28,1854212200000,3.11,8.77,0.6537767,5
28,1854262310000,2.45,8.89,1.3756552,5
28,1854312206000,1.61,9.77,1.56634,5
28,1854362316000,2.49,10.53,1.879608,5
28,1854412212000,3.26,10.92,2.4108016,5
28,1854462261000,4.14,12.57,3.0237172,5
28,1854512218000,4.21,12.95,-0.08172209,5
28,1854562298000,-3.79,13.44,0.23154591,5
28,1854612255000,1.69,11.45,0.84446156,5
28,1854662304000,2.87,8.66,2.7240696,5
28,1854712231000,0.93,8.43,1.920469,5
28,1854762279000,-0.76,6.28,2.4108016,5
28,1854812206000,-0.8,6.44,2.8330324,5
28,1854862286000,0.46,4.99,2.3699405,5
28,1854912212000,1.18,6.93,6.932757,5
28,1854962292000,2.68,13.21,8.771504,5
28,1855012218000,-0.99,12.91,6.851035,5
28,1855062298000,0.15,14.21,1.8387469,5
28,1855112255000,-0.11,5.67,-0.0,5
28,1855162273000,3.53,8.92,-0.88532263,5
28,1855212200000,1.33,10.0,0.50395286,5
28,1855262279000,-0.27,9.62,1.4573772,5
28,1855312206000,2.26,9.15,0.313268,5
28,1855362286000,3.02,8.73,0.7627395,5
28,1855412212000,2.22,8.73,1.6480621,5
28,1855462292000,2.26,8.96,1.4573772,5
28,1855512249000,2.64,10.27,1.3756552,5
28,1855562298000,2.07,11.35,2.0294318,5
28,1855612255000,4.52,11.54,1.9885708,5
28,1855662273000,4.21,12.41,2.1792557,5
28,1855712200000,0.76,11.84,0.19068487,5
28,1855762310000,-3.26,11.56,0.38136974,5
28,1855812206000,0.72,11.5,0.84446156,5
28,1855862316000,2.56,10.31,3.1054392,5
28,1855912212000,0.95,8.08,2.6832085,5
28,1855962261000,-0.89,6.05,2.5333846,5
28,1856012249000,-1.08,5.71,3.1463003,5
28,1856062298000,0.42,4.86,3.336985,5
28,1856112286000,2.37,7.78,7.8180795,5
28,1856162273000,0.61,13.76,8.281172,5
28,1856212200000,-2.34,10.27,6.2789803,5
28,1856262279000,-1.14,12.57,2.7240696,5
28,1856312206000,0.5,8.69,3.0237172,5
28,1856362316000,2.18,7.63,-2.2609777,5
28,1856412212000,2.83,10.15,1.0351465,5
28,1856462261000,-0.72,9.7,1.4982382,5
28,1856512218000,2.15,9.34,0.53119355,5
28,1856562267000,2.91,8.85,1.0760075,5
28,1856612316000,2.53,9.0,1.56634,5
28,1856662273000,2.22,9.0,1.9477097,5
28,1856712200000,2.37,9.38,1.6480621,5
28,1856762310000,2.03,10.23,1.2666923,5
28,1856812206000,1.69,11.22,1.5390993,5
28,1856862316000,3.6,11.75,2.3426998,5
28,1856912243000,4.21,12.37,3.1463003,5
28,1856962292000,1.61,10.8,0.08172209,5
28,1857012218000,-2.49,12.64,1.7978859,5
28,1857062267000,2.79,10.34,1.1168685,5
28,1857112255000,2.76,9.47,2.9556155,5
28,1857162273000,-0.15,7.78,2.7649305,5
28,1857212200000,-0.34,6.4,2.3699405,5
28,1857262279000,-0.42,5.56,2.3699405,5
28,1857312206000,0.57,5.37,3.1463003,5
28,1857362286000,1.65,7.97,6.932757,5
28,1857412212000,2.26,13.67,8.076866,5
28,1857462261000,-0.23,9.08,7.3141265,5
28,1857512218000,1.65,16.44,1.9477097,5
28,1857562267000,-1.61,8.16,2.3426998,5
28,1857612255000,1.38,6.51,-2.7240696,5
28,1857662304000,3.64,10.69,1.6480621,5
28,1857722332000,0.65,9.08,1.2258313,5
28,1857772198000,2.56,8.96,0.95342433,5
28,1857822338000,3.11,8.69,0.8036005,5
28,1857882244000,1.5,9.15,0.9942854,5
28,1857932201000,1.61,9.85,0.7218784,5
28,1857982281000,1.99,11.22,1.2258313,5
28,1858032268000,1.92,11.11,1.6889231,5
28,1858082287000,4.63,11.84,2.3699405,5
28,1858132244000,4.48,13.1,1.3756552,5
28,1858182293000,-2.45,11.54,-0.29964766,5
28,1858182293000,-2.45,11.54,-0.29964766,5
28,1858242351000,-1.27,11.5,1.56634,5
28,1858292370000,1.27,9.96,1.4165162,5
28,1858342358000,1.65,9.47,2.3426998,5
28,1858392284000,-0.84,6.97,2.5333846,5
28,1858443127000,-0.5,6.24,2.982856,5
28,1858493816000,0.0,4.75,2.9147544,5
28,1858543438000,1.95,5.83,5.407278,5
28,1858592998000,1.92,12.07,9.275456,5
28,1858643688000,-0.5,11.54,6.66035,5
28,1858693005000,-0.61,13.14,5.5162406,5
28,1858743725000,-0.46,10.53,0.42223078,5
28,1858793438000,1.95,5.43,-3.3642259,5
28,1858843060000,3.34,10.8,2.0294318,5
28,1858893719000,-0.08,9.23,0.23154591,5
28,1858943066000,2.03,9.51,1.1849703,5
28,1858993755000,2.68,8.77,1.334794,5
28,1859043499000,3.26,8.85,1.7297841,5
28,1859092968000,2.26,8.73,1.8387469,5
28,1859143658000,1.92,9.62,1.4982382,5
28,1859192974000,2.15,10.76,1.0351465,5
28,1859243664000,3.06,11.22,1.9477097,5
28,1859293011000,3.64,12.22,3.2961242,5
28,1859343700000,4.33,11.45,0.6946377,5
28,1859392986000,-3.64,12.83,0.8036005,5
28,1859443706000,0.72,11.84,1.9885708,5
28,1859492962000,2.79,9.58,2.7649305,5
28,1859543682000,1.5,9.11,2.1792557,5
28,1859592998000,-0.89,6.09,2.2609777,5
28,1859643719000,-1.14,6.17,2.982856,5
28,1859693005000,0.15,5.37,2.4925237,5
28,1859743725000,1.73,6.21,5.09401,5
28,1859792980000,3.17,12.6,9.575105,5
28,1859843639000,-0.69,11.37,6.782933,5
28,1859893017000,-0.76,13.14,4.399372,5
28,1859943676000,-0.72,11.84,1.7297841,5
28,1859993023000,2.56,4.71,-4.099725,5
28,1860043713000,3.49,10.65,2.0294318,5
28,1860092968000,-0.76,9.38,0.6946377,5
28,1860143719000,2.15,9.47,0.5720546,5
28,1860192974000,2.6,9.11,0.88532263,5
28,1860244030000,2.83,8.85,1.1441092,5
28,1860293011000,2.07,8.96,1.3756552,5
28,1860343670000,1.69,10.0,1.4982382,5
28,1860393047000,2.15,10.8,1.5390993,5
28,1860443706000,3.15,11.07,2.1111538,5
28,1860493023000,3.34,12.26,3.5276701,5
28,1860543713000,3.45,11.54,0.313268,5
28,1860593029000,-3.53,13.59,0.7627395,5
28,1860643719000,1.04,11.73,0.8036005,5
28,1860693066000,2.98,9.0,2.7240696,5
28,1860743694000,1.14,8.73,2.8738933,5
28,1860793041000,-0.53,6.55,2.3699405,5
28,1860843731000,-0.84,5.43,2.6423476,5
28,1860893078000,0.34,5.22,2.4925237,5
28,1860943737000,1.65,7.31,6.2108784,5
28,1860993023000,2.3,12.45,7.668256,5
28,1861043713000,-0.42,10.38,6.5513873,5
28,1861093060000,0.34,15.17,5.175732,5
28,1861143719000,0.04,10.88,1.334794,5
28,1861193127000,1.33,4.14,-4.140586,5
28,1861243816000,2.64,11.5,1.879608,5
28,1861293468000,-0.11,9.51,0.46309182,5
28,1861344067000,2.41,9.43,0.7218784,5
28,1861393719000,2.41,9.11,0.92618364,5
28,1861442974000,2.72,8.85,1.1441092,5
28,1861493694000,2.34,9.0,1.56634,5
28,1861542950000,1.54,9.96,1.3075534,5
28,1861593670000,1.12,10.95,1.3075534,5
28,1861643017000,3.15,10.53,1.7297841,5
28,1861693706000,4.86,12.45,2.5606253,5
28,1861742992000,2.76,13.1,1.1849703,5
28,1861793682000,-2.83,10.92,-0.10896278,5
28,1861842998000,-0.89,11.35,1.4573772,5
28,1861893719000,1.99,9.62,1.9477097,5
28,1861943005000,2.53,9.66,3.445948,5
28,1861993694000,0.23,7.08,2.9556155,5
28,1862043011000,-0.99,5.75,2.8330324,5
28,1862093761000,-0.19,4.99,2.7240696,5
28,1862143505000,1.42,5.98,4.6036777,5
28,1862193096000,2.34,10.57,7.7772183,5
28,1862243755000,-0.08,12.95,7.3958488,5
28,1862293499000,-0.89,11.26,6.891896,5
28,1862342998000,0.11,13.53,0.50395286,5
28,1862393719000,1.04,5.43,-0.84446156,5
28,1862443005000,2.64,10.23,0.8036005,5
28,1862494030000,1.5,8.81,0.8036005,5
28,1862543041000,1.38,9.3,0.50395286,5
28,1862593700000,1.65,9.38,0.84446156,5
28,1862643017000,2.56,8.81,0.8036005,5
28,1862693645000,2.56,8.96,1.334794,5
28,1862742992000,1.76,9.85,1.3756552,5
28,1862793652000,1.84,11.22,1.4165162,5
28,1862843090000,2.22,11.03,2.1111538,5
28,1862893749000,4.48,12.37,2.982856,5
28,1862943035000,4.56,11.65,0.10896278,5
28,1862993725000,-3.68,13.38,0.50395286,5
28,1863043499000,0.93,12.22,1.1849703,5
28,1863093029000,3.79,8.54,2.6832085,5
28,1863143719000,1.42,8.01,3.1463003,5
28,1863192974000,-0.23,5.33,1.334794,5
28,1863243755000,-0.84,6.32,2.1792557,5
28,1863293499000,0.23,6.4,3.405087,5
28,1863343090000,1.57,6.97,5.5571017,5
28,1863402294000,1.65,13.8,8.281172,5
28,1863452282000,-1.08,11.37,6.932757,5
28,1863502270000,1.69,14.52,0.14982383,5
28,1863552288000,-0.3,6.93,0.6537767,5
28,1863602306000,1.46,9.15,-1.4573772,5
28,1863602306000,1.46,9.15,-1.4573772,5
28,1863702526000,0.57,9.53,0.92618364,5
28,1863752392000,2.56,9.19,1.0760075,5
28,1863802288000,3.45,8.62,1.1441092,5
28,1863852306000,2.87,8.85,2.152015,5
28,1863902264000,1.92,9.11,1.6480621,5
28,1863952312000,2.18,10.08,1.334794,5
28,1864002270000,1.76,10.92,1.6889231,5
28,1864052288000,3.72,11.35,2.070293,5
28,1864102276000,4.52,12.15,2.2609777,5
28,1864152294000,-1.42,10.57,-0.50395286,5
28,1864202282000,-2.96,13.4,2.1792557,5
28,1864252270000,4.02,10.69,1.0351465,5
28,1864302288000,2.45,8.62,3.636633,5
28,1864352276000,0.34,6.63,2.4108016,5
28,1864402264000,-0.69,6.4,2.4925237,5
28,1864452312000,-0.76,6.28,2.6014864,5
28,1864502270000,1.42,6.32,4.1814466,5
28,1864552319000,2.26,10.31,7.8180795,5
28,1864602276000,-0.84,11.65,7.1234417,5
28,1864652294000,-1.46,12.49,6.3198414,5
28,1864702282000,0.65,15.09,0.3405087,5
28,1864752270000,0.5,4.37,-1.0760075,5
28,1864802288000,2.41,10.46,-0.040861044,5
28,1864852825000,1.54,9.7,0.50395286,5
28,1864902264000,1.08,9.34,1.1168685,5
28,1864952312000,3.02,9.0,0.95342433,5
28,1865002270000,3.49,8.73,1.1168685,5
28,1865052288000,2.34,8.77,1.920469,5
28,1865102276000,1.88,9.58,1.2258313,5
28,1865152294000,2.3,10.84,1.4573772,5
28,1865202282000,2.49,11.26,1.879608,5
28,1865252300000,4.18,12.07,2.9556155,5
28,1865302319000,4.52,11.26,1.7570249,5
28,1865352276000,-2.34,10.04,-0.19068487,5
28,1865402264000,-1.27,13.59,1.8387469,5
28,1865452312000,4.1,9.96,2.2609777,5
28,1865502270000,1.88,9.11,3.5276701,5
28,1865552288000,0.0,6.36,2.4108016,5
28,1865602276000,-0.89,5.41,2.5606253,5
28,1865652294000,-0.11,4.82,2.0294318,5
28,1865702282000,2.15,7.08,5.47538,5
28,1865752300000,1.5,11.96,8.281172,5
28,1865802288000,-0.23,12.41,7.4639506,5
28,1865852306000,-0.69,14.48,5.325556,5
28,1865902264000,1.42,9.92,1.1849703,5
28,1865952282000,0.93,4.48,-3.718355,5
28,1866002270000,3.57,11.11,1.56634,5
28,1866052288000,-0.5,9.0,0.27240697,5
28,1866102276000,1.73,9.85,1.0760075,5
28,1866152294000,2.15,8.73,1.5390993,5
28,1866202251000,3.06,8.35,1.5390993,5
28,1866252270000,2.87,8.62,1.7297841,5
28,1866302288000,1.54,10.31,1.0351465,5
28,1866352276000,1.95,11.22,1.334794,5
28,1866402264000,5.22,11.37,2.5333846,5
28,1866452282000,5.05,12.37,2.2609777,5
28,1866502270000,-1.08,11.99,-0.14982383,5
28,1866552319000,-4.25,12.72,1.334794,5
28,1866602276000,1.38,10.38,0.53119355,5
28,1866652264000,3.17,9.53,3.1054392,5
28,1866702282000,1.5,8.43,3.214402,5
28,1866752300000,-0.8,6.66,2.1111538,5
28,1866802288000,-1.23,4.94,2.070293,5
28,1866852306000,1.33,5.37,3.3778462,5
28,1866902264000,1.54,8.58,6.66035,5
28,1866952312000,1.76,14.14,8.19945,5
28,1867002270000,-0.42,11.88,7.8180795,5
28,1867052288000,2.07,13.91,-1.1849703,5
28,1867102276000,-0.11,3.99,-2.5333846,5
28,1867152294000,1.84,11.26,1.2258313,5
28,1867202312000,1.14,9.3,-0.53119355,5
28,1867252270000,2.11,9.38,1.2666923,5
28,1867302288000,2.6,8.73,0.9942854,5
28,1867352306000,3.26,8.58,1.3075534,5
28,1867402264000,1.99,8.92,1.7570249,5
28,1867452312000,1.38,10.46,1.3756552,5
28,1867502270000,1.73,11.11,1.334794,5
28,1867552319000,4.86,10.84,2.152015,5
28,1867602306000,4.71,12.41,2.7921712,5
28,1867652294000,0.65,11.75,0.46309182,5
28,1867702312000,-3.45,12.45,1.0760075,5
28,1867752331000,1.69,10.61,0.6537767,5
28,1867802288000,3.49,9.3,4.2086873,5
28,1867852337000,1.61,7.67,3.0237172,5
28,1867902264000,-1.27,5.9,2.8330324,5
28,1867952312000,-1.31,4.99,2.4516625,5
28,1868002300000,1.04,5.05,3.3778462,5
28,1868052319000,2.34,8.35,8.049625,5
28,1868102276000,1.31,15.21,8.662541,5
28,1868152294000,-2.49,13.8,6.6331096,5
28,1868202282000,-0.69,12.87,-0.5720546,5
28,1868252300000,2.07,3.64,-3.0237172,5
28,1868302319000,2.96,11.92,1.5390993,5
28,1868352306000,0.46,8.05,0.14982383,5
28,1868402294000,2.03,9.89,0.23154591,5
28,1868452770000,2.56,9.08,1.4573772,5
28,1868502270000,3.87,8.54,1.5390993,5
28,1868552319000,2.6,8.81,1.7297841,5
28,1868602276000,1.61,10.23,1.4982382,5
28,1868652294000,3.21,11.18,1.7570249,5
28,1868722301000,4.79,12.18,2.5333846,5
28,1868772259000,4.99,11.18,1.1849703,5
28,1868822399000,-2.98,12.26,0.19068487,5
28,1868882244000,0.34,12.98,0.6946377,5
28,1868932232000,3.15,9.04,2.6423476,5
28,1868982281000,1.69,8.28,2.5333846,5
28,1869032238000,0.08,6.09,1.7570249,5
28,1869082287000,-1.14,5.24,2.4925237,5
28,1869132244000,0.27,4.56,2.2201166,5
28,1869182262000,1.61,7.93,6.66035,5
28,1869182262000,1.61,7.93,6.66035,5
28,1869282207000,-0.89,9.28,7.9270425,5
28,1869332409000,3.49,16.55,0.19068487,5
28,1869382244000,-0.5,5.01,0.19068487,5
28,1869432262000,1.31,9.53,0.23154591,5
28,1869482220000,2.83,8.73,0.08172209,5
28,1869532268000,1.8,9.04,0.9942854,5
28,1869582226000,1.57,9.11,1.4165162,5
28,1869632305000,2.49,8.69,0.46309182,5
28,1869682201000,1.8,9.47,1.0760075,5
28,1869732281000,1.42,11.14,1.3075534,5
28,1869782207000,3.72,10.8,1.7297841,5
28,1869832317000,3.68,11.99,3.173541,5
28,1869882214000,4.29,12.18,0.88532263,5
28,1869932262000,-4.99,14.82,-0.0,5
28,1869982220000,-0.23,13.25,0.313268,5
28,1870032268000,3.76,8.62,3.636633,5
28,1870082256000,0.99,6.44,2.2609777,5
28,1870132305000,-0.11,4.1,1.9477097,5
28,1870182262000,-0.5,5.33,3.568531,5
28,1870232281000,1.27,3.72,3.1463003,5
28,1870282238000,3.02,8.54,9.534244,5
28,1870332287000,3.15,16.32,8.117727,5
28,1870382244000,-2.03,11.03,6.2789803,5
28,1870432262000,0.5,16.44,-0.42223078,5
28,1870482250000,0.61,1.61,-5.202973,5
28,1870532299000,3.72,11.14,1.879608,5
28,1870582317000,1.04,9.34,-0.7627395,5
28,1870632305000,1.73,9.38,1.8387469,5
28,1870682232000,3.15,8.54,0.50395286,5
28,1870732494000,2.76,8.92,0.95342433,5
28,1870782268000,1.54,10.04,1.334794,5
28,1870832287000,2.72,10.46,1.7297841,5
28,1870882244000,5.67,10.57,2.2609777,5
28,1870932323000,4.18,12.72,2.7240696,5
28,1870982220000,0.0,13.21,-0.27240697,5
28,1871032299000,-4.52,13.76,1.1168685,5
28,1871082226000,2.64,10.84,0.53119355,5
28,1871132305000,1.99,9.53,3.568531,5
28,1871182232000,0.84,6.82,2.5606253,5
28,1871232281000,-0.76,5.24,2.6832085,5
28,1871282238000,-1.12,4.67,2.6014864,5
28,1871332287000,1.27,4.9,3.990762,5
28,1871382244000,1.95,9.7,9.425281,5
28,1871432262000,0.34,16.21,8.349273,5
28,1871482220000,-2.11,7.63,6.66035,5
28,1871532268000,0.5,17.47,-1.6889231,5
28,1871582256000,1.8,2.96,-2.8738933,5
28,1871632275000,2.79,10.65,2.2201166,5
28,1871682232000,0.34,9.38,-1.2258313,5
28,1871732281000,1.57,8.81,1.1168685,5
28,1871782238000,3.26,8.85,0.53119355,5
28,1871832287000,2.98,9.0,0.6946377,5
28,1871882275000,2.11,9.85,0.7218784,5
28,1871932262000,2.6,11.35,1.4982382,5
28,1871982250000,4.63,11.14,2.3018389,5
28,1872032268000,3.76,13.25,2.5333846,5
28,1872082256000,2.49,11.84,-0.88532263,5
28,1872132305000,-3.6,13.99,0.50395286,5
28,1872182232000,1.84,11.99,0.27240697,5
28,1872232281000,2.83,8.62,3.405087,5
28,1872282207000,0.84,7.89,2.4516625,5
28,1872332287000,-0.3,3.79,1.9477097,5
28,1872382214000,-0.08,4.48,3.1054392,5
28,1872432293000,0.5,5.13,4.944186,5
28,1872482250000,1.84,10.65,8.921328,5
28,1872532268000,0.38,13.25,7.8861814,5
28,1872582226000,0.11,11.73,3.1463003,5
28,1872632305000,1.14,12.37,0.84446156,5
28,1872682201000,-0.99,4.86,-3.0645783,5
28,1872732281000,3.76,10.69,1.0351465,5
28,1872782207000,0.23,9.34,0.3405087,5
28,1872832287000,3.11,8.92,1.2666923,5
28,1872882214000,3.26,8.43,0.88532263,5
28,1872932262000,1.99,8.85,1.3075534,5
28,1872982220000,0.89,10.53,1.8387469,5
28,1873032268000,3.53,11.11,2.152015,5
28,1873082287000,5.86,11.88,2.7240696,5
28,1873132275000,4.75,14.1,1.7570249,5
28,1873182232000,-2.34,11.84,-0.46309182,5
28,1873232281000,-1.27,12.98,-0.3405087,5
28,1873282238000,3.45,9.53,1.4573772,5
28,1873332287000,2.37,8.66,3.336985,5
28,1873382244000,-0.11,6.02,2.3018389,5
28,1873432232000,-0.11,4.52,2.1792557,5
28,1873482220000,0.15,4.33,2.4516625,5
28,1873532268000,0.69,6.32,6.932757,5
28,1873582226000,2.18,17.47,8.771504,5
28,1873632275000,-2.11,8.16,7.6273947,5
28,1873682201000,0.34,15.89,-3.759216,5
28,1873732281000,0.99,3.06,-1.8387469,5
28,1873782238000,2.18,11.8,2.3699405,5
28,1873832287000,1.04,8.69,-0.95342433,5
28,1873882244000,3.72,8.89,1.9477097,5
28,1873932262000,3.64,8.39,0.88532263,5
28,1873982220000,2.91,8.66,0.61291564,5
28,1874032268000,1.12,10.38,1.4165162,5
28,1874082226000,3.11,10.84,1.7570249,5
28,1874132275000,5.37,11.07,2.6014864,5
28,1874182262000,2.83,12.95,2.8738933,5
28,1874232281000,-0.46,13.06,-0.9942854,5
28,1874282268000,-2.91,15.36,0.50395286,5
28,1874332287000,2.18,10.15,0.61291564,5
28,1874382214000,1.69,8.43,2.9556155,5
28,1874432323000,-0.61,6.47,0.50395286,5
28,1874432323000,-0.61,6.47,0.50395286,5
28,1874493664000,-0.46,4.6,2.3426998,5
28,1874543133000,-0.89,5.13,4.903325,5
28,1874593792000,0.65,6.24,8.117727,5
28,1874643475000,1.88,16.17,8.308413,5
28,1874693035000,-2.68,16.13,6.3607025,5
28,1874742321000,1.76,6.44,-0.46309182,5
28,1874792644000,1.04,6.13,-4.7126403,5
28,1874842602000,3.15,10.42,1.2666923,5
28,1874893047000,0.65,9.23,1.1441092,5
28,1874943737000,2.87,8.5,1.2666923,5
28,1874993450000,2.98,8.24,1.3075534,5
28,1875043041000,2.6,8.47,1.1441092,5
28,1875093731000,0.57,11.11,1.7570249,5
28,1875143505000,2.56,11.45,2.1792557,5
28,1875212292000,7.5,12.45,3.445948,5
28,1875262279000,4.33,12.53,-0.50395286,5
28,1875312389000,-4.52,15.55,0.23154591,5
28,1875362255000,-1.42,11.73,-0.0,5
28,1875412334000,3.41,8.35,1.5390993,5
28,1875472271000,-0.04,6.66,1.7570249,5
28,1875522228000,-0.84,5.48,2.070293,5
28,1875572277000,-0.61,4.67,2.9556155,5
28,1875622265000,0.23,4.4,4.7126403,5
28,1875672283000,0.8,13.63,9.888372,5
28,1875722271000,-2.11,13.87,7.8861814,5
28,1875772259000,1.46,14.33,-1.6480621,5
28,1875822247000,0.69,3.83,-0.9125633,5
28,1875872265000,0.89,11.18,1.0351465,5
28,1875922222000,0.8,8.89,-0.9942854,5
28,1875972301000,2.68,9.0,1.56634,5
28,1876022198000,2.64,8.31,1.0760075,5
28,1876072277000,3.6,8.2,1.4165162,5
28,1876122448000,1.95,9.89,1.9885708,5
28,1876172283000,2.41,11.54,2.0294318,5
28,1876222240000,5.83,11.14,3.0237172,5
28,1876272289000,3.83,13.53,3.636633,5
28,1876322247000,0.53,12.37,-1.1168685,5
28,1876372326000,-4.33,15.09,0.6537767,5
28,1876422253000,3.17,9.66,0.92618364,5
28,1876472271000,1.92,7.89,3.2961242,5
28,1876522198000,-1.04,6.55,0.14982383,5
28,1876572277000,-0.57,4.44,1.7570249,5
28,1876622265000,-0.95,5.33,4.2086873,5
28,1876672283000,-0.46,5.86,6.932757,5
28,1876722240000,1.18,16.97,9.152874,5
28,1876772259000,-3.3,11.14,7.3549876,5
28,1876822247000,-0.19,12.57,-2.2201166,5
28,1876872265000,3.91,5.67,-1.4573772,5
28,1876922253000,2.07,9.66,1.2258313,5
28,1876972271000,-0.04,9.72,-0.0,5
28,1877022228000,2.15,9.0,1.0351465,5
28,1877072277000,3.06,8.69,0.84446156,5
28,1877122234000,2.83,8.31,1.3075534,5
28,1877172253000,1.8,9.58,2.0294318,5
28,1877222271000,2.22,11.07,1.7570249,5
28,1877272228000,4.18,11.41,3.636633,5
28,1877322277000,5.75,13.18,3.636633,5
28,1877372204000,4.37,11.99,0.10896278,5
28,1877422314000,-3.64,13.33,-0.040861044,5
28,1877472240000,1.88,11.03,1.5390993,5
28,1877522289000,3.02,9.15,1.8387469,5
28,1877572247000,0.89,7.21,1.6889231,5
28,1877622265000,-0.76,5.13,1.7297841,5
28,1877672222000,-0.8,5.05,2.1111538,5
28,1877722301000,0.04,5.22,4.8216033,5
28,1877772198000,1.54,12.22,8.730643,5
28,1877822308000,-1.38,12.72,7.5865335,5
28,1877872204000,0.04,17.31,2.4925237,5
28,1877922283000,1.73,6.7,0.7218784,5
28,1877972240000,0.8,5.48,-3.1463003,5
28,1878022259000,1.5,10.76,1.4165162,5
28,1878072216000,-0.04,9.23,0.46309182,5
28,1878122265000,2.6,8.69,1.9477097,5
28,1878172253000,3.02,8.24,1.0351465,5
28,1878222301000,2.45,8.89,1.5390993,5
28,1878272259000,0.23,10.99,1.4573772,5
28,1878322277000,4.56,11.11,2.2201166,5
28,1878372234000,4.06,13.38,3.405087,5
28,1878422283000,5.67,12.45,0.61291564,5
28,1878472240000,-3.57,12.53,0.5720546,5
28,1878522259000,-0.72,11.65,0.84446156,5
28,1878572247000,4.44,8.31,2.5606253,5
28,1878622265000,1.42,8.35,3.568531,5
28,1878672222000,-0.3,6.78,2.3699405,5
28,1878722271000,-1.33,4.37,2.0294318,5
28,1878772259000,0.42,4.44,2.4108016,5
28,1878822277000,0.42,7.5,7.6954966,5
28,1878872234000,0.99,17.67,8.076866,5
28,1878923016000,-3.11,18.01,5.5571017,5
28,1878972759000,1.38,6.47,-0.46309182,5
28,1879022289000,2.49,5.37,-2.6014864,5
28,1879072216000,2.79,10.5,1.334794,5
28,1879122234000,-0.72,8.85,0.7627395,5
28,1879172222000,3.15,9.08,1.8387469,5
28,1879222271000,2.91,7.97,0.8036005,5
28,1879272198000,2.41,8.35,1.334794,5
28,1879322277000,0.72,10.38,1.56634,5
28,1879372234000,2.53,11.35,1.879608,5
28,1879372234000,2.53,11.35,1.879608,5
28,1879372234000,2.53,11.35,1.879608,5
28,1879372234000,2.53,11.35,1.879608,5
28,1879372234000,2.53,11.35,1.879608,5
28,1879632305000,3.57,8.08,2.6014864,5
28,1879632305000,3.57,8.08,2.6014864,5
28,1879695232000,1.33,6.78,2.1111538,5
28,1879752209000,-0.8,4.86,2.4925237,5
28,1879802319000,-0.38,5.13,3.7864566,5
28,1879852367000,0.89,4.86,5.47538,5
28,1879902264000,2.15,13.8,10.038197,5
28,1879962231000,-4.37,15.83,6.742072,5
28,1880022228000,0.89,8.31,-0.88532263,5
28,1880072247000,2.49,4.14,-2.9556155,5
28,1880122295000,3.38,10.84,2.9556155,5
28,1880172253000,0.38,8.77,-0.42223078,5
28,1880222546000,1.33,9.43,1.879608,5
28,1880272228000,3.11,8.54,1.334794,5
28,1880332317000,3.11,8.54,1.334794,5
28,1880382275000,1.31,10.19,1.7978859,5
28,1880432232000,3.53,11.18,1.9477097,5
28,1880482250000,4.6,11.92,2.6423476,5
28,1880532299000,4.14,13.33,2.8738933,5
28,1880582226000,-1.57,12.68,-0.5720546,5
28,1880632336000,-2.83,14.6,0.88532263,5
28,1880632336000,-2.83,14.6,0.88532263,5
28,1880693706000,3.83,7.89,3.486809,5
28,1880743084000,0.93,6.7,2.2201166,5
28,1880793743000,-1.38,4.99,1.3075534,5
28,1880843090000,-0.3,4.99,3.173541,5
28,1880893810000,0.08,5.01,4.7943625,5
28,1880943523000,0.57,10.57,9.915613,5
28,1880992992000,-0.5,13.21,7.0553403,5
28,1881043743000,-3.34,14.82,4.862464,5
28,1881092998000,1.38,9.62,0.53119355,5
28,1881143719000,2.6,5.01,-3.5276701,5
28,1881193005000,2.68,10.04,2.4516625,5
28,1881243786000,0.08,9.51,0.53119355,5
28,1881293499000,2.83,8.58,1.6480621,5
28,1881343060000,2.96,8.54,1.1441092,5
28,1881393688000,2.34,8.35,1.2258313,5
28,1881443035000,1.18,10.53,1.7297841,5
28,1881493725000,2.76,11.3,1.7570249,5
28,1881543072000,4.02,11.69,2.3426998,5
28,1881593761000,4.25,13.02,2.982856,5
28,1881643047000,0.31,12.11,-0.0,5
28,1881693584000,-3.34,13.72,1.2666923,5
28,1881743023000,3.57,9.47,1.6480621,5
28,1881793713000,3.41,8.01,2.8738933,5
28,1881843029000,-0.91,6.05,1.7570249,5
28,1881893749000,-0.95,5.67,2.4516625,5
28,1881943066000,-0.53,5.18,2.5333846,5
28,1881993786000,0.95,5.24,5.8976107,5
28,1882043529000,3.15,14.56,10.038197,5
28,1882092998000,-1.76,12.49,7.273266,5
28,1882143719000,-0.23,15.02,-0.10896278,5
28,1882193005000,1.14,4.1,-0.23154591,5
28,1882243725000,2.91,10.99,0.8036005,5
28,1882293407000,0.57,8.81,0.6946377,5
28,1882342998000,1.57,8.89,1.56634,5
28,1882393627000,2.37,8.69,0.95342433,5
28,1882443066000,2.6,8.5,0.95342433,5
28,1882493725000,1.69,9.08,0.88532263,5
28,1882543041000,1.18,10.95,1.56634,5
28,1882593670000,2.22,11.37,1.7297841,5
28,1882643047000,5.18,12.07,3.0237172,5
28,1882693706000,4.99,12.37,2.7649305,5
28,1882743023000,-0.91,12.34,0.14982383,5
28,1882793743000,-2.3,14.14,1.8387469,5
28,1882843060000,2.91,8.66,1.7570249,5
28,1882893719000,1.61,7.44,2.1792557,5
28,1882943005000,-1.23,6.13,1.1849703,5
28,1882993725000,0.19,5.18,2.6832085,5
28,1883043041000,0.23,5.09,3.759216,5
28,1883093700000,1.69,6.24,7.6954966,5
28,1883143047000,2.87,15.64,8.539958,5
28,1883193706000,-3.64,16.63,6.1291566,5
28,1883243023000,-0.23,7.97,-0.95342433,5
28,1883293713000,1.42,4.06,-3.255263,5
28,1883343029000,3.68,10.84,2.4108016,5
28,1883393688000,0.04,8.5,0.23154591,5
28,1883443066000,1.88,9.28,2.2609777,5
28,1883493694000,2.3,8.31,1.1441092,5
28,1883543041000,2.96,8.62,1.1168685,5
28,1883593670000,0.46,11.14,1.6480621,5
28,1883643108000,2.34,11.56,1.7297841,5
28,1883693798000,5.86,11.75,3.2961242,5
28,1883743481000,5.24,12.22,1.3756552,5
28,1883793011000,-3.98,14.48,0.10896278,5
28,1883843761000,-3.11,12.3,1.1441092,5
28,1883893444000,1.76,7.59,1.3075534,5
28,1883943035000,1.76,7.5,2.4925237,5
28,1883993664000,-1.5,6.09,1.8387469,5
28,1884043102000,-1.31,6.32,3.336985,5
28,1884093792000,-0.53,5.28,3.214402,5
28,1884143505000,1.92,7.63,7.7772183,5
28,1884193005000,1.84,14.6,8.008764,5
28,1884243694000,-3.34,15.05,6.238119,5
28,1884292980000,-0.27,11.22,-2.2609777,5
28,1884343731000,1.5,4.25,-1.879608,5
28,1884393444000,3.95,11.35,2.1111538,5
28,1884443035000,0.93,8.58,-0.61291564,5
28,1884493755000,1.31,9.38,1.3756552,5
28,1884543468000,2.91,8.77,0.84446156,5
28,1884592998000,3.87,8.54,1.0760075,5
28,1884643688000,1.04,10.08,1.8387469,5
28,1884693005000,3.02,11.26,1.879608,5
28,1884743694000,4.67,11.37,2.9556155,5
28,1884792980000,3.41,13.59,3.3778462,5
28,1884844006000,1.84,11.37,-1.2666923,5
28,1884893139000,-4.75,15.83,1.334794,5
28,1884943768000,3.11,10.31,1.1441092,5
28,1884993450000,3.87,7.25,3.1463003,5
28,1885042980000,-1.12,4.82,0.95342433,5
28,1885093731000,-0.89,4.9,2.7921712,5
28,1885143047000,-0.23,5.09,4.140586,5
28,1885193706000,-0.65,4.99,5.9793324,5
28,1885245708000,3.57,18.05,9.656827,5
28,1885302349000,-3.98,8.96,7.3141265,5
28,1885352276000,0.53,13.02,-2.070293,5
28,1885402264000,2.83,4.33,-2.3699405,5
28,1885452343000,2.6,10.57,2.7921712,5
28,1885502331000,0.15,9.43,0.3405087,5
28,1885562237000,2.56,8.58,0.84446156,5
28,1885612225000,2.83,8.39,0.8036005,5
28,1885662304000,2.26,8.89,1.2666923,5
28,1885712231000,1.73,10.57,1.2666923,5
28,1885762279000,2.11,11.69,1.8387469,5
28,1885872143000,5.24,14.1,1.879608,5
28,1885872143000,5.24,14.1,1.879608,5
28,1885922222000,-2.49,12.41,-0.23154591,5
28,1885972301000,-2.83,12.91,1.334794,5
28,1886022289000,3.64,9.23,1.1441092,5
28,1886072369000,2.45,7.82,2.6423476,5
28,1886132275000,-1.23,5.28,2.152015,5
28,1886182232000,-0.3,5.48,3.173541,5
28,1886232311000,0.46,4.21,3.214402,5
28,1886282268000,1.33,8.08,8.499097,5
28,1886332287000,1.65,16.28,8.430995,5
28,1886382275000,-3.17,14.63,4.4810944,5
28,1886432262000,0.0,10.88,-0.84446156,5
28,1886482281000,1.73,2.98,-3.9771416,5
28,1886532238000,3.99,11.41,1.879608,5
28,1886582256000,-0.38,9.23,0.7218784,5
28,1886632275000,2.87,8.47,1.3756552,5
28,1886682293000,3.17,8.54,0.61291564,5
28,1886732311000,2.03,8.81,1.1168685,5
28,1886782207000,1.08,11.26,1.920469,5
28,1886832287000,4.33,11.22,2.4516625,5
28,1886882214000,5.48,12.34,2.9147544,5
28,1886932262000,4.33,12.68,1.4982382,5
28,1886982250000,-3.3,13.4,0.14982383,5
28,1887032268000,-1.5,13.14,0.6946377,5
28,1887082317000,4.37,8.96,2.6832085,5
28,1887132366000,1.5,6.51,1.607201,5
28,1887182262000,-1.61,4.9,1.6889231,5
28,1887232311000,-0.23,5.79,3.445948,5
28,1887282299000,0.19,4.37,3.1463003,5
28,1887332317000,1.08,9.08,9.343558,5
28,1887382214000,1.23,15.85,7.5456724,5
28,1887432323000,-2.49,14.82,4.3312707,5
28,1887482250000,0.15,8.28,0.38136974,5
28,1887532268000,2.83,6.36,-2.1111538,5
28,1887582256000,2.87,9.34,2.2609777,5
28,1887632305000,0.57,8.5,-0.27240697,5
28,1887682201000,1.76,9.53,2.2201166,5
28,1887732311000,2.53,8.35,1.3756552,5
28,1887782238000,3.49,8.24,1.3075534,5
28,1887832317000,0.84,10.15,1.3075534,5
28,1887882275000,2.45,11.84,1.7570249,5
28,1887932293000,4.82,11.88,2.9147544,5
28,1887982250000,4.06,12.22,3.568531,5
28,1888032268000,2.22,10.23,-0.61291564,5
28,1888082287000,-4.79,15.64,1.6889231,5
28,1888132824000,2.18,10.57,1.0351465,5
28,1888182262000,3.57,8.69,2.6832085,5
28,1888232281000,-0.65,6.4,2.5606253,5
28,1888282268000,-0.15,5.18,2.1111538,5
28,1888332317000,-1.08,4.4,2.070293,5
28,1888382580000,1.31,5.86,5.325556,5
28,1888432262000,1.73,13.87,10.119919,5
28,1888482281000,-0.76,10.69,6.8237944,5
28,1888532268000,-0.91,15.36,1.8387469,5
28,1888582287000,0.5,8.05,1.9885708,5
28,1888632275000,1.88,7.16,-1.4573772,5
28,1888682812000,3.21,8.89,1.607201,5
28,1888732220000,0.65,8.85,-0.50395286,5
28,1888782268000,1.38,9.11,1.2258313,5
28,1888832287000,2.91,8.54,0.53119355,5
28,1888882275000,2.41,9.58,1.4165162,5
28,1888932201000,1.65,11.03,1.56634,5
28,1888982403000,3.11,11.45,2.8330324,5
28,1889032238000,4.63,12.95,2.9556155,5
28,1889082317000,4.75,11.54,0.3405087,5
28,1889132244000,-3.87,14.63,0.3405087,5
28,1889182262000,-0.23,12.72,1.1849703,5
28,1889232250000,3.87,7.55,3.173541,5
28,1889282268000,1.04,6.44,1.9477097,5
28,1889332256000,-0.95,4.56,1.4982382,5
28,1889382305000,-0.46,5.79,3.214402,5
28,1889432201000,0.08,5.28,4.1814466,5
28,1889482281000,2.6,11.07,10.337844,5
28,1889532238000,-0.38,12.49,7.014479,5
28,1889582287000,-2.68,15.7,4.2904096,5
28,1889632214000,0.46,9.08,-0.0,5
28,1889682262000,2.49,5.63,-3.214402,5
28,1889732250000,2.68,9.53,1.9477097,5
28,1889782299000,0.31,9.7,-0.10896278,5
28,1889832256000,1.92,8.96,2.0294318,5
28,1889882305000,3.02,8.31,1.0351465,5
28,1889932232000,3.02,8.47,1.6889231,5
28,1889982281000,0.95,10.61,1.56634,5
28,1890032268000,2.72,12.15,2.3426998,5
28,1890082287000,5.52,12.53,3.1463003,5
28,1890132275000,5.33,11.84,1.9885708,5
28,1890182262000,-1.73,12.18,-0.0,5
28,1890232250000,-2.91,13.14,1.7297841,5
28,1890282238000,3.26,9.11,2.1792557,5
28,1890332226000,2.34,7.7,2.4925237,5
28,1890382275000,-1.23,5.33,1.2666923,5
28,1890432262000,-0.89,5.56,3.214402,5
28,1890482525000,-0.11,5.33,3.9090397,5
28,1890532238000,0.34,8.28,7.668256,5
28,1890582317000,1.8,14.79,7.9679036,5
28,1890632244000,-2.49,13.44,6.3198414,5
28,1890682262000,0.5,11.35,-1.6889231,5
28,1890732250000,1.88,4.67,-3.1463003,5
28,1890782268000,3.21,9.92,2.3426998,5
28,1890832226000,0.8,9.51,-0.3405087,5
28,1890892132000,1.61,8.89,1.9885708,5
28,1890892132000,1.61,8.89,1.9885708,5
28,1890943493000,3.02,8.54,0.6946377,5
28,1890993725000,2.11,9.51,1.8387469,5
28,1891043072000,1.31,10.8,1.4982382,5
28,1891093761000,3.26,11.22,2.6832085,5
28,1891143536000,4.9,12.64,3.0645783,5
28,1891193066000,4.06,11.73,0.53119355,5
28,1891243786000,-3.3,13.18,0.3405087,5
28,1891293529000,-0.3,11.96,1.3075534,5
28,1891402111000,0.0,6.66,2.070293,5
28,1891402111000,0.0,6.66,2.070293,5
28,1891452251000,-1.08,5.28,2.5606253,5
28,1891502270000,-0.72,5.13,2.3699405,5
28,1891552288000,0.42,5.13,3.9499009,5
28,1891602337000,2.18,12.98,9.765789,5
28,1891662273000,-1.14,10.69,7.3549876,5
28,1891712200000,-0.11,15.79,-0.46309182,5
28,1891762310000,1.23,6.28,1.0760075,5
28,1891812206000,1.23,8.73,0.38136974,5
28,1891862286000,3.45,8.89,1.1168685,5
28,1891912334000,1.04,8.24,0.5720546,5
28,1891962261000,1.65,9.3,1.334794,5
28,1892012249000,2.6,8.62,0.84446156,5
28,1892062267000,2.11,9.72,1.3756552,5
28,1892112225000,1.33,11.56,1.3756552,5
28,1892162273000,4.44,11.35,2.6832085,5
28,1892212231000,5.9,14.41,2.9556155,5
28,1892262279000,0.93,12.91,-0.6537767,5
28,1892312237000,-4.59,14.02,0.9942854,5
28,1892362347000,1.57,9.47,1.0760075,5
28,1892412273000,3.49,7.78,2.8330324,5
28,1892462322000,-0.76,5.33,2.070293,5
28,1892512249000,-1.04,5.48,2.6423476,5
28,1892562328000,0.08,5.52,3.0237172,5
28,1892612225000,1.73,6.63,6.3198414,5
28,1892662334000,0.84,12.26,9.234595,5
28,1892712353000,-2.18,10.42,6.5922484,5
28,1892762279000,-2.68,17.43,3.636633,5
28,1892812206000,1.69,5.41,0.38136974,5
28,1892862316000,3.11,8.58,-1.607201,5
28,1892912243000,2.07,8.81,1.0760075,5
28,1892962292000,-0.27,9.38,0.313268,5
28,1893012218000,2.07,9.04,2.1111538,5
28,1893062328000,3.6,8.31,1.4982382,5
28,1893112286000,3.34,8.47,1.7297841,5
28,1893162365000,0.72,10.76,1.5390993,5
28,1893212261000,3.3,11.56,2.1111538,5
28,1893262341000,4.9,12.64,3.1054392,5
28,1893312206000,5.05,12.11,1.6889231,5
28,1893362347000,-3.83,13.4,0.27240697,5
28,1893412243000,-1.61,12.83,1.6480621,5
28,1893462261000,4.1,8.54,2.4108016,5
28,1893512249000,1.14,6.97,2.1111538,5
28,1893562359000,-1.46,5.63,2.2201166,5
28,1893612255000,-0.42,5.48,3.336985,5
28,1893662273000,0.31,4.44,3.405087,5
28,1893712231000,1.5,10.5,9.724928,5
28,1893762279000,0.34,13.06,7.205164,5
28,1893812237000,-3.06,15.13,5.6660647,5
28,1893862286000,0.84,7.63,-0.9125633,5
28,1893912243000,2.49,6.47,-2.7240696,5
28,1893962261000,3.06,9.7,2.3699405,5
28,1894012279000,0.31,8.92,0.19068487,5
28,1894062267000,1.88,9.04,2.1111538,5
28,1894112225000,2.56,8.12,1.334794,5
28,1894162304000,3.02,8.47,1.6480621,5
28,1894212475000,0.93,10.5,1.7297841,5
28,1894262676000,2.96,11.37,1.7570249,5
28,1894312237000,4.9,12.22,2.9556155,5
28,1894362316000,4.56,12.87,2.2609777,5
28,1894412273000,-1.38,11.69,-0.46309182,5
28,1894462261000,-3.98,13.99,1.2666923,5
28,1894512249000,3.34,9.11,2.8738933,5
28,1894562298000,2.87,7.5,2.4516625,5
28,1894612255000,-1.84,5.63,1.9885708,5
28,1894662273000,-0.84,5.33,3.173541,5
28,1894712261000,-0.3,4.37,3.0237172,5
28,1894762279000,1.42,8.2,8.049625,5
28,1894812206000,1.12,15.47,8.771504,5
28,1894862286000,-3.41,14.18,6.0882955,5
28,1894912243000,0.89,9.72,-1.6889231,5
28,1894962322000,2.45,5.09,-2.6014864,5
28,1895012279000,2.41,10.38,2.4516625,5
28,1895062298000,0.72,9.28,-0.14982383,5
28,1895112286000,1.88,9.11,2.070293,5
28,1895162273000,2.15,8.24,1.0760075,5
28,1895212261000,3.38,8.28,1.4165162,5
28,1895262279000,1.57,9.89,1.9885708,5
28,1895312267000,2.6,11.45,1.8387469,5
28,1895362286000,4.82,11.73,2.6832085,5
28,1895412243000,4.29,13.63,3.0645783,5
28,1895462292000,2.56,11.3,-0.46309182,5
28,1895512279000,-4.29,13.44,0.92618364,5
28,1895562267000,1.23,10.53,1.4165162,5
28,1895612286000,3.11,8.58,1.879608,5
28,1895662304000,-0.27,6.44,2.4108016,5
28,1895712231000,-0.65,5.6,2.8330324,5
28,1895762279000,-0.34,4.86,2.7649305,5
28,1895812237000,0.34,4.79,4.5219555,5
28,1895862316000,2.26,13.63,9.425281,5
28,1895912273000,-0.53,10.65,7.5865335,5
28,1895962261000,0.46,17.43,2.8738933,5
28,1896012279000,-0.91,5.28,1.6889231,5
28,1896062267000,1.76,7.21,-1.7978859,5
28,1896112225000,3.64,9.96,1.2258313,5
28,1896162273000,0.61,8.28,0.5720546,5
28,1896212200000,2.68,9.38,1.2258313,5
28,1896262279000,1.92,8.43,0.50395286,5
28,1896312237000,1.61,9.19,0.9942854,5
28,1896362286000,1.73,11.41,1.7297841,5
28,1896422344000,2.87,11.73,2.6423476,5
28,1896472332000,5.09,12.53,2.8738933,5
28,1896522259000,4.1,10.12,0.08172209,5
28,1896572247000,-3.36,15.02,0.84446156,5
28,1896622295000,0.0,12.49,1.0351465,5
28,1896672222000,5.09,8.05,3.255263,5
28,1896722271000,0.84,6.51,1.5390993,5
28,1896772228000,-1.04,5.24,1.6889231,5
28,1896822277000,-0.84,5.79,2.6014864,5
28,1896872234000,-0.15,4.94,3.7864566,5
28,1896922283000,1.31,10.42,9.956474,5
28,1896972149000,-0.23,13.53,7.273266,5
28,1897022411000,-2.41,13.06,6.4015636,5
28,1897072399000,1.18,10.84,-2.1111538,5
28,1897122204000,2.56,4.25,-3.173541,5
28,1897172314000,1.57,10.73,2.7649305,5
28,1897222240000,-0.65,9.3,-0.9942854,5
28,1897272259000,2.22,9.04,0.6537767,5
28,1897322216000,2.79,8.66,0.313268,5
28,1897372265000,2.96,8.69,1.1441092,5
28,1897422253000,1.65,10.88,1.7570249,5
28,1897472271000,3.06,11.45,2.6014864,5
28,1897522198000,3.79,11.69,2.4516625,5
28,1897572308000,5.28,12.83,1.920469,5
28,1897622265000,-1.69,13.67,-0.10896278,5
28,1897672283000,-0.42,13.53,0.6537767,5
28,1897722240000,3.41,9.0,2.4516625,5
28,1897772350000,2.3,7.4,1.879608,5
28,1897822247000,-0.27,5.22,1.1849703,5
28,1897872265000,0.19,5.79,2.7921712,5
28,1897922222000,0.0,4.79,3.486809,5
28,1897972301000,1.23,6.59,7.6954966,5
28,1898022228000,2.83,14.29,8.390134,5
28,1898072277000,-1.95,10.23,7.3549876,5
28,1898122234000,0.38,14.75,-2.8738933,5
28,1898172314000,1.14,3.91,0.27240697,5
28,1898222240000,2.56,11.35,1.607201,5
28,1898272259000,0.69,8.77,-0.0,5
28,1898322247000,1.5,8.66,1.4573772,5
28,1898372265000,1.73,8.89,0.7627395,5
28,1898422253000,2.56,8.5,0.6946377,5
28,1898472271000,1.23,10.27,1.4165162,5
28,1898522198000,2.11,11.73,1.8387469,5
28,1898572277000,4.33,11.37,2.7921712,5
28,1898622234000,3.99,12.95,3.2961242,5
28,1898672283000,3.64,10.08,-0.61291564,5
28,1898722240000,-1.99,15.98,1.7297841,5
28,1898772259000,2.11,10.61,1.0351465,5
28,1898822247000,2.76,8.05,3.2961242,5
28,1898872265000,-0.15,7.27,0.38136974,5
28,1898922253000,0.27,5.09,1.7297841,5
28,1898972301000,-2.18,6.44,3.0645783,5
28,1899022259000,0.15,5.48,4.3312707,5
28,1899072277000,1.69,10.92,9.00305,5
28,1899122234000,-0.42,12.15,7.6954966,5
28,1899172283000,-0.5,17.01,3.1463003,5
28,1899222271000,1.76,3.79,1.2258313,5
28,1899272259000,1.12,8.24,-2.1792557,5
28,1899322216000,1.76,9.89,0.53119355,5
28,1899372265000,-0.34,8.58,0.84446156,5
28,1899422253000,3.11,8.81,0.92618364,5
28,1899472271000,2.96,8.24,1.1441092,5
28,1899522198000,2.03,8.73,1.8387469,5
28,1899572277000,1.18,11.07,1.8387469,5
28,1899622234000,4.25,11.3,2.6832085,5
28,1899672314000,5.48,12.6,2.8330324,5
28,1899722271000,5.22,12.45,0.42223078,5
28,1899772259000,-4.86,14.18,0.08172209,5
28,1899822247000,-0.27,13.48,0.92618364,5
28,1899872295000,4.33,8.05,2.1792557,5
28,1899922253000,1.57,7.12,2.4925237,5
28,1899972301000,-1.27,5.28,1.7978859,5
28,1900022198000,-0.8,5.52,2.4516625,5
28,1900072277000,-0.15,4.25,2.982856,5
28,1900122234000,0.93,8.28,8.240311,5
28,1900172314000,1.88,14.98,8.921328,5
28,1900222240000,-2.49,18.01,4.7126403,5
28,1900272289000,0.46,6.78,0.23154591,5
28,1900322247000,1.88,6.17,-3.0645783,5
28,1900372265000,3.53,9.58,3.214402,5
28,1900422253000,0.38,7.27,-0.61291564,5
28,1900472332000,2.76,9.47,0.8036005,5
28,1900522228000,1.61,9.08,1.2258313,5
28,1900572308000,2.76,9.19,1.0351465,5
28,1900622234000,1.73,10.88,1.607201,5
28,1900672283000,2.26,11.37,2.0294318,5
28,1900722240000,5.52,12.07,2.152015,5
28,1900772289000,5.79,12.87,0.6946377,5
28,1900822247000,-4.06,14.33,-0.19068487,5
28,1900872265000,-1.08,13.1,0.53119355,5
28,1900922222000,3.49,8.5,1.5390993,5
28,1900972301000,1.92,6.93,2.4516625,5
28,1901022259000,-0.27,4.6,1.607201,5
28,1901072277000,0.27,6.32,3.3778462,5
28,1901122234000,-0.08,4.71,3.486809,5
28,1901172283000,0.15,7.16,8.471856,5
28,1901222271000,1.5,16.59,8.308413,5
28,1901272259000,-1.69,15.94,4.862464,5
28,1901322308000,1.69,8.5,0.14982383,5
28,1901372265000,1.5,4.86,-3.9499009,5
28,1901422253000,2.37,10.65,1.5390993,5
28,1901472301000,-0.27,9.11,0.88532263,5
28,1901522198000,2.96,8.73,1.2258313,5
28,1901572277000,3.15,8.08,1.2258313,5
28,1901622234000,1.57,8.73,1.607201,5
28,1901672283000,1.42,10.46,1.879608,5
28,1901722271000,3.6,11.35,2.1111538,5
28,1901772289000,4.9,11.96,2.6423476,5
28,1901822247000,5.37,13.06,1.8387469,5
28,1901872265000,-1.95,12.22,0.50395286,5
28,1901922283000,-1.31,14.18,2.2609777,5
28,1901972301000,3.76,8.92,1.920469,5
28,1902022289000,2.03,8.28,1.6480621,5
28,1902072399000,-1.33,5.94,1.879608,5
28,1902122295000,-0.42,6.28,3.1054392,5
28,1902172344000,-0.65,4.25,2.1792557,5
28,1902232281000,1.5,6.17,8.240311,5
28,1902282268000,1.23,16.02,8.158588,5
28,1902332287000,-2.68,9.51,7.082581,5
28,1902382275000,-0.46,16.17,-2.8738933,5
28,1902432262000,1.76,4.94,0.5720546,5
28,1902482250000,1.84,8.69,1.0351465,5
28,1902532299000,1.84,8.69,1.0351465,5
28,1902532299000,1.84,8.69,1.0351465,5
28,1902592602000,1.88,8.62,1.7978859,5
28,1902642376000,1.95,8.81,1.1441092,5
28,1902692516000,2.37,8.62,1.1168685,5
28,1902742260000,0.95,10.46,1.4573772,5
28,1902793194000,2.22,10.76,1.6480621,5
28,1902843945000,5.63,11.35,2.3426998,5
28,1902893658000,2.91,13.67,3.1054392,5
28,1902943035000,0.69,12.64,0.27240697,5
28,1902993816000,-1.42,14.6,1.879608,5
28,1903043560000,2.26,8.47,1.7570249,5
28,1903093151000,3.72,6.51,2.5333846,5
28,1903143810000,-1.61,7.55,1.9885708,5
28,1903193493000,-0.53,5.18,3.255263,5
28,1903243053000,-0.27,4.33,2.5333846,5
28,1903293835000,0.99,4.71,6.3198414,5
28,1903343609000,1.92,13.91,9.275456,5
28,1903393017000,-2.53,10.19,8.076866,5
28,1903443706000,-0.08,17.12,-3.1463003,5
28,1903493084000,3.68,6.97,0.95342433,5
28,1903543804000,-0.46,7.74,0.50395286,5
28,1903593609000,3.06,9.51,-0.10896278,5
28,1903643078000,1.54,8.81,1.1441092,5
28,1903693829000,0.84,8.66,1.6480621,5
28,1903743542000,3.64,7.86,0.9942854,5
28,1903793011000,1.99,9.47,1.4982382,5
28,1903843700000,0.76,11.75,1.6889231,5
28,1903893017000,7.25,11.41,2.9147544,5
28,1903943737000,3.3,14.06,3.1054392,5
28,1903992992000,1.27,11.8,-0.8036005,5
28,1904043774000,-3.64,14.37,1.1849703,5
28,1904093456000,3.26,10.04,-0.46309182,5
28,1904143139000,3.3,8.28,3.486809,5
28,1904193737000,-0.3,8.47,2.2609777,5
28,1904243511000,-0.69,4.71,1.6889231,5
28,1904293041000,-0.72,3.83,2.2609777,5
28,1904343761000,0.84,4.14,5.7886477,5
28,1904393444000,0.84,14.37,8.853226,5
28,1904443035000,-2.83,14.37,6.3607025,5
28,1904493725000,0.84,16.21,0.84446156,5
28,1904543499000,2.76,3.95,-2.2201166,5
28,1904593029000,0.5,9.34,1.4573772,5
28,1904643719000,1.33,8.69,-1.1168685,5
28,1904692974000,3.57,9.53,0.8036005,5
28,1904743664000,3.26,8.69,1.334794,5
28,1904792980000,3.21,8.5,0.7218784,5
28,1904843639000,1.31,9.51,1.4165162,5
28,1904893017000,2.53,11.5,2.5333846,5
28,1904943737000,3.06,12.15,2.6014864,5
28,1904992992000,3.91,13.44,1.9477097,5
28,1905043682000,1.14,12.3,0.040861044,5
28,1905092998000,-0.76,14.56,1.2258313,5
28,1905143749000,4.1,9.96,2.5606253,5
28,1905192974000,2.98,7.67,1.1849703,5
28,1905244244000,-1.42,5.6,1.0760075,5
28,1905302319000,0.27,5.41,2.6423476,5
28,1905352337000,0.08,4.21,2.8738933,5
28,1905402294000,1.95,6.28,8.730643,5
28,1905452282000,1.18,17.08,8.499097,5
28,1905502270000,-2.72,13.06,6.510526,5
28,1905552288000,-0.11,12.57,0.040861044,5
28,1905602276000,3.49,4.14,-3.214402,5
28,1905652264000,2.22,10.34,2.5333846,5
28,1905702282000,-0.11,7.93,0.92618364,5
28,1905752270000,2.76,8.81,-0.0,5
28,1905802288000,2.03,9.43,1.7978859,5
28,1905852245000,2.03,8.54,1.2258313,5
28,1905902264000,2.18,9.66,1.0760075,5
28,1905952282000,1.88,11.73,1.7297841,5
28,1906002300000,4.79,11.14,3.3778462,5
28,1906052319000,7.21,13.21,2.070293,5
28,1906102276000,0.15,13.25,-0.88532263,5
28,1906152264000,-4.06,15.55,1.4573772,5
28,1906202282000,1.99,9.47,-0.10896278,5
28,1906252270000,3.64,8.73,1.7978859,5
28,1906302288000,0.46,7.27,1.334794,5
28,1906352276000,-1.14,6.28,1.6480621,5
28,1906402264000,-0.61,5.22,1.6480621,5
28,1906452282000,0.8,4.67,4.372132,5
28,1906502270000,0.57,10.0,8.117727,5
28,1906552288000,0.23,14.29,7.082581,5
28,1906602306000,-0.95,14.18,6.851035,5
28,1906652264000,1.31,12.79,-1.4165162,5
28,1906702282000,0.95,1.46,-6.851035,5
28,1906752270000,1.92,11.69,3.0645783,5
28,1906802288000,-0.11,9.43,-1.56634,5
28,1906852276000,3.68,8.96,0.95342433,5
28,1906902264000,3.15,8.73,1.0351465,5
28,1906952282000,1.65,9.15,1.920469,5
28,1907002270000,2.41,9.92,2.6423476,5
28,1907052258000,3.57,10.27,2.6423476,5
28,1907102306000,4.02,11.41,3.1463003,5
28,1907152264000,4.71,12.87,2.1792557,5
28,1907202282000,-0.11,12.83,-0.27240697,5
28,1907252270000,0.57,14.71,1.4573772,5
28,1907302319000,5.18,9.72,1.7297841,5
28,1907352276000,2.72,7.7,1.3075534,5
28,1907402294000,-0.3,7.27,1.56634,5
28,1907452282000,0.69,5.86,0.8036005,5
28,1907502270000,-1.33,4.33,0.38136974,5
28,1907552258000,-1.33,5.98,5.407278,5
28,1907602276000,1.95,14.21,8.349273,5
28,1907652264000,1.31,12.53,8.730643,5
28,1907702343000,2.53,15.21,-2.6014864,5
28,1907762249000,-1.33,0.53,-3.6774938,5
28,1907812206000,3.17,13.25,4.2495484,5
28,1907862316000,2.11,6.7,-1.2258313,5
28,1907912151000,2.6,9.11,2.152015,5
28,1907962261000,0.23,9.3,1.1441092,5
28,1908012249000,3.6,8.73,1.2258313,5
28,1908062237000,1.46,10.27,2.1111538,5
28,1908112286000,2.3,10.99,2.152015,5
28,1908162243000,5.48,11.5,2.6832085,5
28,1908212292000,5.48,12.76,1.7978859,5
28,1908262218000,-3.95,13.29,0.42223078,5
28,1908312267000,-1.88,13.91,1.2258313,5
28,1908362225000,3.06,9.38,1.9885708,5
28,1908412365000,1.92,8.35,2.4925237,5
28,1908472271000,-0.61,4.06,1.0351465,5
28,1908522198000,-0.69,5.79,3.1054392,5
28,1908572277000,0.15,5.09,4.440233,5
28,1908622234000,1.38,8.77,8.962189,5
28,1908672283000,0.38,15.55,7.4639506,5
28,1908722240000,-1.92,16.7,3.9090397,5
28,1908772259000,2.53,5.86,-1.2258313,5
28,1908822277000,1.04,8.24,-2.5606253,5
28,1908872265000,1.92,8.43,0.313268,5
28,1908922253000,1.54,9.72,0.9942854,5
28,1908972301000,3.11,8.77,1.56634,5
28,1909022228000,3.49,8.24,1.5390993,5
28,1909072308000,2.03,8.58,1.6889231,5
28,1909122234000,1.04,10.8,1.920469,5
28,1909172283000,4.06,10.8,2.6014864,5
28,1909222393000,5.22,12.03,2.5606253,5
28,1909272320000,4.99,12.72,1.4573772,5
28,1909322216000,-3.3,12.57,-0.19068487,5
28,1909372265000,0.38,13.63,1.0351465,5
28,1909422222000,3.6,9.77,1.6889231,5
28,1909472301000,1.61,8.35,2.1111538,5
28,1909522228000,-0.76,6.24,0.95342433,5
28,1909572704000,-1.27,5.22,1.9477097,5
28,1909622204000,-0.3,4.06,2.5606253,5
28,1909672283000,0.99,7.16,7.246025,5
28,1909722271000,1.69,15.79,9.00305,5
28,1909772259000,-1.08,14.33,7.8180795,5
28,1909822247000,1.54,12.22,-0.23154591,5
28,1909872295000,1.73,4.06,-3.255263,5
28,1909922222000,1.8,11.07,1.4165162,5
28,1909972271000,0.34,8.66,-0.040861044,5
28,1910022228000,2.3,9.08,1.2666923,5
28,1910072277000,2.45,8.43,2.0294318,5
28,1910122234000,3.49,7.89,1.4573772,5
28,1910172283000,2.3,9.23,1.6889231,5
28,1910222240000,1.27,11.5,1.8387469,5
28,1910272259000,5.52,11.11,2.9556155,5
28,1910322277000,4.33,13.57,3.1463003,5
28,1910372265000,3.64,11.26,-0.61291564,5
28,1910422253000,-4.9,15.4,0.5720546,5
28,1910472271000,1.38,11.92,-0.10896278,5
28,1910522228000,4.06,8.77,2.9147544,5
28,1910572277000,0.89,7.08,2.3426998,5
28,1910622204000,-0.69,4.6,1.334794,5
28,1910672283000,-1.08,4.75,1.5390993,5
28,1910722454000,0.65,5.09,4.2086873,5
28,1910772259000,1.04,12.34,8.771504,5
28,1910822247000,-0.19,12.34,7.5456724,5
28,1910872265000,-0.19,17.69,5.5571017,5
28,1910922253000,1.14,7.74,-0.46309182,5
28,1910972271000,0.99,4.67,-3.486809,5
28,1911022198000,3.41,10.8,2.982856,5
28,1911072277000,0.19,8.01,-0.46309182,5
28,1911122234000,1.88,9.23,1.334794,5
28,1911172283000,2.34,8.43,1.3756552,5
28,1911222210000,3.83,8.43,1.7297841,5
28,1911272259000,1.8,9.96,2.152015,5
28,1911322247000,3.17,11.11,2.3699405,5
28,1911372295000,4.82,11.65,2.6832085,5
28,1911422222000,4.82,12.91,2.5333846,5
28,1911472271000,-2.75,13.06,-0.27240697,5
28,1911522228000,-1.95,14.25,1.334794,5
28,1911572277000,4.44,9.51,1.4982382,5
28,1911622265000,2.26,7.5,2.6832085,5
28,1911672283000,0.15,5.83,1.5390993,5
28,1911722240000,-1.18,5.13,1.7297841,5
28,1911772228000,-0.46,3.68,2.2201166,5
28,1911822277000,0.93,7.27,7.5456724,5
28,1911872295000,1.18,16.17,8.894087,5
28,1911922344000,-1.23,11.45,7.668256,5
28,1911972271000,2.6,13.29,-3.568531,5
28,1912022289000,0.99,2.83,-4.1814466,5
28,1912072247000,1.61,11.92,2.7649305,5
28,1912122295000,0.0,8.81,-1.4165162,5
28,1912172253000,2.56,8.85,1.4982382,5
28,1912222271000,2.34,8.12,0.92618364,5
28,1912272259000,3.17,8.35,1.4982382,5
28,1912322277000,1.57,10.27,2.2201166,5
28,1912372204000,3.64,11.26,2.4925237,5
28,1912422344000,5.13,11.5,3.5957718,5
28,1912472240000,4.94,13.29,2.7921712,5
28,1912522259000,0.08,12.18,-1.2258313,5
28,1912572247000,-1.53,16.44,2.4516625,5
28,1912622295000,2.41,10.34,0.88532263,5
28,1912672283000,3.15,6.44,0.6537767,5
28,1912722271000,-0.84,4.99,1.2258313,5
28,1912772259000,-1.61,4.63,1.6480621,5
28,1912822308000,-0.11,5.94,3.7864566,5
28,1912872204000,1.69,11.8,10.882658,5
28,1912922314000,-3.21,13.95,7.43671,5
28,1912972271000,-5.01,14.1,7.1234417,5
28,1913022320000,2.68,3.72,-0.8036005,5
28,1913072277000,2.18,8.12,-2.7513103,5
28,1913122265000,1.73,9.47,1.334794,5
28,1913172253000,-2.07,8.16,0.14982383,5
28,1913222332000,2.98,10.23,0.08172209,5
28,1913272259000,2.98,9.47,4.5628166,5
28,1913322277000,4.21,7.35,1.4982382,5
28,1913372265000,2.3,9.77,2.2609777,5
28,1913422283000,0.5,11.5,1.8387469,5
28,1913472118000,4.86,11.07,2.7649305,5
28,1913522198000,5.63,13.59,2.7921712,5
28,1913572308000,0.89,12.03,-0.5720546,5
28,1913622204000,-4.02,14.48,1.3075534,5
28,1913672314000,1.73,9.96,-0.23154591,5
28,1913722301000,3.26,8.39,2.7649305,5
28,1913772289000,-0.11,6.28,1.6480621,5
28,1913822216000,-0.3,5.63,2.6423476,5
28,1913872295000,-0.23,4.67,2.0294318,5
28,1913922253000,0.42,4.79,5.09401,5
28,1913972271000,2.18,15.7,9.193735,5
28,1914022198000,-1.99,11.45,6.2789803,5
28,1914072277000,0.42,16.44,0.5720546,5
28,1914122265000,0.15,5.6,1.1441092,5
28,1914172344000,2.15,9.34,-2.6014864,5
28,1914222240000,1.5,9.66,0.9942854,5
28,1914272289000,1.33,8.92,1.1849703,5
28,1914322308000,2.98,8.66,1.0351465,5
28,1914372265000,3.26,8.24,1.5390993,5
28,1914422283000,2.64,8.69,2.1792557,5
28,1914472301000,1.73,10.46,1.9885708,5
28,1914522259000,4.52,11.3,2.7921712,5
28,1914572308000,4.56,12.53,2.6423476,5
28,1914622265000,5.09,11.96,1.56634,5
28,1914672314000,-3.49,12.22,-0.08172209,5
28,1914722271000,-0.65,13.53,1.2666923,5
28,1914772259000,3.91,9.43,2.6832085,5
28,1914822216000,1.95,7.86,1.9885708,5
28,1914872265000,-0.89,4.71,1.6889231,5
28,1914922253000,-0.57,5.48,2.5606253,5
28,1914972271000,-0.11,4.71,2.7240696,5
28,1915022198000,0.72,9.34,8.308413,5
28,1915072277000,0.46,16.02,8.049625,5
28,1915122234000,-1.95,13.91,7.4639506,5
28,1915172283000,2.11,9.96,-2.070293,5
28,1915222240000,1.27,4.1,-4.7535014,5
28,1915272228000,2.76,10.8,1.6889231,5
28,1915322216000,-0.04,9.51,0.040861044,5
28,1915372265000,3.21,9.11,1.3075534,5
28,1915422222000,3.53,8.2,1.334794,5
28,1915472301000,2.91,8.5,1.7297841,5
28,1915522198000,1.12,10.42,2.3426998,5
28,1915572277000,3.91,10.73,2.4925237,5
28,1915622234000,4.56,11.07,3.0237172,5
28,1915672283000,5.24,12.79,2.6832085,5
28,1915722240000,-2.37,12.6,-0.84446156,5
28,1915772289000,-2.11,15.4,1.56634,5
28,1915822247000,4.44,10.04,1.56634,5
28,1915872265000,2.34,8.12,2.4925237,5
28,1915922253000,-0.3,4.52,0.6946377,5
28,1915972301000,-0.72,4.82,2.1111538,5
28,1916022198000,-0.19,4.6,3.0237172,5
28,1916072277000,1.14,6.78,6.469665,5
28,1916122204000,1.18,15.4,9.384419,5
28,1916172283000,-1.38,14.14,7.6954966,5
28,1916222210000,1.92,13.02,-1.9477097,5
28,1916272228000,0.46,3.06,-3.718355,5
28,1916322247000,2.18,11.73,1.607201,5
28,1916372265000,0.89,8.28,-0.61291564,5
28,1916422253000,2.26,9.43,0.84446156,5
28,1916472301000,2.37,8.89,1.920469,5
28,1916522259000,3.72,8.12,1.6480621,5
28,1916572277000,2.22,9.62,2.152015,5
28,1916622295000,2.03,11.07,2.2609777,5
28,1916672314000,6.4,10.76,3.336985,5
28,1916722240000,3.34,13.02,3.2961242,5
28,1916772259000,2.6,10.88,-1.3075534,5
28,1916822277000,-5.86,16.21,1.5390993,5
28,1916872295000,3.6,11.75,0.08172209,5
28,1916922253000,3.41,8.54,3.7864566,5
28,1916972271000,0.31,5.6,1.1441092,5
28,1917022228000,-0.89,5.37,1.6889231,5
28,1917072277000,-1.38,4.86,2.2609777,5
28,1917122234000,0.27,4.71,3.990762,5
28,1917172283000,2.22,13.57,9.765789,5
28,1917222271000,-1.8,12.15,7.5865335,5
28,1917272259000,-0.95,14.86,4.7535014,5
28,1917322247000,2.37,9.11,-0.6537767,5
28,1917372295000,1.65,3.87,-5.407278,5
28,1917422253000,2.22,10.61,2.7240696,5
28,1917472271000,0.8,9.85,0.27240697,5
28,1917522259000,2.76,8.58,1.4165162,5
28,1917572277000,2.96,8.47,1.0351465,5
28,1917622204000,2.3,8.66,1.4573772,5
28,1917672283000,1.54,10.31,2.2201166,5
28,1917722240000,3.45,10.46,2.3699405,5
28,1917772259000,4.99,10.99,2.7921712,5
28,1917822247000,5.13,12.79,2.3426998,5
28,1917872265000,-2.91,12.79,-0.5720546,5
28,1917922222000,-1.99,15.05,1.0351465,5
28,1917972271000,3.17,10.19,1.2258313,5
28,1918022228000,2.64,7.97,3.214402,5
28,1918072277000,0.0,5.18,1.5390993,5
28,1918122234000,-1.76,5.13,1.8387469,5
28,1918172314000,-1.08,4.75,2.3018389,5
28,1918222210000,1.38,6.44,6.5513873,5
28,1918272259000,1.27,13.4,8.921328,5
28,1918322247000,-1.53,14.02,6.851035,5
28,1918372295000,-0.15,15.55,1.2666923,5
28,1918422283000,1.31,4.6,-2.0294318,5
28,1918472271000,2.96,10.31,0.5720546,5
28,1918522259000,1.84,7.67,0.5720546,5
28,1918572399000,1.23,9.38,0.53119355,5
28,1918622295000,1.33,9.34,1.4573772,5
28,1918672344000,3.38,8.24,1.1441092,5
28,1918732281000,2.68,9.15,1.56634,5
28,1918782207000,1.08,10.95,1.879608,5
28,1918832287000,5.48,10.61,3.0237172,5
28,1918882275000,4.71,12.72,3.173541,5
28,1918932232000,4.02,11.99,0.040861044,5
28,1918982525000,-4.99,14.14,0.27240697,5
28,1919032299000,0.31,12.76,0.38136974,5
28,1919032299000,0.31,12.76,0.38136974,5
28,1919092327000,3.79,8.85,3.759216,5
28,1919142406000,0.42,5.79,1.4573772,5
28,1919192272000,-1.04,4.79,1.7297841,5
28,1919242290000,-1.23,5.86,2.3699405,5
28,1919292278000,0.61,5.56,4.7126403,5
28,1919343121000,1.31,11.5,9.00305,5
28,1919393841000,-0.19,12.68,7.5865335,5
28,1919443615000,-1.88,17.01,2.9147544,5
28,1919493023000,1.8,7.7,0.040861044,5
28,1919543774000,1.57,5.6,-4.2495484,5
28,1919593456000,2.98,9.23,1.9477097,5
28,1919643078000,0.15,9.72,-0.10896278,5
28,1919693768000,2.22,8.96,1.3075534,5
28,1919743450000,3.72,8.47,1.2666923,5
28,1919793011000,2.96,8.62,1.7570249,5
28,1919843700000,1.76,10.27,2.0294318,5
28,1919893017000,3.6,10.76,2.6014864,5
28,1919943737000,4.9,11.56,2.6423476,5
28,1919992992000,4.52,13.02,2.2201166,5
28,1920043713000,-1.76,12.79,0.23154591,5
28,1920093029000,-1.73,13.76,0.7627395,5
28,1920143780000,2.96,9.38,1.1849703,5
28,1920193432000,1.95,8.01,2.8738933,5
28,1920243084000,-0.11,5.63,1.0351465,5
28,1920293774000,-1.18,6.17,2.3426998,5
28,1920343487000,-0.99,4.86,1.920469,5
28,1920392986000,1.04,6.55,6.6331096,5
28,1920443737000,0.76,11.88,7.8180795,5
28,1920492992000,-1.61,10.34,7.1234417,5
28,1920543713000,-0.95,8.39,7.7363577,5
28,1920593029000,5.09,13.25,-4.372132,5
28,1920643719000,1.12,1.46,-5.053149,5
28,1920692974000,2.11,11.11,2.5606253,5
28,1920743664000,0.72,9.77,-2.0294318,5
28,1920792980000,0.93,8.62,1.4982382,5
28,1920843700000,3.76,8.73,0.53119355,5
28,1920893017000,3.26,10.15,2.152015,5
28,1920943676000,1.31,11.03,3.214402,5
28,1920992962000,4.14,10.5,3.336985,5
28,1921043682000,4.52,12.3,3.5957718,5
28,1921092998000,2.6,11.96,-0.9125633,5
28,1921143719000,-3.68,17.82,1.7570249,5
28,1921193005000,4.21,9.7,0.9942854,5
28,1921243664000,2.26,6.74,2.1111538,5
28,1921292980000,-0.3,4.63,0.50395286,5
28,1921343761000,-0.19,5.79,2.4108016,5
28,1921393017000,-0.76,4.67,2.4108016,5
28,1921443737000,0.5,6.66,6.973618,5
28,1921492962000,0.34,15.75,8.308413,5
28,1921543652000,-1.99,14.94,7.4639506,5
28,1921592998000,1.95,9.08,-3.1054392,5
28,1921643719000,2.34,4.21,-3.6774938,5
28,1921693035000,0.99,10.23,3.6774938,5
28,1921743694000,1.08,8.05,-0.6946377,5
28,1921792980000,2.76,8.69,1.3756552,5
28,1921843700000,1.46,8.58,1.2666923,5
28,1921892986000,2.98,9.08,1.5390993,5
28,1921943706000,1.27,11.07,2.6423476,5
28,1921992992000,4.6,10.69,3.5276701,5
28,1922043713000,5.67,13.02,3.636633,5
28,1922092968000,4.14,12.37,0.040861044,5
28,1922143749000,-5.43,17.12,1.334794,5
28,1922193005000,1.95,9.89,-0.27240697,5
28,1922243694000,3.41,8.16,2.982856,5
28,1922292950000,0.04,5.28,0.50395286,5
28,1922343670000,-0.95,5.98,2.2201166,5
28,1922393017000,-0.91,4.94,3.255263,5
28,1922443706000,0.31,4.99,5.706926,5
28,1922492962000,1.54,15.83,9.575105,5
28,1922543621000,-1.33,12.45,6.932757,5
28,1922592998000,1.31,14.86,-3.405087,5
28,1922652813000,1.04,1.95,-4.862464,5
28,1922702282000,2.45,10.5,2.9147544,5
28,1922752270000,0.72,9.51,-1.0351465,5
28,1922802288000,1.88,9.04,2.3018389,5
28,1922852276000,2.96,7.78,1.2666923,5
28,1922902264000,3.72,8.47,2.1111538,5
28,1922952282000,1.33,10.23,2.4108016,5
28,1923002270000,6.44,10.88,3.445948,5
28,1923052288000,4.25,13.57,3.5957718,5
28,1923102276000,4.4,12.18,-0.3405087,5
28,1923152294000,-6.17,16.55,1.334794,5
28,1923202282000,3.49,10.84,0.27240697,5
28,1923252300000,3.15,8.35,3.255263,5
28,1923302288000,0.11,5.28,0.6946377,5
28,1923352276000,-1.14,5.24,1.6889231,5
28,1923402264000,-0.65,4.94,2.6423476,5
28,1923452282000,0.53,5.37,5.5162406,5
28,1923502270000,0.84,15.4,9.343558,5
28,1923552288000,-2.14,11.37,7.668256,5
28,1923602276000,0.08,15.17,-1.7978859,5
28,1923652294000,3.87,5.48,-1.1441092,5
28,1923702312000,0.04,9.51,1.1849703,5
28,1923752270000,1.08,9.58,-0.84446156,5
28,1923802288000,2.98,8.62,1.4573772,5
28,1923852276000,2.41,8.31,1.0351465,5
28,1923902264000,3.26,8.28,1.4165162,5
28,1923952282000,1.5,10.15,2.2609777,5
28,1924002270000,3.99,10.73,2.8738933,5
28,1924052319000,6.05,11.22,3.8273177,5
28,1924102367000,3.34,13.02,3.2961242,5
28,1924152325000,-0.99,14.18,-0.14982383,5
28,1924202282000,-1.33,15.4,0.92618364,5
28,1924252331000,3.68,9.19,2.4925237,5
28,1924312237000,0.93,6.4,0.313268,5
28,1924362225000,-0.57,3.87,0.23154591,5
28,1924412273000,-0.72,6.24,3.2961242,5
28,1924462231000,-0.69,5.41,4.7126403,5
28,1924512310000,0.08,11.26,8.499097,5
28,1924512310000,0.08,11.26,8.499097,5
28,1924612286000,-0.42,16.47,2.4516625,5
28,1924662243000,2.68,5.67,-1.4165162,5
28,1924712200000,0.72,7.5,-1.0760075,5
28,1924762279000,2.22,9.23,-0.53119355,5
28,1924812206000,0.93,9.66,1.3756552,5
28,1924862652000,2.6,8.31,1.1849703,5
28,1924912243000,3.49,8.16,0.6946377,5
28,1924962261000,2.22,9.19,1.7570249,5
28,1925012218000,1.84,11.5,2.2201166,5
28,1925062267000,6.17,10.88,3.9090397,5
28,1925112255000,4.9,13.06,3.7864566,5
28,1925162304000,3.06,11.5,-0.95342433,5
28,1925212200000,-5.33,16.44,0.9942854,5
28,1925262249000,2.22,11.41,0.5720546,5
28,1925312206000,3.02,8.69,3.445948,5
28,1925362286000,0.08,5.9,0.53119355,5
28,1925412212000,-0.57,2.98,0.88532263,5
28,1925462261000,-0.46,6.13,3.636633,5
28,1925512218000,-0.04,5.75,5.7886477,5
28,1925562267000,1.84,15.02,9.425281,5
28,1925612225000,-2.22,14.02,7.5865335,5
28,1925662273000,1.5,14.44,-2.6832085,5
28,1925712200000,1.84,2.56,-3.1054392,5
28,1925762279000,2.3,11.07,2.1792557,5
28,1925812237000,-0.08,9.53,-0.9942854,5
28,1925862316000,2.3,8.96,1.7978859,5
28,1925912212000,2.83,8.12,0.6537767,5
28,1925962261000,3.11,8.35,1.2258313,5
28,1926012249000,1.23,10.08,2.152015,5
28,1926062298000,3.38,11.11,2.7921712,5
28,1926112255000,6.85,11.35,3.336985,5
28,1926162273000,3.99,13.8,2.8738933,5
28,1926212200000,-2.07,12.72,-0.27240697,5
28,1926262249000,-2.34,14.33,1.1441092,5
28,1926312237000,3.06,9.7,1.0351465,5
28,1926362286000,1.76,7.4,2.152015,5
28,1926412212000,-0.3,5.22,1.4982382,5
28,1926462261000,-0.53,5.67,2.3426998,5
28,1926512218000,-0.19,3.95,2.9147544,5
28,1926562267000,0.38,6.74,8.281172,5
28,1926612225000,0.11,17.92,7.7363577,5
28,1926662304000,-3.34,13.82,7.273266,5
28,1926712231000,2.76,10.69,-1.7978859,5
28,1926762310000,1.18,3.15,-5.366417,5
28,1926812206000,3.06,10.46,2.3426998,5
28,1926862316000,0.27,9.77,0.313268,5
28,1926912212000,3.45,8.85,1.879608,5
28,1926962261000,3.02,8.01,1.0760075,5
28,1927012218000,2.49,8.31,1.4573772,5
28,1927062267000,1.38,10.53,2.0294318,5
28,1927112225000,3.76,10.99,2.7240696,5
28,1927162304000,6.74,12.07,2.8738933,5
28,1927212231000,4.86,13.53,1.2666923,5
28,1927262279000,-4.33,13.25,-0.46309182,5
28,1927312206000,-1.12,13.59,0.7218784,5
28,1927362286000,3.6,9.15,2.0294318,5
28,1927412212000,1.73,7.86,2.070293,5
28,1927462292000,-0.57,5.22,1.1849703,5
28,1927512218000,-1.38,5.56,2.3018389,5
28,1927562267000,0.0,3.91,3.0645783,5
28,1927612225000,0.76,7.44,8.921328,5
28,1927662273000,0.61,17.2,7.8589406,5
28,1927712231000,-3.34,14.52,8.730643,5
28,1927762279000,3.53,10.57,-2.3699405,5
28,1927812206000,0.99,3.49,-6.1700177,5
28,1927862316000,2.64,10.8,1.9885708,5
28,1927912212000,0.23,8.96,-0.29964766,5
28,1927962261000,3.21,9.28,1.3075534,5
28,1928012249000,3.45,8.12,1.4982382,5
28,1928062267000,3.17,8.43,1.9885708,5
28,1928112225000,1.54,10.69,2.5333846,5
28,1928162304000,5.13,11.07,3.173541,5
28,1928212200000,5.05,12.41,3.0645783,5
28,1928262279000,4.52,11.99,1.4982382,5
28,1928312206000,-4.71,13.87,0.23154591,5
28,1928362286000,0.53,13.82,0.88532263,5
28,1928412243000,3.99,9.43,2.9556155,5
28,1928462261000,0.76,7.35,1.2666923,5
28,1928512218000,-0.53,3.91,0.38136974,5
28,1928562267000,-0.65,5.52,3.0237172,5
28,1928612225000,-0.91,5.71,5.09401,5
28,1928662273000,0.53,9.11,7.3141265,5
28,1928712231000,0.93,14.18,7.8180795,5
28,1928762279000,0.53,16.32,5.434519,5
28,1928812206000,1.5,6.21,0.040861044,5
28,1928862347000,-1.14,6.97,-3.1054392,5
28,1928912212000,3.91,9.72,-0.6537767,5
28,1928962261000,1.54,8.73,1.3075534,5
28,1929012218000,2.49,8.85,1.9885708,5
28,1929062267000,3.53,7.86,1.4165162,5
28,1929112225000,2.76,8.89,1.7297841,5
28,1929162273000,0.65,11.14,1.7978859,5
28,1929212200000,4.21,10.73,2.7240696,5
28,1929262310000,5.63,13.44,2.9147544,5
28,1929312206000,4.33,13.06,-0.38136974,5
28,1929362286000,-5.75,15.4,0.92618364,5
28,1929412212000,0.23,11.69,-0.19068487,5
28,1929462261000,4.37,8.2,3.445948,5
28,1929512218000,2.07,6.51,1.7297841,5
28,1929562267000,-1.18,3.57,1.1849703,5
28,1929622326000,-0.72,6.32,3.405087,5
28,1929672253000,0.04,4.63,4.862464,5
28,1929722332000,0.95,14.14,9.275456,5
28,1929782238000,-1.95,13.48,8.62168,5
28,1929832226000,2.72,13.25,-4.5628166,5
28,1929882244000,0.0,1.69,-4.630918,5
28,1929932201000,3.02,12.3,3.0237172,5
28,1929982281000,0.84,7.78,-1.56634,5
28,1930032238000,2.83,9.58,1.9885708,5
28,1930082256000,2.34,8.16,1.6480621,5
28,1930082256000,2.34,8.16,1.6480621,5
28,1930182201000,0.72,10.46,2.152015,5
28,1930232372000,4.1,10.88,2.6014864,5
28,1930282238000,5.98,11.96,2.8330324,5
28,1930332287000,5.63,12.76,1.3075534,5
28,1930382244000,-5.56,14.98,0.19068487,5
28,1930432262000,-1.23,13.33,0.61291564,5
28,1930482250000,4.94,8.54,3.445948,5
28,1930532268000,1.42,6.4,2.3699405,5
28,1930582256000,-0.72,4.63,1.879608,5
28,1930632275000,-0.84,4.48,2.070293,5
28,1930682232000,0.38,4.18,3.759216,5
28,1930732281000,0.61,10.15,9.466142,5
28,1930782207000,-0.11,14.98,7.164303,5
28,1930832287000,-3.06,15.17,6.1291566,5
28,1930882244000,2.6,10.15,-1.3756552,5
28,1930932232000,0.95,2.98,-4.5219555,5
28,1930982220000,3.21,10.76,2.2609777,5
28,1931032268000,0.0,9.23,0.46309182,5
28,1931082256000,3.3,8.16,1.879608,5
28,1931132275000,3.45,7.89,1.0760075,5
28,1931182232000,2.15,8.81,1.4982382,5
28,1931232250000,1.88,11.6,2.2609777,5
28,1931282268000,4.75,11.26,2.9556155,5
28,1931332287000,4.18,14.02,2.4925237,5
28,1931382244000,3.87,11.5,-1.2666923,5
28,1931432262000,-4.18,17.97,-0.0,5
28,1931482281000,3.15,11.07,2.1792557,5
28,1931532268000,2.98,6.36,1.879608,5
28,1931582256000,-0.53,4.67,0.10896278,5
28,1931632275000,-1.31,3.91,1.8387469,5
28,1931682232000,-0.46,4.56,4.399372,5
28,1931732281000,0.46,7.08,8.730643,5
28,1931782207000,-0.34,17.27,7.4639506,5
28,1931832287000,-3.26,16.13,6.932757,5
28,1931882244000,3.83,7.21,-2.1383946,5
28,1931932354000,1.31,3.11,-4.2086873,5
28,1931982220000,1.73,11.84,2.4108016,5
28,1932032268000,0.08,8.96,-0.0,5
28,1932082256000,3.45,7.97,1.9885708,5
28,1932132275000,2.64,8.05,1.0760075,5
28,1932182201000,2.22,9.11,1.56634,5
28,1932232250000,0.76,11.96,2.1111538,5
28,1932282268000,5.22,10.8,3.568531,5
28,1932332287000,5.24,12.87,3.636633,5
28,1932382214000,3.34,11.35,-0.84446156,5
28,1932432232000,-4.59,17.88,0.53119355,5
28,1932482250000,1.8,10.08,1.4165162,5
28,1932532268000,3.79,7.31,2.4108016,5
28,1932582226000,-0.27,5.01,0.27240697,5
28,1932632275000,-1.5,5.22,2.3426998,5
28,1932682262000,-0.42,4.86,2.8330324,5
28,1932732250000,0.19,5.71,6.469665,5
28,1932782238000,2.26,18.01,10.119919,5
28,1932832287000,-4.18,14.52,7.246025,5
28,1932882244000,2.41,10.95,-3.6774938,5
28,1932932293000,0.65,2.07,-4.099725,5
28,1932982281000,3.02,11.07,3.1463003,5
28,1933032268000,0.69,8.54,-1.3756552,5
28,1933082226000,2.11,9.11,2.152015,5
28,1933132305000,2.72,8.2,1.1441092,5
28,1933182201000,3.38,8.66,1.3756552,5
28,1933232281000,1.12,11.26,2.070293,5
28,1933282268000,4.29,10.95,3.405087,5
28,1933332287000,6.17,11.96,3.173541,5
28,1933382275000,5.18,11.65,0.040861044,5
28,1933432262000,-5.9,16.51,0.38136974,5
28,1933482250000,-0.53,12.95,0.46309182,5
28,1933532268000,3.68,8.81,3.336985,5
28,1933582226000,1.33,6.74,0.9942854,5
28,1933632275000,-0.76,3.87,0.95342433,5
28,1933682232000,-1.04,5.6,3.568531,5
28,1933732250000,0.04,4.63,4.671779,5
28,1933782207000,0.89,11.92,9.615966,5
28,1933832287000,-3.21,12.57,6.891896,5
28,1933882214000,-2.18,17.01,2.6014864,5
28,1933932262000,4.99,7.44,-0.08172209,5
28,1933982250000,-0.23,4.63,-1.9885708,5
28,1934032268000,2.72,11.11,0.8036005,5
28,1934082256000,1.04,8.39,1.0760075,5
28,1934132275000,2.56,7.93,1.2258313,5
28,1934182232000,3.53,8.31,0.84446156,5
28,1934232281000,1.69,9.23,1.4165162,5
28,1934282452000,2.34,11.65,2.4108016,5
28,1934332317000,5.22,11.22,3.486809,5
28,1934382244000,4.44,13.38,2.8738933,5
28,1934432262000,2.07,12.6,-0.5720546,5
28,1934482250000,-4.14,17.43,0.84446156,5
28,1934532268000,3.15,9.66,1.7297841,5
28,1934582226000,3.06,6.47,1.7978859,5
28,1934632275000,-0.46,4.14,-0.14982383,5
28,1934682232000,-0.95,4.75,2.2609777,5
28,1934732281000,-0.27,5.9,3.8273177,5
28,1934782207000,0.53,6.4,6.8237944,5
28,1934832287000,2.34,17.62,9.384419,5
28,1934882244000,-2.11,12.83,6.782933,5
28,1934932262000,1.61,11.92,-2.6014864,5
28,1934982250000,1.54,3.34,-4.2904096,5
28,1935032238000,2.22,10.19,2.7649305,5
28,1935082256000,0.99,8.77,-0.6946377,5
28,1935132305000,2.56,9.08,1.879608,5
28,1935182140000,2.72,7.78,1.0351465,5
28,1935232311000,3.06,8.73,1.6480621,5
28,1935282207000,1.84,11.14,2.6014864,5
28,1935332317000,4.9,10.95,3.336985,5
28,1935332317000,4.9,10.95,3.336985,5
28,1935393017000,4.25,13.95,3.3778462,5
28,1935452557000,-1.69,13.1,-0.7627395,5
28,1935502270000,-1.8,15.89,2.2201166,5
28,1935552319000,4.1,9.47,2.5606253,5
28,1935602276000,2.6,6.24,1.2258313,5
28,1935702129000,-0.95,4.33,2.4516625,5
28,1935702129000,-0.95,4.33,2.4516625,5
28,1935752239000,-0.3,5.18,4.0588636,5
28,1935802288000,1.54,11.18,9.425281,5
28,1935852276000,-2.83,13.91,6.932757,5
28,1935902325000,-2.22,14.82,5.8976107,5
28,1935962231000,1.76,8.58,-0.23154591,5
28,1936012249000,1.65,4.63,-4.1814466,5
28,1936062298000,2.83,11.37,1.879608,5
28,1936112225000,0.0,8.39,0.61291564,5
28,1936162273000,3.49,8.31,0.9942854,5
28,1936212200000,3.41,8.16,1.1849703,5
28,1936262310000,2.68,8.73,1.5390993,5
28,1936312206000,1.33,11.41,2.2609777,5
28,1936362286000,3.45,11.35,3.336985,5
28,1936412212000,6.63,12.57,2.982856,5
28,1936462261000,5.6,11.73,-0.08172209,5
28,1936512218000,-5.48,16.97,0.88532263,5
28,1936562267000,0.57,11.35,0.53119355,5
28,1936612225000,3.99,8.12,2.4516625,5
28,1936662273000,-0.08,5.41,0.50395286,5
28,1936712231000,-1.92,4.71,1.3756552,5
28,1936762279000,-0.91,6.05,3.1054392,5
28,1936812206000,-0.42,4.99,4.440233,5
28,1936862316000,0.69,13.29,10.460427,5
28,1936912212000,-0.89,14.06,7.164303,5
28,1936962261000,-0.8,12.6,-1.56634,5
28,1937012249000,1.99,4.6,-2.5606253,5
28,1937062267000,1.18,10.19,1.8387469,5
28,1937112225000,1.65,8.58,-0.7627395,5
28,1937162304000,2.45,8.89,1.1849703,5
28,1937212200000,2.37,8.24,0.9942854,5
28,1937262279000,3.34,8.66,0.95342433,5
28,1937312206000,1.65,10.46,1.6889231,5
28,1937362286000,2.3,11.73,2.7649305,5
28,1937412243000,6.21,11.41,3.486809,5
28,1937462261000,4.9,13.14,2.2609777,5
28,1937512218000,-1.46,15.17,-0.46309182,5
28,1937562267000,-1.76,14.18,1.2258313,5
28,1937612225000,3.21,8.77,1.920469,5
28,1937662304000,1.23,6.24,0.6946377,5
28,1937712261000,-0.65,4.02,0.08172209,5
28,1937762310000,-1.27,5.05,2.5606253,5
28,1937812298000,-0.84,5.98,5.706926,5
28,1937862316000,0.65,12.53,9.112013,5
28,1937912212000,-1.18,10.61,7.3549876,5
28,1937962261000,-1.65,17.47,1.7570249,5
28,1938012279000,1.61,6.32,0.38136974,5
28,1938062420000,0.93,6.78,-2.1111538,5
28,1938112255000,2.87,8.54,1.0351465,5
28,1938162273000,1.33,8.77,0.313268,5
28,1938212200000,2.22,8.69,1.8387469,5
28,1938262310000,3.02,8.12,0.88532263,5
28,1938312206000,2.11,10.23,1.9477097,5
28,1938362347000,2.22,11.54,2.5333846,5
28,1938412243000,6.24,11.3,3.6774938,5
28,1938462261000,4.94,12.57,2.5606253,5
28,1938512249000,-2.07,14.29,-0.14982383,5
28,1938562298000,-3.02,16.47,1.9477097,5
28,1938612225000,4.33,8.89,1.9477097,5
28,1938662273000,1.23,5.9,0.6537767,5
28,1938712200000,-1.31,3.57,1.1849703,5
28,1938762310000,-0.34,4.79,3.255263,5
28,1938812237000,0.15,5.18,4.6036777,5
28,1938862316000,0.61,13.21,10.56939,5
28,1938912243000,-2.87,12.26,6.0882955,5
28,1938962261000,-1.08,17.39,1.2666923,5
28,1939012218000,3.26,7.16,-0.6537767,5
28,1939062267000,0.23,6.32,-1.9885708,5
28,1939112225000,3.02,9.47,1.0760075,5
28,1939162273000,0.8,8.85,0.88532263,5
28,1939212200000,2.15,8.35,1.3756552,5
28,1939262279000,3.15,8.28,0.95342433,5
28,1939312206000,2.18,9.7,1.6480621,5
28,1939362286000,1.95,11.96,2.3018389,5
28,1939432293000,6.13,11.6,3.336985,5
28,1939482281000,5.48,12.34,0.9942854,5
28,1939532330000,-3.98,14.94,-0.040861044,5
28,1939582256000,-1.27,12.98,0.10896278,5
28,1939632336000,3.68,8.85,2.6014864,5
28,1939632336000,3.68,8.85,2.6014864,5
28,1939693859000,1.04,6.09,1.0351465,5
28,1939743633000,-1.14,4.18,1.7297841,5
28,1939793041000,-0.46,5.18,3.214402,5
28,1939843761000,-0.08,5.75,5.284695,5
28,1939893505000,1.95,15.05,9.466142,5
28,1939943035000,-2.07,9.92,7.3958488,5
28,1939993755000,0.89,16.86,-0.88532263,5
28,1940043468000,1.65,7.01,0.84446156,5
28,1940092968000,0.11,7.46,-0.46309182,5
28,1940143719000,2.98,8.85,-0.040861044,5
28,1940193005000,1.54,8.96,0.313268,5
28,1940244579000,1.27,9.3,0.9942854,5
28,1940302380000,3.6,8.81,0.88532263,5
28,1940352276000,1.5,10.95,2.4925237,5
28,1940402264000,3.95,10.23,2.3426998,5
28,1940452282000,3.99,11.6,2.7649305,5
28,1940502270000,3.53,12.07,1.7570249,5
28,1940552288000,-1.31,15.02,0.08172209,5
28,1940602276000,-2.22,15.24,1.1441092,5
28,1940652264000,2.79,8.35,2.1111538,5
28,1940702282000,1.54,6.05,0.7627395,5
28,1940752270000,-0.84,4.14,0.6537767,5
28,1940802288000,-0.57,5.18,3.6774938,5
28,1940852276000,0.46,6.24,6.469665,5
28,1940902264000,1.18,12.57,8.812365,5
28,1940952282000,-2.64,11.35,6.66035,5
28,1941002270000,-1.95,14.33,2.6423476,5
28,1941052288000,1.99,9.66,0.3405087,5
28,1941102276000,1.42,5.71,-0.29964766,5
28,1941202129000,1.04,8.54,-0.29964766,5
28,1941202129000,1.04,8.54,-0.29964766,5
28,1941252239000,2.6,8.89,1.5390993,5
28,1941302288000,3.57,8.01,1.4573772,5
28,1941352337000,2.79,9.7,2.1792557,5
28,1941402325000,1.38,11.5,2.0294318,5
28,1941462231000,5.37,11.14,3.336985,5
28,1941512249000,5.41,12.64,2.8738933,5
28,1941562267000,-0.76,13.67,-0.10896278,5
28,1941612255000,-3.79,15.51,1.334794,5
28,1941662273000,3.87,9.77,1.334794,5
28,1941712200000,2.83,6.7,2.5606253,5
28,1941762279000,-0.34,4.4,-0.23154591,5
28,1941812206000,-0.91,5.41,2.2201166,5
28,1941862316000,-0.84,5.67,4.0180025,5
28,1941912212000,0.08,6.09,7.164303,5
28,1941962261000,3.6,15.79,8.962189,5
28,1942012249000,-4.44,16.66,4.630918,5
28,1942062298000,3.64,11.35,-2.5606253,5
28,1942112225000,0.38,1.42,-3.636633,5
28,1942162304000,1.38,11.45,3.173541,5
28,1942212200000,2.6,8.58,-1.4573772,5
28,1942262279000,1.65,8.73,3.445948,5
28,1942312206000,2.68,8.35,1.4573772,5
28,1942362286000,1.99,9.53,1.6889231,5
28,1942412212000,0.8,10.42,2.4516625,5
28,1942462292000,6.36,11.07,2.9147544,5
28,1942512249000,4.25,12.87,2.152015,5
28,1942562267000,-1.99,15.94,-1.6889231,5
28,1942612225000,-4.18,16.55,1.1849703,5
28,1942662273000,2.6,9.34,1.1441092,5
28,1942712200000,0.76,6.59,1.7978859,5
28,1942762279000,-1.14,4.14,0.23154591,5
28,1942812206000,-1.53,4.63,1.4165162,5
28,1942862316000,-2.68,4.82,4.4810944,5
28,1942912212000,-4.4,8.73,7.7363577,5
28,1942962261000,-4.63,14.86,4.903325,5
28,1943012249000,-5.6,11.3,6.4015636,5
28,1943062267000,1.99,15.36,-2.9147544,5
28,1943112225000,3.6,2.83,-4.099725,5
28,1943162273000,0.0,12.95,0.6946377,5
28,1943212200000,0.95,9.28,-0.5720546,5
28,1943262310000,3.83,8.35,-0.10896278,5
28,1943312237000,4.86,9.19,1.7297841,5
28,1943362286000,4.1,7.82,2.9147544,5
28,1943412212000,2.96,8.81,2.7240696,5
28,1943462261000,3.91,10.31,2.3426998,5
28,1943512218000,2.18,12.03,3.1054392,5
28,1943562298000,4.52,11.41,3.2961242,5
28,1943612225000,5.83,12.53,0.08172209,5
28,1943662273000,0.61,14.6,2.0294318,5
28,1943712231000,5.33,12.22,0.27240697,5
28,1943762310000,-0.91,9.77,0.84446156,5
28,1943812206000,0.11,7.12,0.7627395,5
28,1943862316000,0.99,5.09,-0.0,5
28,1943912243000,-0.76,5.28,0.42223078,5
28,1943962261000,-3.26,6.93,5.5571017,5
28,1944012249000,-5.9,13.57,2.8738933,5
28,1944062298000,-5.05,11.37,5.5162406,5
28,1944112225000,-3.53,16.13,2.4925237,5
28,1944162304000,4.37,3.6,0.88532263,5
28,1944212231000,5.56,12.15,-2.2201166,5
28,1944262310000,-4.75,7.44,2.070293,5
28,1944312237000,1.27,10.19,0.53119355,5
28,1944362286000,3.79,7.7,-0.08172209,5
28,1944412212000,2.18,9.62,1.920469,5
28,1944462261000,3.26,9.15,2.5333846,5
28,1944512218000,1.31,11.11,2.1111538,5
28,1944562298000,2.41,10.95,2.4516625,5
28,1944612225000,3.76,12.15,3.445948,5
28,1944662273000,4.29,12.45,2.7921712,5
28,1944712200000,1.04,12.22,0.50395286,5
28,1944762279000,0.99,13.14,1.4982382,5
28,1944812206000,3.45,9.85,2.2201166,5
28,1944862316000,0.89,6.66,1.4982382,5
28,1944912212000,-1.46,6.78,1.8387469,5
28,1944962261000,-0.04,6.55,2.1792557,5
28,1945012218000,-1.04,4.37,1.9477097,5
28,1945062267000,-0.3,7.12,6.8237944,5
28,1945112225000,2.64,13.48,9.275456,5
28,1945162273000,0.08,12.53,8.158588,5
28,1945212261000,0.57,10.46,-3.173541,5
28,1945262310000,-0.42,3.49,-3.718355,5
28,1945312206000,3.3,11.37,2.7921712,5
28,1945362286000,1.08,8.35,-0.9942854,5
28,1945412212000,2.96,8.81,2.7921712,5
28,1945462261000,2.22,8.81,1.2666923,5
28,1945512218000,2.45,8.81,1.1849703,5
28,1945562267000,1.38,10.42,2.1792557,5
28,1945612255000,2.34,10.27,2.0294318,5
28,1945662273000,4.79,11.35,3.1054392,5
28,1945712200000,4.67,11.73,1.2666923,5
28,1945762310000,-4.79,16.59,0.6537767,5
28,1945812206000,-1.73,15.05,1.1849703,5
28,1945862316000,3.17,9.15,2.1792557,5
28,1945912212000,0.61,6.44,1.3756552,5
28,1945962292000,0.27,3.64,0.10896278,5
28,1946012249000,-0.69,4.56,2.4108016,5
28,1946062328000,-1.53,5.33,5.434519,5
28,1946112255000,-2.26,10.19,9.425281,5
28,1946162273000,-2.41,14.63,8.662541,5
28,1946222301000,-2.3,16.44,2.6832085,5
28,1946272320000,4.6,3.79,-3.486809,5
28,1946322277000,2.56,12.34,1.7570249,5
28,1946372234000,-1.88,7.16,1.1441092,5
28,1946422283000,2.96,9.28,0.50395286,5
28,1946472240000,2.18,8.01,1.4165162,5
28,1946522259000,2.22,8.39,1.879608,5
28,1946572247000,2.68,9.15,2.3018389,5
28,1946622265000,1.57,11.07,2.3699405,5
28,1946732342000,3.6,12.45,3.336985,5
28,1946732342000,3.6,12.45,3.336985,5
28,1946782268000,1.27,11.41,-0.53119355,5
28,1946832226000,-3.87,17.54,1.9885708,5
28,1946882244000,2.53,11.11,0.5720546,5
28,1946932323000,2.91,7.16,3.1463003,5
28,1946932323000,2.91,7.16,3.1463003,5
28,1946993084000,0.46,4.75,-0.42223078,5
28,1947043804000,-1.31,4.21,0.88532263,5
28,1947102367000,-1.46,5.41,3.718355,5
28,1947152264000,1.04,9.28,8.812365,5
28,1947202282000,0.46,16.4,8.049625,5
28,1947252270000,-2.14,15.47,6.2108784,5
28,1947302288000,1.31,8.96,-1.7570249,5
28,1947352276000,1.38,2.6,-3.1463003,5
28,1947402264000,3.76,11.5,1.1849703,5
28,1947452282000,-0.34,9.0,0.50395286,5
28,1947502270000,2.72,8.5,2.0294318,5
28,1947552288000,3.49,8.12,0.7218784,5
28,1947602276000,2.37,9.08,1.7978859,5
28,1947652264000,1.88,10.61,2.3018389,5
28,1947702312000,5.01,10.99,2.982856,5
28,1947752270000,4.18,12.37,3.1054392,5
28,1947802288000,4.25,12.03,-0.84446156,5
28,1947852276000,-6.43,18.5,0.7627395,5
28,1947902264000,1.76,12.76,0.7627395,5
28,1947952282000,3.41,7.46,2.5606253,5
28,1948002270000,0.57,4.06,-0.3405087,5
28,1948052288000,-0.72,2.72,-0.19068487,5
28,1948102276000,-1.14,4.9,4.1814466,5
28,1948152264000,-0.04,7.78,8.308413,5
28,1948202282000,-0.38,17.01,8.662541,5
28,1948252361000,-3.26,11.54,7.9679036,5
28,1948302319000,1.92,11.69,-4.399372,5
28,1948352276000,3.17,3.11,-3.0237172,5
28,1948402294000,-0.8,10.84,3.0237172,5
28,1948452282000,2.11,9.08,-1.6480621,5
28,1948502300000,3.17,8.39,2.7240696,5
28,1948552288000,2.72,7.97,1.334794,5
28,1948602306000,3.26,8.58,1.7570249,5
28,1948652264000,0.69,10.73,2.4108016,5
28,1948702312000,5.52,10.46,2.7240696,5
28,1948752270000,4.82,12.34,2.9147544,5
28,1948802319000,4.71,12.68,-0.040861044,5
28,1948852276000,-6.28,17.08,1.7570249,5
28,1948902264000,2.76,13.38,0.5720546,5
28,1948952282000,4.79,8.31,3.2961242,5
28,1949002300000,1.08,4.86,0.38136974,5
28,1949052288000,-0.38,2.34,-1.2666923,5
28,1949102276000,-0.89,5.18,2.152015,5
28,1949152264000,-1.57,5.98,5.284695,5
28,1949202282000,1.23,15.28,9.193735,5
28,1949252270000,-1.53,12.26,8.390134,5
28,1949302319000,2.18,14.44,-1.4573772,5
28,1949352276000,0.99,3.83,-1.2666923,5
28,1949402264000,-0.34,9.89,2.2201166,5
28,1949452282000,2.45,8.62,-2.2201166,5
28,1949502270000,2.64,9.3,2.4108016,5
28,1949552288000,1.57,8.24,1.3756552,5
28,1949602306000,3.95,8.16,1.2666923,5
28,1949652264000,1.57,10.19,2.5333846,5
28,1949702282000,4.02,10.19,2.7649305,5
28,1949752392000,5.37,12.15,3.1463003,5
28,1949802288000,5.71,13.33,0.7627395,5
28,1949852276000,-6.09,15.66,0.3405087,5
28,1949902264000,0.69,14.9,0.08172209,5
28,1949952282000,2.53,9.43,2.3018389,5
28,1950002300000,2.15,6.21,1.6480621,5
28,1950052288000,0.65,2.96,-1.1441092,5
28,1950102306000,-0.65,4.29,1.3756552,5
28,1950152264000,-1.76,5.75,5.284695,5
28,1950202312000,-0.11,10.12,8.730643,5
28,1950252300000,-1.04,14.37,7.7363577,5
28,1950302380000,-0.8,14.82,3.8273177,5
28,1950352276000,1.8,7.78,-0.14982383,5
28,1950402294000,-0.08,4.75,-4.099725,5
28,1950452282000,2.87,11.41,0.313268,5
28,1950502270000,2.03,7.86,1.0760075,5
28,1950552288000,3.02,8.35,1.2666923,5
28,1950602276000,3.02,8.16,1.3075534,5
28,1950652264000,2.03,9.11,1.607201,5
28,1950702282000,3.99,9.92,2.5333846,5
28,1950752514000,6.21,11.5,2.8738933,5
28,1950802288000,3.79,13.44,3.336985,5
28,1950852306000,0.31,13.02,-0.19068487,5
28,1950902264000,-2.53,18.16,1.5390993,5
28,1950952282000,2.56,9.7,2.0294318,5
28,1951002300000,2.87,6.47,1.3075534,5
28,1951052288000,0.0,2.98,-0.7627395,5
28,1951102276000,-1.38,4.18,1.4573772,5
28,1951152294000,-1.18,6.17,4.099725,5
28,1951202282000,0.19,7.67,7.8180795,5
28,1951252331000,0.27,17.35,8.812365,5
28,1951302288000,-2.6,10.88,5.597963,5
28,1951352276000,3.76,13.82,-4.3312707,5
28,1951402264000,-0.38,-0.91,-5.325556,5
28,1951452312000,2.76,14.1,0.53119355,5
28,1951502270000,1.76,7.7,1.0351465,5
28,1951552319000,2.96,8.66,1.5390993,5
28,1951602276000,3.72,7.82,1.6889231,5
28,1951652294000,2.64,9.77,2.6014864,5
28,1951702282000,3.95,9.7,2.7240696,5
28,1951752239000,7.4,11.35,2.7240696,5
28,1951802288000,4.29,14.02,1.6480621,5
28,1951852276000,-3.6,13.53,-0.19068487,5
28,1951902264000,-1.69,15.55,1.7570249,5
28,1951952343000,3.64,9.92,2.2201166,5
28,1952012249000,1.12,5.52,0.5720546,5
28,1952062206000,-0.3,2.91,-0.5720546,5
28,1952112316000,-1.12,4.25,2.2201166,5
28,1952172344000,-0.19,6.59,7.8589406,5
28,1952222637000,-0.65,16.17,8.921328,5
28,1952272350000,-3.26,19.38,3.1463003,5
28,1952322247000,3.95,6.78,-2.1383946,5
28,1952372265000,0.53,2.41,-0.19068487,5
28,1952422253000,3.11,12.68,3.2961242,5
28,1952472271000,2.45,6.7,-1.4573772,5
28,1952522228000,1.18,8.73,1.0351465,5
28,1952572277000,0.95,8.58,-0.42223078,5
28,1952622204000,2.56,10.53,2.5606253,5
28,1952672283000,3.64,10.12,2.3426998,5
28,1952722240000,5.09,10.92,2.1111538,5
28,1952772259000,3.11,13.21,2.8738933,5
28,1952822247000,1.92,11.88,-1.334794,5
28,1952872265000,-3.57,19.19,0.84446156,5
28,1952922253000,2.45,11.14,1.5390993,5
28,1952972301000,3.45,7.44,2.3018389,5
28,1953022228000,0.42,3.64,-0.14982383,5
28,1953072277000,1.08,2.56,-0.0,5
28,1953122295000,-0.46,4.6,3.336985,5
28,1953172283000,-0.3,7.7,8.008764,5
28,1953222271000,-1.33,18.24,9.112013,5
28,1953272289000,-3.72,5.98,7.6273947,5
28,1953322216000,0.34,17.05,0.3405087,5
28,1953372265000,1.76,2.41,0.95342433,5
28,1953422253000,5.13,12.34,0.46309182,5
28,1953472271000,-1.5,6.7,1.920469,5
28,1953522198000,1.27,8.85,0.040861044,5
28,1953572277000,1.04,8.24,0.88532263,5
28,1953622204000,1.57,8.81,0.84446156,5
28,1953672283000,2.45,9.96,2.3018389,5
28,1953722210000,2.22,10.8,1.920469,5
28,1953772289000,6.32,12.15,3.5957718,5
28,1953822216000,4.9,13.67,4.372132,5
28,1953872265000,1.04,12.34,-0.8036005,5
28,1953922253000,-3.02,17.47,2.1111538,5
28,1953972301000,1.46,10.19,1.5390993,5
28,1954022228000,3.45,6.32,1.7570249,5
28,1954072277000,0.27,3.72,-0.38136974,5
28,1954122204000,-0.38,3.3,0.7218784,5
28,1954172283000,-1.18,4.82,4.440233,5
28,1954222240000,0.19,9.47,8.471856,5
28,1954272289000,-0.89,15.36,8.539958,5
28,1954322247000,-1.95,14.79,6.3607025,5
28,1954372265000,1.99,9.62,-0.14982383,5
28,1954422253000,1.38,7.27,-1.607201,5
28,1954472271000,2.22,9.15,2.3426998,5
28,1954522228000,1.42,8.28,0.46309182,5
28,1954572277000,2.34,8.2,0.9942854,5
28,1954622234000,1.08,8.39,2.0294318,5
28,1954672283000,2.6,8.96,2.1792557,5
28,1954722240000,1.65,11.18,2.3018389,5
28,1954772289000,5.13,11.14,2.7240696,5
28,1954822247000,4.71,14.02,3.718355,5
28,1954872295000,3.57,11.88,-0.19068487,5
28,1954922253000,-4.79,17.69,2.1111538,5
28,1954972271000,1.8,11.22,0.23154591,5
28,1955022228000,4.29,7.25,2.6014864,5
28,1955072277000,-0.27,4.56,0.8036005,5
28,1955122204000,-0.89,3.64,-0.14982383,5
28,1955172283000,-0.99,5.05,3.486809,5
28,1955222240000,-1.04,5.94,6.5922484,5
28,1955272289000,1.46,16.17,9.084772,5
28,1955322216000,-2.45,13.44,8.580819,5
28,1955372265000,1.14,9.11,-3.0237172,5
28,1955422253000,2.79,5.13,-3.568531,5
28,1955472607000,0.5,8.73,1.4573772,5
28,1955522198000,1.08,10.19,0.040861044,5
28,1955572308000,3.02,8.89,2.7649305,5
28,1955622234000,2.72,7.5,1.4165162,5
28,1955672283000,3.06,8.05,1.7978859,5
28,1955722210000,0.99,9.92,1.8387469,5
28,1955772259000,3.38,10.95,2.152015,5
28,1955822247000,5.24,12.26,3.214402,5
28,1955872295000,4.1,13.06,2.6014864,5
28,1955922253000,-1.04,13.59,-0.38136974,5
28,1955972271000,-3.26,16.04,2.1792557,5
28,1956022228000,3.21,10.12,1.56634,5
28,1956072277000,2.98,6.13,1.879608,5
28,1956122234000,-0.53,3.79,-0.38136974,5
28,1956172314000,-1.12,4.06,1.2666923,5
28,1956222210000,-0.91,5.75,5.012288,5
28,1956272259000,-0.72,9.19,7.9270425,5
28,1956322216000,-0.72,15.28,8.730643,5
28,1956372265000,-2.72,16.7,5.284695,5
28,1956422253000,2.68,8.5,-0.61291564,5
28,1956472271000,0.95,4.06,-3.0237172,5
28,1956522259000,1.99,10.57,3.214402,5
28,1956572308000,1.12,7.86,-1.2666923,5
28,1956622234000,2.3,9.08,2.6832085,5
28,1956672283000,2.3,8.24,1.5390993,5
28,1956722210000,3.41,8.92,1.920469,5
28,1956772259000,1.88,10.23,1.920469,5
28,1956822216000,5.98,10.99,2.9147544,5
28,1956872295000,4.4,13.33,3.1054392,5
28,1956922222000,2.22,12.87,-0.29964766,5
28,1956972271000,-6.05,18.12,1.2666923,5
28,1957022228000,2.3,10.61,0.95342433,5
28,1957072277000,4.56,7.55,3.1054392,5
28,1957122265000,-0.08,4.14,-0.040861044,5
28,1957172314000,-0.65,3.06,0.3405087,5
28,1957222332000,-0.42,5.18,3.6774938,5
28,1957272289000,-0.72,7.5,7.246025,5
28,1957322247000,-0.27,17.88,8.812365,5
28,1957372326000,-3.36,12.45,7.8180795,5
28,1957432262000,1.8,10.76,-3.336985,5
28,1957482220000,2.26,3.11,-3.7864566,5
28,1957532268000,2.49,11.14,2.5606253,5
28,1957582226000,0.69,8.58,-0.8036005,5
28,1957632305000,2.6,8.85,2.3018389,5
28,1957682232000,2.83,7.86,0.50395286,5
28,1957732311000,3.02,8.89,1.6889231,5
28,1957732311000,3.02,8.89,1.6889231,5
28,1957792370000,1.88,10.65,2.152015,5
28,1957842449000,5.9,11.03,3.0645783,5
28,1957892284000,4.29,13.29,3.568531,5
28,1957943005000,2.79,12.41,-0.84446156,5
28,1958002300000,-3.45,18.01,1.9885708,5
28,1958052288000,2.87,10.0,1.6889231,5
28,1958102306000,2.72,5.41,0.61291564,5
28,1958152264000,-0.38,3.64,-0.27240697,5
28,1958202282000,-0.57,3.99,2.1111538,5
28,1958252270000,-0.8,5.71,4.372132,5
28,1958302288000,0.53,9.7,10.119919,5
28,1958352276000,-1.65,14.86,7.668256,5
28,1958402294000,-2.26,14.75,1.2258313,5
28,1958452282000,1.69,10.95,0.38136974,5
28,1958502300000,2.41,1.95,-4.099725,5
28,1958552288000,1.54,11.99,2.2201166,5
28,1958602306000,0.8,8.16,-0.53119355,5
28,1958652264000,3.72,8.39,1.3075534,5
28,1958702312000,3.17,7.97,0.88532263,5
28,1958752270000,1.69,10.08,1.920469,5
28,1958802319000,3.3,11.18,2.3426998,5
28,1958852276000,4.75,11.11,2.9556155,5
28,1958902294000,6.63,13.44,1.9885708,5
28,1958952282000,-1.12,15.09,-0.3405087,5
28,1959002575000,-2.6,16.74,1.4573772,5
28,1959052288000,2.79,9.96,1.5390993,5
28,1959102306000,2.53,6.21,0.84446156,5
28,1959152264000,0.08,2.83,-0.27240697,5
28,1959202282000,-0.23,3.64,1.4982382,5
28,1959252270000,-0.15,5.52,4.8216033,5
28,1959302319000,-0.42,9.04,8.853226,5
28,1959352276000,0.31,15.85,8.894087,5
28,1959402264000,-2.3,14.52,5.829509,5
28,1959452282000,0.34,10.73,-1.6889231,5
28,1959502270000,2.68,3.17,-4.0588636,5
28,1959552288000,1.8,10.95,3.9090397,5
28,1959602276000,0.69,7.25,-0.8036005,5
28,1959652264000,2.98,8.69,1.56634,5
28,1959702282000,0.5,8.85,0.6946377,5
28,1959752270000,3.26,8.28,1.334794,5
28,1959802319000,2.15,10.76,1.7297841,5
28,1959852276000,3.6,11.6,2.6423476,5
28,1959902264000,6.4,12.53,3.5957718,5
28,1959952282000,3.91,13.4,0.19068487,5
28,1960002300000,-4.56,17.24,0.92618364,5
28,1960052288000,-1.23,12.6,0.3405087,5
28,1960102306000,3.6,8.24,1.8387469,5
28,1960152264000,2.72,6.24,1.879608,5
28,1960202312000,-0.38,3.95,-0.7627395,5
28,1960252300000,-0.99,4.94,1.879608,5
28,1960302257000,-0.99,5.63,5.053149,5
28,1960352245000,-0.23,10.15,10.079058,5
28,1960402264000,-0.27,14.37,7.6954966,5
28,1960452312000,-2.79,16.02,2.9556155,5
28,1960502300000,1.73,7.86,0.313268,5
28,1960552288000,0.8,3.76,-4.0588636,5
28,1960602306000,3.17,10.5,1.607201,5
28,1960652264000,0.53,9.23,0.313268,5
28,1960702282000,2.64,8.35,1.56634,5
28,1960752270000,3.91,7.97,0.92618364,5
28,1960802288000,2.03,9.15,1.9477097,5
28,1960852276000,1.76,11.03,2.1111538,5
28,1960902294000,5.71,10.57,2.9147544,5
28,1960952312000,5.24,13.48,3.445948,5
28,1961002300000,3.26,12.34,-1.1849703,5
28,1961052319000,-5.67,17.67,1.920469,5
28,1961102306000,3.64,11.56,0.23154591,5
28,1961152294000,3.76,8.16,2.7240696,5
28,1961202343000,-0.3,4.67,0.6537767,5
28,1961252331000,-0.15,2.72,0.19068487,5
28,1961302288000,0.0,4.4,2.1111538,5
28,1961352306000,-0.99,5.9,6.510526,5
28,1961402264000,1.61,16.78,9.234595,5
28,1961452312000,-1.73,14.25,8.076866,5
28,1961502300000,1.14,15.64,-1.920469,5
28,1961552288000,1.14,1.57,-2.3699405,5
28,1961602276000,0.61,11.37,1.4573772,5
28,1961652264000,1.61,9.7,-0.42223078,5
28,1961702282000,1.92,8.28,1.879608,5
28,1961752270000,2.37,8.5,1.6480621,5
28,1961802319000,3.45,8.47,1.0760075,5
28,1961852276000,0.84,9.96,1.8387469,5
28,1961902264000,0.08,11.5,1.2258313,5
28,1961952282000,5.41,11.11,2.8738933,5
28,1962002300000,5.05,12.76,2.9556155,5
28,1962052288000,1.5,11.69,-0.27240697,5
28,1962102306000,-4.18,15.98,2.7921712,5
28,1962152233000,1.04,10.5,0.8036005,5
28,1962202282000,4.18,8.66,2.2201166,5
28,1962252270000,1.42,7.16,1.7570249,5
28,1962302471000,0.5,4.52,1.4982382,5
28,1962352276000,0.08,4.25,2.5333846,5
28,1962402264000,0.65,5.22,4.944186,5
28,1962452282000,-0.23,14.75,8.853226,5
28,1962502300000,-2.72,11.41,7.082581,5
28,1962552288000,-0.53,18.2,0.53119355,5
28,1962602306000,0.69,3.17,-2.9556155,5
28,1962652264000,3.76,12.26,0.8036005,5
28,1962702282000,-0.69,6.66,1.9477097,5
28,1962752300000,3.15,8.12,-0.0,5
28,1962802319000,1.73,8.81,0.6946377,5
28,1962852276000,1.92,9.7,1.879608,5
28,1962902325000,2.3,10.69,2.8738933,5
28,1962962231000,4.1,10.76,2.5333846,5
28,1963012218000,2.91,12.41,2.3426998,5
28,1963062267000,4.9,11.54,0.27240697,5
28,1963112225000,-3.72,16.13,0.19068487,5
28,1963162273000,2.83,13.44,2.6014864,5
28,1963212231000,1.08,9.66,1.4165162,5
28,1963262554000,0.84,5.09,1.6480621,5
28,1963312145000,0.61,3.45,0.53119355,5
28,1963362225000,-0.34,3.41,2.4925237,5
28,1963412426000,-1.46,5.56,7.6273947,5
28,1963462231000,-0.23,16.89,8.308413,5
28,1963512310000,-2.26,9.7,9.084772,5
28,1963562206000,1.69,12.3,-3.6774938,5
28,1963612286000,3.21,6.28,-0.08172209,5
28,1963662243000,-1.12,10.23,2.152015,5
28,1963712322000,2.15,8.69,-0.38136974,5
28,1963762218000,2.91,7.78,1.879608,5
28,1963812267000,1.54,8.35,1.4573772,5
28,1963862225000,2.41,8.16,1.1168685,5
28,1963912518000,1.57,10.34,2.4925237,5
28,1963962231000,4.86,10.95,2.9556155,5
28,1964012249000,5.18,12.26,3.3778462,5
28,1964062206000,4.33,12.45,1.4573772,5
28,1964112286000,-4.75,16.32,0.08172209,5
28,1964162853000,-0.53,14.98,0.7627395,5
28,1964212200000,3.87,8.24,3.214402,5
28,1964262279000,1.65,5.41,0.9942854,5
28,1964312206000,-0.11,2.56,-1.0760075,5
28,1964362286000,-0.42,4.33,2.0294318,5
28,1964412243000,-1.42,5.22,4.9850473,5
28,1964462261000,-0.23,10.92,10.310603,5
28,1964512249000,-4.1,15.94,8.008764,5
28,1964562267000,-1.46,17.39,2.5333846,5
28,1964612225000,1.57,6.24,-0.9125633,5
28,1964662334000,2.11,4.94,-3.0645783,5
28,1964712200000,2.76,9.7,2.7240696,5
28,1964762279000,0.31,8.96,-1.525479,5
28,1964812237000,1.18,9.51,2.4925237,5
28,1964862316000,3.11,7.93,1.1441092,5
28,1964912243000,3.87,8.73,1.7978859,5
28,1964962261000,1.61,10.42,1.8387469,5
28,1965012218000,6.59,11.07,3.1463003,5
28,1965062298000,4.4,13.4,4.1814466,5
28,1965112286000,3.72,10.88,-0.46309182,5
28,1965162304000,-5.79,17.31,1.879608,5
28,1965212231000,2.64,12.68,1.4573772,5
28,1965262249000,3.41,7.55,3.255263,5
28,1965312206000,0.04,4.67,0.10896278,5
28,1965362286000,-0.38,2.83,-0.42223078,5
28,1965412212000,-1.23,5.01,2.8738933,5
28,1965462261000,-1.33,7.16,6.5922484,5
28,1965512218000,0.08,16.51,9.425281,5
28,1965562298000,-3.57,12.22,7.7363577,5
28,1965612225000,1.92,12.72,-5.284695,5
28,1965662304000,2.72,1.65,-3.336985,5
28,1965712231000,0.84,11.92,3.636633,5
28,1965762279000,0.72,9.23,-1.6480621,5
28,1965812267000,3.21,7.93,2.4925237,5
28,1965862316000,3.26,8.01,0.84446156,5
28,1965912212000,3.3,8.5,2.070293,5
28,1965962261000,1.46,11.03,2.5606253,5
28,1966012249000,5.09,10.88,3.173541,5
28,1966062298000,5.52,13.25,2.8738933,5
28,1966112225000,3.11,13.99,-0.7627395,5
28,1966162304000,-6.4,18.7,1.3075534,5
28,1966212200000,2.6,10.76,0.5720546,5
28,1966262341000,4.52,6.89,2.8330324,5
28,1966312206000,0.11,3.38,-0.08172209,5
28,1966362286000,-0.91,2.72,-0.10896278,5
28,1966412243000,-0.84,5.01,3.718355,5
28,1966462292000,-0.53,7.59,8.580819,5
28,1966512218000,-0.19,17.86,8.049625,5
28,1966562267000,-3.64,12.87,8.049625,5
28,1966612225000,1.95,12.41,-3.5957718,5
28,1966662304000,3.99,2.68,-4.862464,5
28,1966712231000,0.76,10.84,2.8330324,5
28,1966762249000,-0.42,9.51,-0.6537767,5
28,1966812206000,3.76,8.2,1.7297841,5
28,1966862316000,3.57,7.86,1.3075534,5
28,1966912212000,2.79,8.35,2.0294318,5
28,1966962261000,0.69,10.65,2.3018389,5
28,1967012249000,6.05,10.53,3.0645783,5
28,1967062267000,5.6,12.64,3.3778462,5
28,1967112255000,3.87,12.49,0.50395286,5
28,1967162304000,-6.66,17.5,1.2258313,5
28,1967212200000,0.84,13.21,-0.0,5
28,1967262279000,5.05,8.08,3.9090397,5
28,1967312237000,1.31,5.13,1.2258313,5
28,1967362286000,-0.72,2.3,-0.53119355,5
28,1967412243000,-0.69,3.83,2.2201166,5
28,1967462322000,-0.69,5.6,5.8567495,5
28,1967512218000,1.14,15.98,9.507003,5
28,1967562267000,-3.72,14.79,7.8589406,5
28,1967612225000,0.69,14.44,-1.525479,5
28,1967662304000,2.11,1.99,-2.6014864,5
28,1967712200000,1.95,11.54,2.152015,5
28,1967762279000,-0.15,9.23,-0.7627395,5
28,1967812237000,2.3,8.96,1.7297841,5
28,1967862316000,2.98,8.16,1.1168685,5
28,1967912243000,4.1,7.86,1.5390993,5
28,1967962261000,2.03,9.58,2.3426998,5
28,1968012249000,3.02,11.03,2.070293,5
28,1968062298000,5.86,11.18,3.2961242,5
28,1968112225000,3.83,13.21,3.214402,5
28,1968162273000,1.99,12.03,-0.8036005,5
28,1968212200000,-5.86,16.78,0.84446156,5
28,1968262279000,2.96,10.57,1.56634,5
28,1968312206000,3.49,7.31,2.4516625,5
28,1968362316000,-0.04,4.06,0.53119355,5
28,1968412243000,-0.04,3.21,1.1168685,5
28,1968462322000,-0.46,5.75,4.140586,5
28,1968522198000,-0.46,10.23,9.234595,5
28,1968572247000,0.23,13.99,7.3958488,5
28,1968622326000,-0.11,16.74,-1.1168685,5
28,1968672253000,1.23,6.97,0.8036005,5
28,1968722271000,-0.08,8.16,-1.4982382,5
28,1968782360000,2.15,9.08,-1.525479,5
28,1968832317000,3.15,8.85,1.334794,5
28,1968882336000,2.41,8.16,1.2258313,5
28,1968932262000,3.72,8.28,1.7570249,5
28,1968982281000,1.23,10.57,2.3699405,5
28,1969032268000,4.02,10.34,2.8330324,5
28,1969082287000,6.78,11.07,2.8330324,5
28,1969132244000,4.14,12.98,0.6946377,5
28,1969182293000,-5.09,15.64,0.95342433,5
28,1969232220000,-0.99,14.63,1.6889231,5
28,1969282299000,3.99,8.69,2.070293,5
28,1969332226000,1.14,6.02,1.7978859,5
28,1969382275000,-0.42,3.49,0.08172209,5
28,1969432201000,-0.65,3.79,1.607201,5
28,1969482281000,0.11,6.21,4.9850473,5
28,1969532207000,1.31,10.84,8.921328,5
28,1969582317000,-0.08,15.94,8.390134,5
28,1969632214000,-0.34,16.7,0.95342433,5
28,1969682262000,1.5,6.17,0.95342433,5
28,1969732281000,1.8,7.25,-1.7297841,5
28,1969782299000,2.18,9.51,0.7218784,5
28,1969832256000,1.27,8.54,1.0760075,5
28,1969882275000,2.79,8.2,1.2258313,5
28,1969932232000,2.37,8.24,0.92618364,5
28,1969982281000,1.84,9.58,1.7570249,5
28,1970032238000,2.87,10.84,2.070293,5
28,1970082317000,5.43,10.8,2.9556155,5
28,1970132244000,4.44,13.91,2.8330324,5
28,1970182262000,1.54,13.99,-1.4165162,5
28,1970232250000,-5.6,17.92,1.0351465,5
28,1970282268000,3.49,10.15,0.88532263,5
28,1970332256000,3.49,6.21,2.0294318,5
28,1970382275000,-0.23,3.26,-0.61291564,5
28,1970432262000,-1.5,3.91,1.3075534,5
28,1970482281000,-1.14,5.98,4.3312707,5
28,1970532207000,0.31,7.5,8.471856,5
28,1970582287000,1.95,17.62,8.539958,5
28,1970632244000,-3.95,14.98,5.8976107,5
28,1970682262000,0.93,9.53,-1.3075534,5
28,1970732250000,3.95,4.37,-3.486809,5
28,1970782299000,2.3,9.85,3.8273177,5
28,1970832256000,0.76,7.5,-1.1441092,5
28,1970882305000,2.79,9.11,1.4982382,5
28,1970932201000,1.57,8.77,1.0760075,5
28,1970982281000,2.83,9.11,1.4982382,5
28,1971032238000,1.92,11.11,2.2609777,5
28,1971082317000,5.94,11.07,3.445948,5
28,1971132244000,4.86,13.1,3.6774938,5
28,1971182262000,3.21,11.6,-0.5720546,5
28,1971232220000,-4.18,18.24,1.1849703,5
28,1971282268000,3.17,11.73,1.1168685,5
28,1971332226000,2.79,7.5,2.4925237,5
28,1971382275000,0.19,4.21,0.46309182,5
28,1971432201000,-0.08,2.68,0.08172209,5
28,1971482281000,-0.69,4.82,3.214402,5
28,1971532238000,-1.04,7.55,7.8861814,5
28,1971582317000,0.34,17.86,8.349273,5
28,1971632244000,-2.18,11.5,8.008764,5
28,1971682262000,2.11,10.19,-4.0180025,5
28,1971732281000,3.41,2.22,-4.5219555,5
28,1971782299000,1.18,11.84,3.636633,5
28,1971832287000,0.08,8.5,-0.50395286,5
28,1971882275000,3.41,7.97,1.9477097,5
28,1971932232000,2.53,8.31,1.6480621,5
28,1971982281000,1.92,9.04,1.879608,5
28,1972032207000,2.49,10.99,2.8330324,5
28,1972082287000,6.97,11.6,4.3312707,5
28,1972132214000,3.53,13.38,3.568531,5
28,1972182262000,1.92,11.11,-1.1168685,5
28,1972232220000,-3.41,18.28,2.070293,5
28,1972282299000,4.52,10.95,1.9477097,5
28,1972332256000,2.49,6.89,1.8387469,5
28,1972382275000,-0.53,3.99,0.27240697,5
28,1972432232000,0.27,3.26,0.7627395,5
28,1972482281000,-0.61,4.75,2.5333846,5
28,1972532207000,-1.57,9.23,6.6331096,5
28,1972582317000,0.5,16.02,8.921328,5
28,1972632214000,-0.3,9.3,9.956474,5
28,1972682262000,2.56,8.28,-4.7535014,5
28,1972732220000,1.33,4.52,-3.9499009,5
28,1972782299000,0.76,11.03,3.8681788,5
28,1972832256000,1.61,8.16,-0.5720546,5
28,1972882275000,2.41,8.43,1.6480621,5
28,1972932232000,1.38,8.35,1.1441092,5
28,1972982281000,2.22,9.15,1.6889231,5
28,1973032238000,1.42,11.14,2.2609777,5
28,1973082287000,5.9,11.35,3.1054392,5
28,1973132275000,3.87,12.22,3.8681788,5
28,1973182262000,2.37,12.03,-0.42223078,5
28,1973232250000,-5.24,18.92,2.3018389,5
28,1973282268000,1.92,10.76,0.8036005,5
28,1973332256000,3.79,6.7,3.214402,5
28,1973382275000,0.15,4.21,-0.50395286,5
28,1973432201000,-0.42,3.3,0.6946377,5
28,1973482281000,-0.84,5.83,4.440233,5
28,1973532207000,-0.61,7.63,6.932757,5
28,1973582287000,0.27,16.32,9.234595,5
28,1973632244000,-2.56,12.03,8.19945,5
28,1973682262000,3.45,11.22,-5.09401,5
28,1973732220000,1.08,3.15,-4.140586,5
28,1973782299000,1.46,10.73,1.7978859,5
28,1973832348000,0.27,9.81,-1.0760075,5
28,1973882275000,2.56,9.08,1.4165162,5
28,1973932201000,4.21,7.67,1.7297841,5
28,1973982342000,3.99,8.2,2.8330324,5
28,1973982342000,3.99,8.2,2.8330324,5
28,1974043835000,1.88,9.89,1.9885708,5
28,1974093578000,5.01,10.5,2.5333846,5
28,1974142986000,4.25,12.91,2.982856,5
28,1974193768000,3.91,13.67,0.38136974,5
28,1974243053000,-5.28,15.02,0.6946377,5
28,1974293774000,0.23,13.33,1.2666923,5
28,1974343426000,4.71,8.05,3.0237172,5
28,1974392162000,1.42,5.56,1.7978859,5
28,1974442516000,-1.23,3.57,0.313268,5
28,1974492382000,-0.57,5.33,2.9556155,5
28,1974543774000,-0.65,5.33,5.407278,5
28,1974593517000,0.27,10.5,9.575105,5
28,1974643017000,-0.34,12.68,7.205164,5
28,1974693706000,-1.27,15.4,4.862464,5
28,1974743023000,2.87,9.3,-0.7627395,5
28,1974793774000,-0.15,4.86,-2.5333846,5
28,1974842998000,3.3,10.65,-0.9942854,5
28,1974893810000,1.99,9.28,1.1849703,5
28,1974943523000,2.6,7.89,1.7570249,5
28,1974993023000,3.91,8.31,1.4165162,5
28,1975043774000,1.73,9.08,2.3426998,5
28,1975093487000,2.6,9.81,2.3426998,5
28,1975143078000,4.75,10.84,2.7240696,5
28,1975194744000,3.21,13.72,3.0237172,5
28,1975252331000,2.91,13.57,-0.7627395,5
28,1975302257000,-4.48,17.31,1.3756552,5
28,1975352306000,4.56,10.12,2.6014864,5
28,1975402264000,2.91,6.74,1.607201,5
28,1975452282000,-0.76,3.53,-0.27240697,5
28,1975502270000,-0.57,3.76,1.3756552,5
28,1975552288000,-0.53,5.05,3.9499009,5
28,1975602276000,-0.19,7.82,7.6954966,5
28,1975652294000,1.76,15.05,8.962189,5
28,1975702282000,-3.3,12.79,7.504812,5
28,1975752270000,0.15,14.52,-2.2609777,5
28,1975802288000,1.23,3.79,-1.3756552,5
28,1975852276000,1.76,11.22,2.152015,5
28,1975902264000,1.04,7.93,-0.9125633,5
