user-id,timestamp,accX,accY,accZ,ActivityEncoded
26,1993032329000,-6.66,6.93,0.65,0
26,1993082347000,-1.04,6.13,1.33,0
26,1993132304000,3.64,6.32,1.5,0
26,1993182323000,1.08,10.42,-0.08,0
26,1993232341000,1.73,9.51,-3.02,0
26,1993282329000,-0.27,11.45,0.5,0
26,1993332347000,-0.89,19.08,-0.84,0
26,1993382335000,-2.72,11.3,-0.04,0
26,1993432292000,-3.41,12.37,-2.14,0
26,1993482341000,-2.11,8.73,-2.56,0
26,1993532329000,-0.08,5.75,-1.57,0
26,1993582347000,1.84,7.46,-1.27,0
26,1993632335000,2.76,10.15,-0.84,0
26,1993682323000,3.68,11.07,-1.23,0
26,1993682323000,3.68,11.07,-1.23,0
26,1993790355000,5.52,9.72,-1.92,0
26,1993842540000,-9.04,13.82,-0.53,0
26,1993892253000,-6.97,10.38,0.5,0
26,1993942332000,1.92,9.51,-0.84,0
26,1993992870000,4.67,14.33,-1.38,0
26,1994042308000,2.72,8.77,-1.65,0
26,1994092296000,2.07,0.89,-0.34,0
26,1994142314000,2.3,2.18,-0.53,0
26,1994192332000,-1.31,19.5,-5.71,0
26,1994242320000,-2.41,11.8,0.31,0
26,1994292339000,-4.21,10.69,0.93,0
26,1994342326000,-4.71,10.31,-2.49,0
26,1994392345000,2.11,5.56,-6.24,0
26,1994442302000,7.86,8.28,-6.02,0
26,1994492290000,5.41,8.89,9.34,0
26,1994542339000,-6.47,14.29,-2.56,0
26,1994592357000,-6.32,12.68,-2.45,0
26,1994642345000,1.31,9.85,-0.61,0
26,1994702251000,5.09,13.4,-0.99,0
26,1994752299000,3.53,8.01,-1.23,0
26,1994802318000,2.3,0.31,-1.53,0
26,1994852306000,3.64,7.46,-0.08,0
26,1994902293000,-5.52,19.34,-9.19,0
26,1994952312000,-1.69,8.92,0.42,0
26,1995002330000,-5.13,12.87,2.07,0
26,1995002330000,-5.13,12.87,2.07,0
26,1995072765000,-1.99,9.58,-2.53,0
26,1995122264000,4.44,4.56,-2.11,0
26,1995172313000,5.01,3.87,2.18,0
26,1995222301000,-3.06,10.61,-2.41,0
26,1995282298000,-9.34,15.79,0.31,0
26,1995332286000,0.19,11.22,0.5,0
26,1995382304000,2.6,13.87,-0.95,0
26,1995432231000,3.17,7.35,-1.53,0
26,1995482310000,2.18,-1.12,-1.57,0
26,1995532298000,3.79,4.56,2.96,0
26,1995582317000,-3.11,19.46,-5.9,0
26,1995632304000,-2.14,8.62,0.93,0
26,1995682353000,-4.02,13.38,-0.84,0
26,1995732310000,-2.41,9.47,-4.63,0
26,1995782298000,4.63,5.37,-1.92,0
26,1995832286000,1.14,-0.34,5.24,0
26,1995882304000,-3.17,5.41,-5.13,0
26,1995932292000,-8.01,16.13,-1.73,0
26,1995982310000,2.91,12.11,5.37,0
26,1996032298000,3.34,11.3,-2.37,0
26,1996082347000,1.08,1.18,0.89,0
26,1996132335000,0.76,7.93,1.84,0
26,1996182323000,-1.5,18.81,-3.11,0
26,1996232371000,-2.18,7.5,-0.15,0
26,1996282329000,-1.88,9.51,-1.88,0
26,1996332622000,0.5,15.28,-2.83,0
26,1996382335000,4.9,9.08,-3.26,0
26,1996432292000,6.93,6.36,2.6,0
26,1996482341000,2.87,18.09,-3.06,0
26,1996532329000,-6.17,19.57,-8.16,0
26,1996582347000,-8.58,11.37,-1.92,0
26,1996632335000,-9.58,8.96,4.1,0
26,1996682323000,-7.35,3.76,-1.5,0
26,1996732341000,-2.68,4.79,5.86,0
26,1996782329000,5.9,12.41,-7.35,0
26,1996832378000,2.3,10.38,-3.3,0
26,1996882335000,-1.31,18.85,0.04,0
26,1996932323000,-5.9,8.92,4.02,0
26,1996982341000,-2.53,7.74,-3.87,0
26,1997032329000,-4.06,11.96,-3.15,0
26,1997082347000,-1.31,7.74,-3.87,0
26,1997132304000,-0.34,7.74,-5.98,0
26,1997182323000,-1.61,11.11,-0.23,0
26,1997232341000,-3.64,11.99,5.63,0
26,1997282329000,-0.34,9.58,-4.06,0
26,1997332347000,2.45,12.11,2.6,0
26,1997382335000,1.23,11.75,0.27,0
26,1997432292000,0.69,12.03,-1.14,0
26,1997482341000,2.18,11.96,-1.18,0
26,1997532329000,-4.99,17.16,-3.91,0
26,1997582347000,-8.47,15.21,-6.85,0
26,1997632335000,-4.06,8.01,-4.44,0
26,1997682323000,-0.65,7.7,2.76,0
26,1997732341000,-4.02,3.34,-1.76,0
26,1997782329000,-3.06,2.3,-2.11,0
26,1997832347000,0.5,6.13,8.31,0
26,1997882335000,-0.34,10.73,-4.75,0
26,1997932323000,0.53,8.58,-1.99,0
26,1997982341000,-0.42,8.47,1.38,0
26,1998032329000,1.46,10.04,-1.57,0
26,1998082347000,-0.72,14.98,0.65,0
26,1998132335000,-4.99,18.77,0.11,0
26,1998182323000,-2.45,7.7,-0.5,0
26,1998232341000,-3.11,9.62,-4.82,0
26,1998282329000,-2.91,8.16,-2.96,0
26,1998332378000,-1.33,3.76,-1.23,0
26,1998382335000,2.07,2.22,1.54,0
26,1998432323000,1.18,4.99,1.31,0
26,1998482341000,-0.65,17.39,-2.6,0
26,1998532329000,4.94,12.15,-4.56,0
26,1998582347000,8.08,13.44,-2.83,0
26,1998632335000,-5.63,18.16,2.76,0
26,1998682323000,-9.47,10.04,-0.69,0
26,1998732341000,-3.79,3.87,-0.3,0
26,1998782329000,0.23,5.71,-1.08,0
26,1998832347000,5.79,9.15,0.11,0
26,1998882335000,4.6,13.14,-2.41,0
26,1998932323000,1.04,7.31,-2.22,0
26,1998982341000,-1.65,12.79,1.84,0
26,1999032329000,-3.6,17.35,-2.68,0
26,1999082347000,-3.98,8.96,-2.18,0
26,1999132335000,-3.87,8.5,-1.46,0
26,1999182323000,-3.91,8.24,-2.68,0
26,1999232341000,-0.8,5.24,-1.95,0
26,1999282329000,0.95,9.04,-0.8,0
26,1999332347000,2.53,9.62,-0.84,0
26,1999382335000,8.01,12.37,-3.64,0
26,1999432292000,1.88,19.53,-4.21,0
26,1999482341000,-11.99,9.85,7.97,0
26,1999532329000,-4.82,4.25,-0.19,0
26,1999582347000,-1.14,7.7,-2.26,0
26,1999632335000,3.72,13.38,-1.88,0
26,1999682323000,4.37,11.54,-0.99,0
26,1999732341000,2.98,5.63,0.31,0
26,1999782329000,-1.76,12.68,-0.11,0
26,1999832378000,-3.72,18.28,-3.15,0
26,1999882365000,-3.76,10.76,-2.91,0
26,1999932323000,-3.87,12.57,-1.33,0
26,2000002330000,-2.03,7.7,-1.33,0
26,2000052257000,-0.11,6.21,-2.07,0
26,2000102336000,0.72,8.24,-0.91,0
26,2000152232000,2.37,9.3,-1.12,0
26,2000202312000,6.78,12.91,-2.87,0
26,2000252391000,0.99,18.85,-3.83,0
26,2000302318000,-10.76,10.04,6.36,0
26,2000352306000,-7.01,5.98,1.14,0
26,2000402293000,-0.76,9.3,-0.76,0
26,2000452312000,3.87,10.38,-1.5,0
26,2000502299000,4.71,11.11,-1.8,0
26,2000552318000,3.95,4.9,-2.26,0
26,2000602336000,-0.46,10.42,2.26,0
26,2000652293000,-1.61,19.46,-5.24,0
26,2000702312000,-3.34,12.3,-1.88,0
26,2000752299000,-4.21,10.31,0.93,0
26,2000802318000,-3.6,10.08,-1.65,0
26,2000852306000,-1.73,7.21,-3.72,0
26,2000902293000,0.61,8.08,-0.42,0
26,2000952312000,3.34,9.58,-1.27,0
26,2001002299000,7.5,10.53,-2.75,0
26,2001052379000,-2.03,14.44,1.14,0
26,2001102306000,-8.2,8.69,0.04,0
26,2001152263000,-5.63,7.31,-1.88,0
26,2001202312000,-0.61,10.08,-0.84,0
26,2001252299000,4.63,14.41,-0.23,0
26,2001302318000,5.22,11.14,-1.23,0
26,2001352336000,1.38,4.44,-0.19,0
26,2001402293000,-0.61,11.6,-1.18,0
26,2001452281000,-2.83,14.67,-1.42,0
26,2001502299000,-2.68,12.95,-3.02,0
26,2001552318000,-3.45,12.49,-0.84,0
26,2001602306000,-2.75,9.62,-1.65,0
26,2001652324000,-1.31,8.05,-1.99,0
26,2001702312000,0.19,8.28,-0.53,0
26,2001752299000,2.3,9.11,-1.53,0
26,2001802318000,6.32,8.96,-2.83,0
26,2001852306000,3.11,15.09,-1.88,0
26,2001902293000,-9.11,10.12,3.45,0
26,2001952312000,-6.47,8.28,-0.89,0
26,2002002605000,-2.64,10.0,-1.46,0
26,2002052318000,2.49,12.03,0.08,0
26,2002102306000,3.76,13.67,-0.99,0
26,2002152263000,-0.23,9.15,0.34,0
26,2002202312000,-0.57,7.35,-0.57,0
26,2002252299000,-2.6,10.04,0.19,0
26,2002302318000,-3.17,12.07,-2.11,0
26,2002352306000,-4.52,12.15,-3.57,0
26,2002402293000,-4.86,10.92,-0.95,0
26,2002452281000,-3.57,9.23,-0.04,0
26,2002502299000,-0.99,8.12,-0.34,0
26,2002552318000,-0.84,8.81,0.46,0
26,2002602306000,0.23,9.62,0.19,0
26,2002652293000,3.76,7.93,-1.5,0
26,2002702312000,1.33,12.76,-0.5,0
26,2002752330000,-5.09,12.22,-2.41,0
26,2002802318000,-6.82,10.69,0.72,0
26,2002852306000,-3.95,7.7,-0.53,0
26,2002902293000,-2.75,6.32,0.69,0
26,2002952312000,-3.49,10.12,4.79,0
26,2003002299000,-3.26,12.26,3.83,0
26,2003052318000,0.93,7.78,4.48,0
26,2003102306000,-3.79,12.98,4.25,0
26,2003152293000,-11.99,15.43,2.26,0
26,2003202312000,-3.3,10.31,-0.3,0
26,2003252299000,-1.99,11.3,-5.33,0
26,2003302348000,-3.79,8.73,3.45,0
26,2003352306000,-5.05,4.56,6.59,0
26,2003402415000,-1.18,7.35,5.48,0
26,2003452312000,1.8,9.19,3.26,0
26,2003502483000,2.3,10.5,4.52,0
26,2003552318000,1.84,13.29,6.28,0
26,2003602306000,1.12,13.18,6.02,0
26,2003652293000,-2.6,10.34,5.37,0
26,2003702281000,-2.83,11.18,-2.07,0
26,2003752299000,-6.78,12.68,-2.79,0
26,2003802318000,0.69,9.3,5.18,0
26,2003852336000,-1.27,9.62,1.84,0
26,2003902293000,0.5,7.59,-1.88,0
26,2003952312000,2.03,6.36,0.34,0
26,2004002940000,3.68,10.23,0.11,0
26,2004052348000,2.91,12.22,0.34,0
26,2004102306000,3.91,8.24,-0.61,0
26,2004152293000,5.09,8.81,0.04,0
26,2004202312000,6.85,9.04,-2.34,0
26,2017862315000,9.3,6.44,-0.91,4
26,2017912364000,6.78,7.89,1.84,4
26,2017962291000,1.88,5.71,1.38,4
26,2018012340000,-0.46,3.06,0.23,4
26,2018062297000,2.96,12.03,-0.69,4
26,2018112315000,2.91,17.27,-9.77,4
26,2018162303000,5.52,5.67,-6.82,4
26,2018212596000,12.18,8.39,3.99,4
26,2018262309000,10.23,8.85,-0.27,4
26,2018312266000,7.93,3.02,0.95,4
26,2018362315000,2.79,7.55,0.72,4
26,2018412334000,5.05,9.19,-3.64,4
26,2018462321000,2.3,11.6,-5.71,4
26,2018512462000,9.53,14.98,-5.48,4
26,2018562236000,13.06,17.62,-2.56,4
26,2018612315000,9.58,10.5,0.23,4
26,2018662303000,9.28,5.83,-2.03,4
26,2018712291000,10.08,3.3,0.69,4
26,2018762309000,9.72,6.97,-2.34,4
26,2018812297000,10.34,10.04,4.4,4
26,2018862315000,8.54,14.63,-1.27,4
26,2018912303000,10.65,10.42,-1.88,4
26,2018962291000,8.08,6.89,-0.34,4
26,2019012309000,5.43,7.89,-2.45,4
26,2019062297000,2.3,5.52,0.5,4
26,2019112315000,1.04,2.07,-1.61,4
26,2019162303000,1.92,-1.53,0.19,4
26,2019212291000,5.63,-2.11,0.65,4
26,2019262309000,11.45,-1.57,1.99,4
26,2019312266000,12.57,5.33,1.99,4
26,2019362315000,4.99,5.13,-0.23,4
26,2019412303000,8.62,7.59,0.42,4
26,2019462627000,5.67,9.11,-2.41,4
26,2019512309000,7.86,10.23,-2.11,4
26,2019562358000,7.7,6.47,-1.42,4
26,2019612315000,7.78,5.98,-1.23,4
26,2019662303000,10.0,6.36,-1.65,4
26,2019712260000,10.0,5.43,-0.91,4
26,2019762309000,9.43,4.63,-1.18,4
26,2019812297000,7.5,2.98,-6.02,4
26,2019862315000,-1.57,8.12,1.08,4
26,2019912303000,4.44,10.04,-2.75,4
26,2019962291000,3.15,12.68,-3.26,4
26,2020012279000,4.6,18.24,-5.56,4
26,2020062297000,8.31,18.96,-5.9,4
26,2020112315000,11.3,11.84,0.84,4
26,2020162303000,9.58,7.31,-2.07,4
26,2020212260000,9.58,1.38,-5.6,4
26,2020262279000,12.87,4.63,0.34,4
26,2020312297000,7.86,15.66,0.99,4
26,2020362315000,7.55,14.29,-4.18,4
26,2020412303000,4.21,8.66,0.65,4
26,2020462321000,6.66,6.09,-1.12,4
26,2020512309000,2.91,7.16,-0.99,4
26,2020562297000,-0.23,3.45,-0.69,4
26,2020612315000,4.9,-2.45,-1.99,4
26,2020662303000,3.15,-0.34,-3.95,4
26,2020712291000,10.8,3.41,-4.06,4
26,2020762340000,12.68,11.96,2.34,4
26,2020812297000,5.79,4.75,-3.21,4
26,2020862315000,6.02,8.35,-0.61,4
26,2020912303000,7.74,11.88,-2.22,4
26,2020962291000,7.35,8.2,-1.69,4
26,2021012340000,6.97,6.44,-1.95,4
26,2021062297000,6.82,5.48,-1.69,4
26,2021112346000,6.66,5.43,-1.84,4
26,2021162303000,11.35,2.96,-9.3,4
26,2021212291000,4.67,8.54,-0.46,4
26,2021262248000,4.33,6.21,-4.25,4
26,2021312297000,0.89,7.97,-3.3,4
26,2021362315000,3.38,12.41,-3.98,4
26,2021412303000,8.2,18.5,-4.06,4
26,2021462321000,7.55,19.15,-3.6,4
26,2021512309000,11.18,11.03,0.95,4
26,2021562297000,10.53,2.83,-5.01,4
26,2021612315000,11.5,0.19,-2.22,4
26,2021662303000,8.47,9.28,0.31,4
26,2021712291000,5.98,17.12,-2.22,4
26,2021762309000,2.34,13.1,-1.33,4
26,2021812328000,6.89,4.99,-1.99,4
26,2021862315000,5.18,6.7,-0.53,4
26,2021912303000,4.37,6.32,-1.73,4
26,2021962291000,1.73,5.98,-0.65,4
26,2022012279000,3.83,-0.99,-1.5,4
26,2022062297000,4.1,-0.99,-3.02,4
26,2022112315000,9.38,0.61,-5.01,4
26,2022162303000,15.17,9.51,-0.08,4
26,2022212291000,3.02,5.22,-2.75,4
26,2022262309000,5.41,8.05,-3.06,4
26,2022312297000,6.28,9.85,-0.57,4
26,2022362346000,7.16,7.97,-0.99,4
26,2022412303000,6.21,6.93,-2.07,4
26,2022462291000,6.93,8.35,-2.64,4
26,2022512309000,7.35,9.34,-3.06,4
26,2022562266000,7.67,9.34,-4.86,4
26,2022612315000,8.89,6.89,-10.8,4
26,2022662303000,5.33,11.75,-5.79,4
26,2022712321000,4.75,16.78,3.11,4
26,2022762309000,12.49,3.06,-0.04,4
26,2022812297000,6.7,1.04,-2.6,4
26,2022862315000,6.44,3.91,-2.79,4
26,2022912334000,10.88,10.88,3.68,4
26,2022962291000,2.98,14.52,6.78,4
26,2023012279000,3.3,11.26,-4.67,4
26,2023062297000,-1.27,11.69,-3.68,4
26,2023112498000,0.61,2.91,-2.22,4
26,2023162364000,1.42,2.91,-2.22,4
26,2023212291000,-0.34,6.89,-0.42,4
26,2023262218000,5.52,8.5,-0.8,4
26,2023312328000,14.79,11.6,-6.47,4
26,2023362315000,14.44,6.4,-2.49,4
26,2023412303000,8.54,8.28,4.18,4
26,2023462291000,2.18,13.29,0.99,4
26,2023512675000,2.34,7.35,0.15,4
26,2023562297000,3.3,11.45,-2.07,4
26,2023612315000,-0.46,13.25,-4.21,4
26,2023662303000,-1.53,8.66,-5.05,4
26,2023712291000,1.95,8.2,-1.84,4
26,2023762309000,7.12,11.6,-5.05,4
26,2023812297000,9.85,9.66,-3.26,4
26,2023862315000,10.12,6.09,-0.19,4
26,2023912303000,9.85,4.48,2.96,4
26,2023962321000,8.92,4.63,-1.12,4
26,2024012309000,8.81,8.01,-0.91,4
26,2024062297000,10.04,8.69,1.65,4
26,2024112315000,13.63,14.98,0.0,4
26,2024162303000,9.47,18.39,8.69,4
26,2024212321000,11.3,10.31,-2.56,4
26,2024262309000,6.36,8.89,0.04,4
26,2024312297000,7.7,6.82,-2.79,4
26,2024362315000,0.8,3.15,-3.41,4
26,2024412303000,1.57,-0.53,-0.5,4
26,2024462291000,5.79,-1.46,0.93,4
26,2024512309000,7.74,-1.8,1.42,4
26,2024562297000,12.34,-2.79,-4.4,4
26,2024612315000,18.5,1.31,0.04,4
26,2024662303000,4.71,4.37,-1.84,4
26,2024662303000,4.71,4.37,-1.84,4
26,2024752513000,6.4,8.66,-4.1,4
26,2024802287000,8.85,9.47,-2.91,4
26,2024852214000,6.28,4.4,-1.69,4
26,2024902263000,8.96,4.4,-1.84,4
26,2024952342000,12.34,3.76,-1.57,4
26,2025002330000,11.6,2.07,-2.87,4
26,2025052348000,6.85,6.55,-10.88,4
26,2025102336000,-5.56,18.58,-3.15,4
26,2025152324000,4.99,15.64,-6.28,4
26,2025202342000,12.91,19.15,0.0,4
26,2025262492000,11.14,8.08,-3.02,4
26,2025312297000,8.54,1.12,-5.24,4
26,2025362315000,12.22,1.38,0.76,4
26,2025412303000,10.73,11.45,0.69,4
26,2025412303000,10.73,11.45,0.69,4
26,2025472301000,7.78,19.46,-2.64,4
26,2025522349000,4.86,10.8,0.69,4
26,2025572337000,11.18,3.83,-0.84,4
26,2025622996000,7.93,8.24,-2.37,4
26,2025672343000,-0.84,7.55,-2.34,4
26,2025722331000,1.33,-1.84,-2.3,4
26,2025772319000,-1.76,1.18,-1.61,4
26,2025822337000,8.24,3.06,-5.82,4
26,2025872325000,14.33,15.66,3.45,4
26,2025922343000,4.67,2.26,-4.75,4
26,2025972331000,7.55,9.3,-4.75,4
26,2026022349000,8.62,11.22,-1.73,4
26,2026072337000,8.16,6.32,1.61,4
26,2026122325000,6.05,7.01,-1.18,4
26,2026172343000,5.43,6.17,-1.99,4
26,2026222362000,7.44,5.43,-3.3,4
26,2026272258000,12.68,1.65,-16.32,4
26,2026322337000,-1.04,11.73,0.53,4
26,2026372325000,4.63,17.24,-7.78,4
26,2026422374000,7.74,19.23,-1.33,4
26,2026472331000,13.57,15.21,0.04,4
26,2026522319000,8.39,4.75,-3.41,4
26,2026572337000,11.3,2.72,-3.11,4
26,2026622295000,11.8,4.33,1.69,4
26,2026672343000,7.59,13.14,-2.87,4
26,2026722331000,2.87,15.36,-3.49,4
26,2026772319000,6.32,9.28,0.04,4
26,2026822337000,9.23,7.31,-2.72,4
26,2026872325000,4.02,7.12,-1.23,4
26,2026922343000,2.72,4.67,-0.19,4
26,2026972331000,0.46,3.83,-0.89,4
26,2027022319000,1.8,-0.15,-0.84,4
26,2027072337000,7.82,-1.5,-1.18,4
26,2027122325000,9.85,-1.42,-2.14,4
26,2027172343000,18.16,8.2,0.99,4
26,2027222331000,3.79,7.82,-2.68,4
26,2027272319000,6.44,8.05,-0.23,4
26,2027322368000,5.24,8.66,-2.3,4
26,2027372325000,6.63,9.3,-2.45,4
26,2027422679000,6.51,8.16,-2.56,4
26,2027472331000,7.97,6.89,-2.14,4
26,2027522319000,8.54,6.21,-1.76,4
26,2027572337000,9.08,8.08,-2.11,4
26,2027622325000,14.41,10.76,-12.34,4
26,2027672343000,-3.41,19.5,-3.57,4
26,2027732371000,13.25,11.03,0.53,4
26,2027782268000,9.66,0.04,-4.1,4
26,2027832347000,7.97,-4.99,-4.48,4
26,2027882365000,6.97,1.92,0.04,4
26,2027942332000,8.28,13.72,2.83,4
26,2027992290000,4.6,18.54,0.89,4
26,2028042338000,1.08,8.77,1.08,4
26,2028092326000,3.72,10.04,-0.72,4
26,2028142345000,5.24,6.24,1.23,4
26,2028192332000,4.06,3.79,-0.42,4
26,2028262248000,2.49,4.4,-0.04,4
26,2028312236000,0.76,3.72,-0.72,4
26,2028362315000,0.5,5.71,0.0,4
26,2028412303000,11.84,10.04,-3.02,4
26,2028462291000,15.43,8.58,-1.73,4
26,2028512309000,14.6,12.3,4.29,4
26,2028562297000,2.22,6.93,-1.88,4
26,2028612315000,0.93,5.71,-1.8,4
26,2028662303000,3.83,13.91,-1.42,4
26,2028712291000,2.72,12.41,-1.65,4
26,2028762309000,-0.89,9.08,-0.72,4
26,2028812297000,1.08,9.23,-1.84,4
26,2028862315000,2.45,11.92,-5.9,4
26,2028912303000,7.74,10.5,-10.46,4
26,2028962291000,9.38,6.13,-8.39,4
26,2029012309000,12.72,7.27,-3.72,4
26,2029062297000,13.44,5.05,4.18,4
26,2029112315000,10.8,5.24,1.04,4
26,2029162303000,10.57,8.28,-4.02,4
26,2029212291000,6.78,8.54,-0.19,4
26,2029262309000,5.86,12.95,6.17,4
26,2029312297000,8.81,18.47,1.33,4
26,2029362285000,8.81,14.86,3.53,4
26,2029412303000,13.72,8.05,2.11,4
26,2029462291000,6.82,10.61,-0.84,4
26,2029512340000,7.63,6.78,-1.73,4
26,2029562297000,-0.34,2.26,-1.84,4
26,2029612315000,3.83,-0.23,-0.89,4
26,2029662303000,4.48,-2.72,-0.5,4
26,2029712291000,9.89,-2.6,6.55,4
26,2029762309000,10.53,-0.04,1.88,4
26,2029812297000,14.67,2.18,3.21,4
26,2029862315000,5.79,4.86,-0.27,4
26,2029912303000,6.36,6.44,-1.12,4
26,2029962291000,6.51,8.66,-2.26,4
26,2030012248000,7.44,7.59,-3.64,4
26,2030062297000,7.46,5.75,-3.11,4
26,2030112315000,7.86,4.48,-1.95,4
26,2030162334000,11.75,4.71,-1.33,4
26,2030212291000,11.84,4.37,-1.04,4
26,2030262279000,12.72,4.37,-6.4,4
26,2030312297000,0.38,15.24,4.21,4
26,2030362315000,7.67,11.99,-6.43,4
26,2030412303000,9.34,18.39,-2.56,4
26,2030462291000,12.45,9.66,-0.38,4
26,2030512309000,8.2,3.57,-4.82,4
26,2030562358000,10.5,1.92,-2.22,4
26,2030612315000,11.54,4.99,0.89,4
26,2030662303000,9.23,14.33,-0.99,4
26,2030712291000,5.05,16.63,-3.68,4
26,2030762309000,6.97,8.01,1.54,4
26,2030812297000,8.96,5.43,-1.18,4
26,2030862315000,4.99,7.7,-1.53,4
26,2030912303000,0.42,5.75,0.0,4
26,2030962291000,2.49,-2.91,-1.76,4
26,2031012248000,3.6,-1.53,-1.42,4
26,2031062297000,6.44,-0.61,-0.38,4
26,2031112315000,16.78,5.67,-0.89,4
26,2031162303000,8.58,8.92,-0.61,4
26,2031212291000,6.24,4.86,-2.56,4
26,2031262279000,6.32,8.69,-3.06,4
26,2031312266000,8.2,8.69,-2.56,4
26,2031362315000,9.51,5.05,-1.57,4
26,2031412273000,9.51,5.18,-0.95,4
26,2031462291000,10.04,4.82,-1.27,4
26,2031512309000,8.2,4.99,-0.91,4
26,2031562297000,10.99,1.84,-8.27,4
26,2031612315000,-0.19,8.62,4.33,4
26,2031662364000,2.6,7.55,-5.75,4
26,2031712291000,4.56,10.76,-4.21,4
26,2031762309000,6.7,17.5,-3.41,4
26,2031812297000,8.28,19.5,-4.67,4
26,2031862315000,11.92,11.54,-1.27,4
26,2031912303000,10.8,4.99,-2.98,4
26,2031962291000,9.19,1.46,-5.41,4
26,2032012279000,11.56,3.38,0.31,4
26,2032062297000,9.28,12.34,-0.65,4
26,2032112315000,6.89,16.32,-4.29,4
26,2032162303000,6.28,10.65,0.19,4
26,2032212291000,5.37,5.63,-1.18,4
26,2032262309000,3.95,5.05,-0.91,4
26,2032312297000,3.15,4.06,0.34,4
26,2032362315000,2.68,1.33,-0.95,4
26,2032412303000,2.96,-0.72,-0.69,4
26,2032462291000,4.1,1.5,-2.03,4
26,2032512797000,18.54,6.17,-7.01,4
26,2032562297000,12.26,9.11,1.69,4
26,2032612315000,7.16,3.95,-2.72,4
26,2032662303000,6.66,6.78,-1.69,4
26,2032712291000,6.66,9.34,-1.76,4
26,2032762370000,7.44,7.44,-1.92,4
26,2032812297000,6.93,6.05,-1.69,4
26,2032862315000,7.82,5.83,-1.73,4
26,2032912303000,9.51,6.17,-2.56,4
26,2032962291000,10.38,2.53,-6.89,4
26,2033012309000,6.74,2.96,-8.85,4
26,2033062297000,2.26,13.33,3.72,4
26,2033112315000,6.32,7.63,-4.4,4
26,2033162303000,5.9,13.14,-3.87,4
26,2033212291000,4.4,18.85,-2.83,4
26,2033262309000,7.86,16.36,-1.73,4
26,2033312328000,7.89,6.89,-0.27,4
26,2033362315000,10.69,2.49,-1.42,4
26,2033412303000,8.69,3.87,-4.37,4
26,2033462291000,4.6,10.5,1.14,4
26,2033512309000,2.53,13.8,0.93,4
26,2033562297000,5.18,7.89,0.89,4
26,2033612315000,4.79,9.89,-0.38,4
26,2033662303000,4.1,8.2,1.38,4
26,2033712321000,3.3,4.21,-0.3,4
26,2033762340000,2.76,3.3,-0.42,4
26,2033812297000,1.42,3.99,-1.61,4
26,2033862346000,1.42,3.99,-1.61,4
26,2033912273000,7.08,5.48,-4.02,4
26,2033962230000,18.73,12.34,-4.14,4
26,2034012248000,18.54,2.26,3.11,4
26,2034062297000,3.76,9.81,0.34,4
26,2034112315000,2.37,10.8,-3.45,4
26,2034162303000,1.38,11.18,-0.3,4
26,2034212291000,1.65,15.55,-0.69,4
26,2034262309000,2.07,8.16,-0.99,4
26,2034312297000,1.88,9.19,-1.18,4
26,2034362315000,1.84,11.22,-3.6,4
26,2034412303000,3.26,9.72,-7.35,4
26,2034462291000,6.74,8.81,-7.82,4
26,2034512309000,9.62,8.05,-6.97,4
26,2034562297000,11.18,7.5,-3.3,4
26,2034612315000,17.12,5.75,3.57,4
26,2034662303000,10.27,5.48,-0.72,4
26,2034662303000,10.27,5.48,-0.72,4
26,2034752330000,7.55,9.08,-1.12,4
26,2034802348000,9.3,16.97,4.02,4
26,2034852336000,5.67,19.57,3.83,4
26,2034902293000,3.91,16.17,-4.02,4
26,2034952342000,14.44,4.94,1.99,4
26,2035002330000,7.16,9.81,-1.31,4
26,2035052348000,3.91,8.28,-2.3,4
26,2035102306000,0.04,0.27,-1.65,4
26,2035152324000,4.71,-4.44,1.31,4
26,2035202342000,10.69,-4.1,0.38,4
26,2035256175000,6.55,-2.14,1.08,4
26,2035312297000,15.7,1.57,3.95,4
26,2035362315000,5.63,5.9,3.02,4
26,2035412303000,7.5,6.97,-1.76,4
26,2035462291000,6.09,8.12,-2.91,4
26,2035512340000,8.77,9.62,-3.36,4
26,2035562297000,8.81,6.36,-2.3,4
26,2035612315000,11.3,4.67,-1.8,4
26,2035662303000,10.42,3.38,-0.57,4
26,2035712291000,9.0,3.15,-0.69,4
26,2035762309000,8.35,2.6,-6.7,4
26,2035812297000,0.46,10.38,-2.45,4
26,2035862315000,8.31,9.62,-2.72,4
26,2035912303000,5.98,16.25,-4.29,4
26,2035962291000,13.53,18.85,-2.37,4
26,2036012248000,13.53,8.81,0.0,4
26,2036062328000,10.04,3.38,-3.64,4
26,2036112346000,9.77,-0.61,-3.41,4
26,2036162303000,12.49,4.56,1.23,4
26,2036212291000,9.51,12.41,-1.08,4
26,2036262218000,8.89,13.59,-1.08,4
26,2036312297000,6.82,8.77,-0.38,4
26,2036362315000,7.86,6.09,-1.61,4
26,2036412303000,3.41,6.55,-0.8,4
26,2036462291000,0.93,5.13,-2.91,4
26,2036512309000,2.18,-1.27,-1.27,4
26,2036562328000,2.87,-0.11,-0.42,4
26,2036612315000,12.22,1.04,-3.76,4
26,2036662303000,17.86,10.92,1.5,4
26,2036712291000,4.44,3.34,-2.53,4
26,2036762309000,5.56,2.53,-3.6,4
26,2036812297000,6.63,7.67,-2.72,4
26,2036862315000,10.08,11.54,-2.14,4
26,2036912303000,7.78,5.63,-0.65,4
26,2036962291000,7.63,5.75,-1.42,4
26,2037012309000,8.31,6.55,-1.65,4
26,2037062297000,7.82,5.56,-1.69,4
26,2037112315000,11.3,1.69,-10.42,4
26,2037162303000,2.03,6.89,2.18,4
26,2037212291000,2.96,5.94,-4.86,4
26,2037262309000,4.1,8.81,-2.87,4
26,2037312297000,5.18,16.36,-4.52,4
26,2037362315000,10.57,19.53,-4.75,4
26,2037412303000,12.26,15.17,-1.38,4
26,2037462291000,10.23,8.01,-0.91,4
26,2037512309000,10.19,2.34,-4.37,4
26,2037562297000,9.96,-0.08,-3.95,4
26,2037612315000,9.77,6.97,-1.33,4
26,2037662303000,9.58,16.51,-0.65,4
26,2037712291000,5.98,12.95,-5.56,4
26,2037762340000,6.78,5.83,2.07,4
26,2037812297000,5.83,5.71,-2.34,4
26,2037862315000,2.79,6.47,0.08,4
26,2037912303000,1.54,2.68,-0.53,4
26,2037962291000,2.41,-2.34,-1.42,4
26,2038012248000,6.47,0.04,-2.03,4
26,2038062297000,10.5,-0.38,-2.64,4
26,2038112315000,17.54,3.57,-1.31,4
26,2038162303000,8.47,9.43,-2.96,4
26,2038212291000,7.12,4.37,-2.87,4
26,2038262309000,6.97,7.21,-2.45,4
26,2038312297000,9.85,10.19,-1.46,4
26,2038362315000,9.04,7.21,-1.27,4
26,2038412334000,7.27,6.82,-1.38,4
26,2038462291000,7.78,6.02,-1.5,4
26,2038512309000,7.67,4.56,-1.95,4
26,2038562297000,11.75,0.69,-16.28,4
26,2038612315000,1.5,8.96,4.63,4
26,2038662303000,4.02,4.44,-4.86,4
26,2038712291000,5.43,8.66,-2.34,4
26,2038762309000,4.6,12.76,-3.76,4
26,2038812297000,7.27,18.73,-3.57,4
26,2038862315000,11.35,18.89,-3.41,4
26,2038862315000,11.35,18.89,-3.41,4
26,2038933391000,10.53,6.93,-1.27,4
26,2038992259000,9.7,0.99,-5.01,4
26,2039042277000,9.66,1.5,-2.91,4
26,2039092357000,7.21,10.08,4.71,4
26,2039142375000,3.91,17.67,3.83,4
26,2039192302000,1.08,12.07,0.15,4
26,2039242320000,3.17,9.0,2.18,4
26,2039292338000,4.48,5.94,-0.57,4
26,2039342326000,2.03,3.41,-1.69,4
26,2039392345000,0.15,3.21,-2.11,4
26,2039442332000,3.17,3.41,-2.22,4
26,2039492290000,8.66,3.72,-1.53,4
26,2039542338000,18.43,5.01,0.61,4
26,2039592357000,10.95,9.38,5.28,4
26,2039642345000,8.08,11.88,-0.34,4
26,2039692332000,2.96,6.55,-2.72,4
26,2039742320000,3.34,9.58,-2.03,4
26,2039792338000,5.05,13.87,-1.38,4
26,2039842326000,3.34,9.0,-0.69,4
26,2039892345000,2.22,8.85,-0.99,4
26,2039942332000,2.15,10.88,-3.64,4
26,2039992290000,4.1,10.23,-5.05,4
26,2040042339000,6.89,9.34,-6.74,4
26,2040092326000,9.43,8.2,-7.82,4
26,2040142345000,11.41,6.74,-3.76,4
26,2040192302000,13.38,5.83,0.34,4
26,2040242320000,9.77,6.7,3.91,4
26,2040292369000,9.23,9.38,-3.3,4
26,2040342296000,9.23,10.65,1.84,4
26,2040392406000,9.72,16.13,3.41,4
26,2040442332000,7.31,19.57,1.18,4
26,2040492290000,11.6,12.37,-0.69,4
26,2040542339000,10.08,10.19,-1.88,4
26,2040592326000,3.83,6.55,-1.04,4
26,2040592326000,3.83,6.55,-1.04,4
26,2040692393000,0.99,-1.31,-1.27,4
26,2040742229000,4.63,-3.72,0.08,4
26,2040792277000,6.97,-2.41,2.34,4
26,2040842296000,15.85,2.87,-1.18,4
26,2040892345000,11.75,4.52,0.57,4
26,2040942363000,9.51,3.21,-0.99,4
26,2040992320000,5.24,4.33,-2.6,4
26,2041042339000,6.51,6.63,-2.79,4
26,2041092326000,9.66,9.85,-2.75,4
26,2041142345000,8.05,6.59,-2.03,4
26,2041192302000,11.37,7.5,-2.07,4
26,2041242290000,11.65,5.41,-1.5,4
26,2041292338000,7.35,4.63,-0.84,4
26,2041342326000,11.99,1.65,-7.74,4
26,2041392375000,-1.99,10.08,4.25,4
26,2041442332000,3.06,5.9,-5.43,4
26,2041492290000,4.82,9.15,-3.87,4
26,2041542338000,5.43,17.08,-3.79,4
26,2041592326000,9.3,19.34,-3.36,4
26,2041642345000,12.72,11.18,-2.22,4
26,2041692332000,9.62,4.02,-2.34,4
26,2041742320000,10.61,1.65,-3.45,4
26,2041792338000,11.26,4.44,-0.8,4
26,2041842326000,8.54,11.11,0.42,4
26,2041892345000,6.97,15.55,-0.5,4
26,2041942363000,9.23,9.28,-1.18,4
26,2041992320000,5.18,6.36,-0.34,4
26,2042042338000,6.59,5.86,-0.89,4
26,2042092357000,3.6,5.75,-0.15,4
26,2042142345000,-0.19,2.56,-2.22,4
26,2042192454000,2.03,-2.18,-0.89,4
26,2042242320000,4.86,-1.04,-0.91,4
26,2042292338000,17.62,1.92,-1.69,4
26,2042342326000,14.14,7.01,-0.27,4
26,2042392345000,5.98,3.53,-2.98,4
26,2042442363000,7.06,5.43,-2.68,4
26,2042492290000,8.24,8.96,-2.53,4
26,2042542338000,9.04,8.5,-1.31,4
26,2042592326000,8.2,5.94,-1.42,4
26,2042642345000,8.35,5.18,-1.65,4
26,2042692332000,7.12,4.9,-1.38,4
26,2042742320000,8.05,4.02,-2.98,4
26,2042792338000,6.55,6.24,-10.72,4
26,2042842326000,1.38,16.55,-3.79,4
26,2042892345000,6.7,18.16,-4.48,4
26,2042942332000,13.57,15.83,-0.76,4
26,2042992320000,8.35,5.6,-2.98,4
26,2043042338000,10.53,3.3,-3.26,4
26,2043092326000,12.34,2.53,-2.64,4
26,2043142345000,10.8,8.05,-0.95,4
26,2043192332000,7.27,16.63,-2.6,4
26,2043242320000,3.45,12.64,1.54,4
26,2043292338000,9.04,8.54,-2.98,4
26,2043342326000,5.75,6.55,-0.61,4
26,2043392375000,5.22,6.09,-1.04,4
26,2043442332000,3.02,6.4,-0.27,4
26,2043492290000,-0.53,2.03,-0.8,4
26,2043542338000,3.87,-3.68,-0.8,4
26,2043592357000,7.74,-1.23,-1.33,4
26,2043642345000,18.12,4.4,-0.3,4
26,2043712352000,8.66,7.06,-0.46,4
26,2043762248000,7.44,5.56,-3.15,4
26,2043812328000,8.35,10.53,-2.75,4
26,2043862285000,9.38,8.12,-1.57,4
26,2043912303000,8.81,7.55,-1.61,4
26,2043962291000,7.93,6.93,-1.88,4
26,2044012248000,6.32,5.83,-1.8,4
26,2044062297000,6.13,4.4,-2.53,4
26,2044112315000,9.92,1.31,-15.17,4
26,2044162303000,2.11,7.31,6.55,4
26,2044212291000,5.24,4.67,-3.76,4
26,2044262309000,6.74,10.12,-2.56,4
26,2044312297000,6.66,17.31,-3.11,4
26,2044362315000,9.19,19.53,-3.6,4
26,2044412303000,11.3,12.07,-2.6,4
26,2044462291000,8.92,2.98,-2.56,4
26,2044512340000,8.77,0.72,-4.4,4
26,2044562297000,8.85,3.21,-2.18,4
26,2044612346000,6.89,12.18,2.34,4
26,2044662303000,0.84,15.64,4.06,4
26,2044712291000,2.72,8.2,-1.23,4
26,2044762309000,4.52,7.06,-3.17,4
26,2044812297000,4.71,5.43,2.22,4
26,2044862315000,2.03,4.33,-0.11,4
26,2044912303000,-0.5,4.6,-0.04,4
26,2044962291000,2.07,5.09,-1.31,4
26,2045012340000,7.25,7.08,-1.73,4
26,2045062297000,15.4,8.12,-6.09,4
26,2045112315000,15.55,5.86,-2.3,4
26,2045162303000,9.28,14.48,5.56,4
26,2045212291000,0.15,8.16,4.06,4
26,2045262279000,1.95,7.31,-2.56,4
26,2045312297000,4.48,14.94,-1.99,4
26,2045362315000,-0.19,11.26,-1.84,4
26,2045412303000,0.84,7.97,-1.65,4
26,2045462321000,3.06,9.85,-3.57,4
26,2045512340000,8.58,10.08,-8.92,4
26,2045562297000,11.03,6.55,-6.09,4
26,2045612315000,9.96,6.24,-1.8,4
26,2045662303000,12.3,6.74,0.34,4
26,2045712291000,14.02,5.41,6.28,4
26,2045712291000,14.02,5.41,6.28,4
26,2045782359000,9.96,8.24,0.72,4
26,2045832225000,12.68,10.76,2.18,4
26,2045882396000,10.8,19.57,7.63,4
26,2045932353000,11.3,13.72,-2.26,4
26,2045992320000,10.08,8.92,0.99,4
26,2046042369000,4.1,8.31,-3.6,4
26,2046092326000,-1.08,2.34,-3.87,4
26,2046142345000,1.99,-0.76,-2.14,4
26,2046192302000,4.48,-3.79,0.93,4
26,2046242320000,9.08,-3.17,2.41,4
26,2046292338000,14.9,0.15,1.38,4
26,2046342326000,7.55,4.67,-0.11,4
26,2046392345000,10.84,5.24,-0.23,4
26,2046442332000,9.3,5.41,-2.14,4
26,2046492412000,7.44,6.66,-1.99,4
26,2046542369000,7.01,7.86,-1.92,4
26,2046592326000,7.12,6.97,-2.03,4
26,2046642345000,10.15,5.41,-2.26,4
26,2046692363000,12.07,2.64,-1.76,4
26,2046742290000,11.35,2.03,-1.8,4
26,2046792369000,10.08,4.14,-12.11,4
26,2046842326000,-1.76,19.46,-3.41,4
26,2046892345000,14.21,14.44,-3.53,4
26,2046942363000,12.87,9.19,-2.56,4
26,2046992290000,9.92,4.79,-2.3,4
26,2047042339000,12.15,2.22,-2.91,4
26,2047092326000,13.4,3.57,0.27,4
26,2047142345000,9.72,13.53,1.08,4
26,2047192332000,5.79,16.59,-1.53,4
26,2047242320000,3.38,10.23,-0.08,4
26,2047292369000,7.12,3.95,-1.38,4
26,2047342326000,5.9,5.67,-1.23,4
26,2047392467000,2.76,4.82,-1.65,4
26,2047442332000,0.27,2.56,-2.75,4
26,2047492320000,3.76,-0.08,0.15,4
26,2047542339000,5.48,-1.5,-0.3,4
26,2047592357000,9.04,-1.99,-2.3,4
26,2047642345000,19.19,5.48,2.3,4
26,2047692332000,7.31,4.94,-1.73,4
26,2047742320000,8.73,3.91,-0.84,4
26,2047792338000,6.36,7.06,-3.15,4
26,2047842326000,9.08,10.65,-2.75,4
26,2047892345000,9.11,7.44,-0.69,4
26,2047942332000,7.82,6.55,-0.91,4
26,2047992290000,8.47,7.44,-1.12,4
26,2048042339000,8.85,5.67,-2.34,4
26,2048092326000,11.35,0.65,-15.21,4
26,2048142345000,3.6,7.21,5.22,4
26,2048192332000,6.13,-0.04,-2.75,4
26,2048242320000,1.57,8.12,-1.84,4
26,2048292338000,5.28,17.86,-5.86,4
26,2048342784000,15.47,18.85,-5.2,4
26,2048392375000,13.25,11.73,-0.34,4
26,2048442332000,11.11,7.25,-0.34,4
26,2048492320000,9.89,1.61,-5.01,4
26,2048542338000,10.08,0.8,-3.53,4
26,2048592326000,12.03,9.11,1.38,4
26,2048642345000,10.88,14.21,-1.27,4
26,2048692393000,5.63,13.33,-0.46,4
26,2048742290000,4.67,6.32,0.93,4
26,2048812266000,3.17,6.32,-1.27,4
26,2048862285000,-0.65,5.37,-2.11,4
26,2048912303000,1.61,-1.88,-1.14,4
26,2048962291000,4.4,-0.76,-1.61,4
26,2049012309000,14.79,0.72,-4.21,4
26,2049062297000,15.89,7.16,2.45,4
26,2049112376000,4.1,3.79,-0.69,4
26,2049162303000,6.09,4.63,-2.37,4
26,2049212291000,7.78,10.65,-3.02,4
26,2049262309000,9.81,11.54,-1.95,4
26,2049312358000,7.63,5.41,-0.34,4
26,2049362315000,6.32,5.18,-0.72,4
26,2049412303000,7.59,6.89,-1.12,4
26,2049462291000,7.7,4.52,-2.64,4
26,2049512309000,8.73,1.42,-16.13,4
26,2049562297000,3.06,12.6,2.45,4
26,2049612315000,10.23,1.88,-3.26,4
26,2049662303000,7.06,6.02,-3.06,4
26,2049712291000,-1.14,13.63,-4.18,4
26,2049762309000,4.37,19.53,-3.57,4
26,2049812297000,13.06,15.94,-1.12,4
26,2049862315000,8.28,6.78,-0.89,4
26,2049912303000,9.08,3.02,-2.34,4
26,2049962291000,9.34,2.96,-2.3,4
26,2050012279000,7.67,8.92,-1.12,4
26,2050062297000,2.11,15.21,6.97,4
26,2050112315000,2.91,8.69,-0.57,4
26,2050162303000,4.4,7.86,0.99,4
26,2050212291000,3.45,6.7,-0.72,4
26,2050264506000,5.33,5.63,-0.89,4
26,2050264506000,5.33,5.63,-0.89,4
26,2050322337000,-0.38,4.82,-2.75,4
26,2050372325000,0.5,2.68,-1.92,4
26,2050422343000,15.89,1.76,-1.8,4
26,2050472392000,9.11,4.82,0.08,4
26,2050522319000,4.18,6.89,0.0,4
26,2050572337000,16.32,17.88,-1.95,4
26,2050622325000,4.56,7.25,-1.38,4
26,2050672374000,0.31,4.82,1.04,4
26,2050722331000,2.72,12.57,0.15,4
26,2050772319000,4.9,15.02,-3.02,4
26,2050833903000,0.93,7.21,-1.5,4
26,2050892375000,4.14,9.11,-3.41,4
26,2050942332000,7.63,8.2,-6.89,4
26,2050992320000,10.23,7.4,-3.36,4
26,2051042338000,8.96,7.16,-0.5,4
26,2051092326000,8.69,5.86,0.08,4
26,2051142345000,13.44,4.37,0.5,4
26,2051192332000,9.77,6.21,-0.5,4
26,2051242320000,9.15,6.93,0.08,4
26,2051292338000,8.5,10.53,5.48,4
26,2051342326000,11.88,18.62,3.83,4
26,2051392345000,10.5,15.66,1.04,4
26,2051442332000,12.22,8.62,2.45,4
26,2051492320000,8.08,9.85,-0.69,4
26,2051542338000,11.45,6.4,-1.38,4
26,2051592326000,3.11,3.21,-3.53,4
26,2051642711000,1.76,0.19,-1.5,4
26,2051692393000,1.65,-3.36,-0.08,4
26,2051742320000,6.66,-5.94,1.76,4
26,2051792338000,4.63,-5.94,4.29,4
26,2051842326000,16.4,-2.34,2.41,4
26,2051892345000,4.82,2.6,2.53,4
26,2051942332000,11.3,6.97,2.07,4
26,2051992290000,7.63,6.44,-0.57,4
26,2052042338000,6.24,7.27,-2.11,4
26,2052092326000,7.12,8.77,-3.36,4
26,2052142375000,10.08,5.79,-2.83,4
26,2052192332000,13.53,3.79,-1.61,4
26,2052242320000,11.75,3.87,0.76,4
26,2052292338000,9.19,3.91,-0.65,4
26,2052342326000,8.54,1.73,-8.5,4
26,2052392345000,1.18,5.37,4.44,4
26,2052442332000,3.72,2.15,-1.23,4
26,2052492320000,5.52,8.47,-1.5,4
26,2052542338000,6.55,18.28,-4.75,4
26,2052592326000,14.14,19.08,-6.63,4
26,2052642345000,12.41,13.63,-0.99,4
26,2052692332000,10.15,8.08,-0.3,4
26,2052742320000,10.0,2.34,-4.71,4
26,2052792338000,10.15,-0.72,-4.06,4
26,2052842357000,9.72,4.25,-0.69,4
26,2052892345000,12.41,12.37,3.02,4
26,2052942332000,7.89,9.96,-0.04,4
26,2052992320000,4.06,8.12,-1.69,4
26,2053042338000,6.13,5.41,-0.95,4
26,2053092326000,8.89,7.5,-0.11,4
26,2053142345000,1.92,5.83,-2.87,4
26,2053192363000,-0.65,-1.76,-0.46,4
26,2053242351000,4.18,-2.87,-1.31,4
26,2053292338000,16.93,1.65,-0.72,4
26,2053342326000,12.53,7.12,1.31,4
26,2053392345000,5.6,2.37,-0.84,4
26,2053442332000,6.82,4.56,-1.61,4
26,2053492290000,8.81,12.41,-2.49,4
26,2053542338000,8.69,10.34,-1.53,4
26,2053592326000,8.73,6.4,-0.84,4
26,2053662334000,9.28,4.4,-0.84,4
26,2053712230000,6.47,3.26,-0.57,4
26,2053762340000,10.88,-0.04,-8.08,4
26,2053812266000,0.27,7.7,5.98,4
26,2053862315000,3.79,5.09,-4.56,4
26,2053912303000,7.25,12.87,-3.57,4
26,2053962291000,9.58,19.19,-3.15,4
26,2054012309000,11.69,17.62,-2.83,4
26,2054062297000,12.03,7.82,-0.15,4
26,2054112315000,13.06,4.21,-4.1,4
26,2054162303000,10.19,-0.34,-3.53,4
26,2054212291000,10.0,4.02,-1.57,4
26,2054262309000,12.68,13.57,0.15,4
26,2054312511000,9.92,12.6,-4.44,4
26,2054362315000,4.71,9.62,-0.53,4
26,2054412303000,4.94,6.36,2.15,4
26,2054462291000,2.76,5.18,-1.84,4
26,2054512309000,-0.53,2.83,-0.57,4
26,2054562297000,3.57,-0.65,-0.89,4
26,2054612315000,5.13,-0.5,-3.49,4
26,2054662303000,10.95,-0.46,-4.79,4
26,2054712291000,17.73,11.03,2.6,4
26,2054762340000,5.9,3.49,-2.34,4
26,2054812297000,5.22,5.41,-2.22,4
26,2054862315000,7.46,11.92,-2.34,4
26,2054912303000,9.19,9.66,-1.69,4
26,2054962321000,7.59,5.24,-0.89,4
26,2055012218000,8.01,6.47,-0.8,4
26,2055062297000,7.63,6.89,-0.95,4
26,2055112315000,7.31,4.4,-2.22,4
26,2055162303000,9.92,0.89,-15.83,4
26,2055212291000,3.68,7.12,6.05,4
26,2055262279000,4.06,2.15,-1.8,4
26,2055312297000,3.53,7.31,-1.84,4
26,2055362315000,4.06,13.44,-3.11,4
26,2055412303000,10.08,18.62,-3.17,4
26,2055462291000,10.88,19.57,-6.21,4
26,2055512309000,10.84,10.8,-1.95,4
26,2055562297000,11.99,4.48,-0.38,4
26,2055612315000,8.35,0.34,-4.79,4
26,2055612315000,8.35,0.34,-4.79,4
26,2055702129000,7.74,3.53,-1.08,4
26,2055752360000,7.06,16.17,4.06,4
26,2055802287000,4.29,11.45,-1.38,4
26,2055852275000,3.64,8.89,-3.3,4
26,2055902324000,6.21,4.71,3.72,4
26,2055952342000,1.61,4.18,-2.03,4
26,2056002574000,-1.31,3.3,-1.42,4
26,2056052348000,-0.57,2.64,0.57,4
26,2056102336000,9.0,2.34,-0.46,4
26,2056152324000,19.5,9.19,-5.28,4
26,2056202312000,12.15,3.41,1.61,4
26,2056252360000,10.69,16.13,-1.33,4
26,2056302348000,0.15,9.3,4.4,4
26,2056352397000,0.99,8.24,-1.65,4
26,2056402324000,5.37,13.48,-1.69,4
26,2056452891000,4.63,8.43,-1.69,4
26,2056502330000,6.02,7.89,-2.72,4
26,2056552379000,9.38,5.48,-11.95,4
26,2056612285000,15.55,2.07,-7.21,4
26,2056662212000,12.53,2.49,-4.86,4
26,2056712138000,2.91,9.7,1.31,4
26,2056762584000,1.27,13.14,-3.21,4
26,2056812724000,7.93,17.27,-5.52,4
26,2056862254000,15.85,15.43,-4.21,4
26,2056912242000,11.73,10.69,-0.95,4
26,2056962230000,8.58,7.46,-0.65,4
26,2057012309000,11.45,2.6,-3.36,4
26,2057062663000,10.65,3.79,-0.84,4
26,2057112376000,7.25,14.02,-1.69,4
26,2057162334000,4.14,10.34,1.23,4
26,2057212230000,11.75,5.86,-2.64,4
26,2057262309000,7.97,6.55,0.42,4
26,2057312602000,8.5,7.21,-0.95,4
26,2057362315000,4.75,4.86,-0.53,4
26,2057412303000,-0.69,2.3,-2.03,4
26,2057462291000,1.84,-1.38,0.0,4
26,2057512309000,5.48,-1.69,0.42,4
26,2057562297000,10.84,-2.83,-2.83,4
26,2057612315000,19.08,4.82,1.99,4
26,2057662303000,5.13,4.18,0.38,4
26,2057712291000,8.2,4.79,-1.12,4
26,2057762309000,6.89,6.09,-2.64,4
26,2057812297000,10.46,11.35,-2.18,4
26,2057862346000,8.24,6.44,-1.57,4
26,2057912303000,7.89,5.48,-0.91,4
26,2057962291000,11.18,5.37,-1.23,4
26,2058012248000,10.04,3.3,-1.57,4
26,2058062297000,11.88,0.15,-6.78,4
26,2058112315000,2.11,8.24,3.83,4
26,2058162303000,2.68,5.79,-4.21,4
26,2058212260000,1.61,8.24,-2.6,4
26,2058262309000,5.6,14.94,-4.4,4
26,2058312297000,8.69,19.15,-5.75,4
26,2058362376000,13.99,16.97,-3.15,4
26,2058412303000,12.26,7.7,1.57,4
26,2058462291000,11.45,2.79,-4.67,4
26,2058512309000,10.42,-0.65,-5.05,4
26,2058562297000,10.38,5.37,2.96,4
26,2058612315000,8.89,13.8,-0.38,4
26,2058662303000,9.38,12.34,-2.83,4
26,2058662303000,9.38,12.34,-2.83,4
26,2058732371000,7.5,7.5,-0.57,4
26,2058782298000,6.66,5.52,-2.37,4
26,2058832378000,5.28,5.86,0.11,4
26,2058892314000,1.8,5.41,-2.6,4
26,2058942332000,-1.61,-1.46,-0.65,4
26,2058992290000,5.98,-0.46,-0.65,4
26,2059042338000,9.77,-0.34,-3.26,4
26,2059092326000,19.46,8.35,1.88,4
26,2059142345000,7.82,3.02,-1.57,4
26,2059192332000,6.63,3.95,-1.92,4
26,2059242320000,8.01,9.15,-2.83,4
26,2059292338000,7.93,9.0,-1.57,4
26,2059342326000,7.08,5.43,-0.84,4
26,2059392375000,8.69,6.78,-1.18,4
26,2059442332000,8.43,6.63,-1.27,4
26,2059492320000,6.78,4.79,-1.42,4
26,2059542338000,11.75,1.57,-12.07,4
26,2059592326000,3.76,8.69,-0.11,4
26,2059651042000,8.05,3.87,-4.21,4
26,2059702342000,6.66,3.72,-0.53,4
26,2059752299000,4.48,4.29,-1.57,4
26,2059802379000,2.87,9.51,-2.49,4
26,2059852397000,5.05,13.76,-4.1,4
26,2059902263000,11.11,14.94,-5.52,4
26,2059952251000,11.41,19.5,-7.63,4
26,2060002635000,12.83,15.47,1.27,4
26,2060052501000,11.88,5.98,-0.84,4
26,2060102275000,10.23,0.99,-5.37,4
26,2060152232000,12.79,0.19,-4.29,4
26,2060202342000,10.31,3.34,-1.27,4
26,2060256541000,10.12,9.72,1.5,4
26,2060312297000,10.57,18.09,-6.97,4
26,2060362315000,3.95,13.57,-7.01,4
26,2060412303000,3.76,9.11,7.7,4
26,2060462291000,1.73,5.71,-2.18,4
26,2060512309000,-1.38,1.33,-0.04,4
26,2060562297000,0.11,-0.84,0.19,4
26,2060612315000,6.09,0.27,1.31,4
26,2060662303000,8.2,1.84,1.12,4
26,2060712382000,17.54,4.75,-1.18,4
26,2060762340000,13.44,0.31,2.76,4
26,2060812297000,12.03,6.32,-0.04,4
26,2060862315000,7.08,6.63,-1.92,4
26,2060912334000,5.9,9.08,-0.91,4
26,2060962291000,6.24,9.92,-0.38,4
26,2061012309000,4.4,6.24,-2.34,4
26,2061062511000,7.78,6.85,-2.83,4
26,2061112315000,6.74,8.24,0.76,4
26,2061162303000,0.95,11.99,3.79,4
26,2061212321000,2.79,5.83,-0.3,4
26,2061262218000,2.79,8.05,0.04,4
26,2061312297000,3.49,6.55,-1.8,4
26,2061362315000,4.44,8.54,-0.95,4
26,2061412303000,3.72,10.61,0.0,4
26,2061462291000,6.7,7.78,-1.65,4
26,2061512309000,4.33,8.58,0.89,4
26,2061562297000,1.88,11.54,2.68,4
26,2061562297000,1.88,11.54,2.68,4
26,2061632304000,-0.27,9.28,0.15,4
26,2061682292000,1.69,10.95,-0.65,4
26,2061732402000,2.6,9.92,-2.6,4
26,2061782359000,4.6,8.81,0.65,4
26,2061842296000,1.84,10.46,0.19,4
26,2061892345000,2.72,10.31,2.34,4
26,2061942363000,3.17,8.58,1.04,4
26,2061992564000,2.18,9.77,-2.11,4
26,2062042308000,0.84,10.76,-0.76,4
26,2062092296000,2.45,10.15,-0.76,4
26,2062142345000,3.02,11.26,-1.92,4
26,2062192332000,3.45,10.88,0.99,4
26,2062242351000,2.26,11.45,-1.99,4
26,2062292338000,3.21,10.12,0.42,4
26,2062342326000,4.56,10.04,-2.72,4
26,2062392375000,6.02,10.65,-0.65,4
26,2062442332000,6.93,8.54,-1.38,4
26,2062492320000,5.79,6.44,0.5,4
26,2062542308000,5.24,6.4,0.99,4
26,2062592326000,5.9,5.75,1.12,4
26,2062642345000,6.51,5.28,1.38,4
26,2062692363000,5.67,7.31,-1.73,4
26,2062742320000,8.28,7.35,1.42,4
26,2062742320000,8.28,7.35,1.42,4
26,2062822459000,7.4,7.31,3.49,4
26,2062872386000,10.73,6.36,7.63,4
26,2062922679000,9.96,6.32,7.7,4
26,2062972453000,11.45,5.9,6.17,4
26,2063022624000,8.77,7.59,4.94,4
26,2063083110000,6.36,7.67,2.37,4
26,2063143413000,4.86,8.31,2.45,4
26,2063203532000,2.45,8.81,-0.53,4
26,2063263621000,3.34,7.67,7.4,4
26,2063263621000,3.34,7.67,7.4,4
26,2078292125000,3.41,9.89,0.08,0
26,2078292125000,3.41,9.89,0.08,0
26,2078342204000,3.95,10.99,2.72,0
26,2078392467000,7.89,12.98,2.3,0
26,2078442271000,-0.69,12.91,-1.04,0
26,2078492320000,2.83,7.7,1.27,0
26,2078542339000,-0.89,8.92,1.33,0
26,2078592326000,-0.38,5.48,1.18,0
26,2078642345000,0.99,4.82,1.23,0
26,2078692332000,0.89,4.75,0.72,0
26,2078742320000,-0.65,5.01,-0.23,0
26,2078792338000,3.02,7.97,-1.27,0
26,2078842326000,4.94,17.08,0.72,0
26,2078892345000,3.38,9.43,5.52,0
26,2078942332000,-0.27,11.84,2.53,0
26,2078992290000,-2.53,18.73,0.34,0
26,2079042339000,-0.69,11.84,-2.6,0
26,2079092296000,2.07,10.0,-2.6,0
26,2079142345000,2.79,11.6,-3.26,0
26,2079192332000,1.27,6.89,-0.46,0
26,2079242320000,1.73,6.97,0.72,0
26,2079292338000,3.49,8.5,1.46,0
26,2079342326000,2.98,9.77,-0.84,0
26,2079392345000,5.63,9.04,-3.11,0
26,2079442332000,6.63,16.47,-2.41,0
26,2079492320000,-8.2,14.41,4.75,0
26,2079542339000,-3.53,3.64,-1.53,0
26,2079592326000,-1.04,6.05,-1.99,0
26,2079642345000,4.71,10.69,1.14,0
26,2079692332000,5.01,10.53,1.18,0
26,2079742351000,5.63,13.33,-4.21,0
26,2079792338000,1.99,4.99,1.12,0
26,2079842326000,1.65,6.09,2.98,0
26,2079892375000,1.76,19.5,-3.57,0
26,2079942363000,-1.12,12.64,-1.65,0
26,2079992290000,-0.89,6.55,-0.8,0
26,2080042338000,-0.34,11.14,-2.11,0
26,2080092326000,5.63,5.48,-4.06,0
26,2080142345000,7.67,7.08,1.73,0
26,2080192332000,-1.31,15.66,2.6,0
26,2080242259000,-4.86,10.8,-2.18,0
26,2080292338000,-1.8,7.44,-1.95,0
26,2080342326000,3.34,10.15,-0.53,0
26,2080392345000,5.63,12.57,-0.65,0
26,2080442332000,5.75,7.5,-0.5,0
26,2080492320000,2.79,13.38,4.82,0
26,2080542339000,0.95,13.72,-3.68,0
26,2080592326000,-1.76,8.01,-1.46,0
26,2080642345000,-1.99,17.2,-1.23,0
26,2080692332000,-1.65,7.4,-2.45,0
26,2080742320000,0.84,6.85,-1.5,0
26,2080792338000,3.26,9.53,-2.34,0
26,2080842326000,5.98,8.12,-1.99,0
26,2080892345000,8.43,13.1,-2.41,0
26,2080942332000,-6.02,13.53,4.37,0
26,2080992320000,-4.9,7.06,1.57,0
26,2081042338000,-0.42,10.88,-0.5,0
26,2081102336000,5.98,13.38,-2.03,0
26,2081152293000,5.41,10.12,-2.22,0
26,2081202342000,3.72,3.38,-0.89,0
26,2081252330000,1.08,10.19,0.76,0
26,2081302348000,1.14,19.23,-4.4,0
26,2081352306000,-1.5,11.11,-1.33,0
26,2081402324000,-2.6,10.53,1.04,0
26,2081452342000,-1.88,8.66,-0.11,0
26,2081502330000,-0.5,6.74,-1.73,0
26,2081552379000,2.45,8.08,-1.08,0
26,2081602336000,5.9,6.66,-2.45,0
26,2081652293000,3.38,13.21,0.61,0
26,2081702342000,-6.09,13.06,1.38,0
26,2081752299000,-0.65,9.58,-0.15,0
26,2081802348000,4.48,11.56,-0.57,0
26,2081852336000,6.02,11.6,-1.8,0
26,2081902324000,5.79,9.62,-2.49,0
26,2081952342000,1.08,0.69,-0.11,0
26,2082002635000,3.02,3.91,0.5,0
26,2082052348000,2.79,18.85,-8.27,0
26,2082102336000,-3.91,13.82,2.49,0
26,2082152293000,-1.14,8.92,0.0,0
26,2082202342000,0.84,13.67,-3.53,0
26,2082252605000,3.79,8.01,-3.17,0
26,2082302348000,4.48,3.87,-0.38,0
26,2082352336000,6.93,2.6,4.82,0
26,2082402324000,3.64,10.38,-1.46,0
26,2082452373000,-2.49,19.34,-7.31,0
26,2082502330000,-3.76,8.2,0.15,0
26,2082552348000,-6.63,7.08,7.67,0
26,2082602336000,-1.5,9.77,0.84,0
26,2082652354000,7.67,17.54,6.21,0
26,2082702342000,13.21,14.1,-7.44,0
26,2082752330000,6.78,10.57,-0.61,0
26,2082802348000,-2.18,16.04,-1.42,0
26,2082852336000,-2.3,16.66,2.26,0
26,2082902324000,-3.64,13.95,-0.84,0
26,2082952373000,-6.66,9.28,-4.99,0
26,2083002391000,-2.11,3.21,-2.14,0
26,2083052348000,-0.5,6.55,-1.04,0
26,2083102336000,0.57,12.98,-2.79,0
26,2083152324000,4.82,14.94,2.3,0
26,2083202342000,3.53,11.92,2.72,0
26,2083252330000,5.48,12.68,-2.49,0
26,2083310374000,4.25,12.49,-1.31,0
26,2083310374000,4.25,12.49,-1.31,0
26,2083373515000,3.15,13.63,3.26,0
26,2083423350000,-4.99,19.57,-6.74,0
26,2083472972000,-6.55,11.45,-2.96,0
26,2083523692000,-3.83,4.48,0.93,0
26,2083582286000,-0.95,3.6,-2.6,0
26,2083632335000,-2.56,1.65,-0.76,0
26,2083682262000,-1.57,3.17,0.76,0
26,2083732341000,3.06,9.38,1.14,0
26,2083782268000,5.48,10.04,3.21,0
26,2083832286000,3.17,8.39,0.65,0
26,2083882335000,0.27,9.23,-2.56,0
26,2083932262000,-0.53,17.73,-1.61,0
26,2083982341000,0.08,16.59,3.6,0
26,2084032298000,-2.37,9.34,-0.34,0
26,2084082286000,-0.84,10.92,-3.64,0
26,2084132335000,0.42,7.46,-1.57,0
26,2084182262000,1.46,4.29,-1.38,0
26,2084232341000,3.49,5.86,-1.04,0
26,2084282268000,5.83,9.15,-2.37,0
26,2084332286000,8.28,8.66,-0.8,0
26,2084382335000,3.83,13.95,1.46,0
26,2084432262000,-6.66,17.92,0.8,0
26,2084482341000,-3.6,7.44,-1.33,0
26,2084532268000,-1.08,7.7,-0.91,0
26,2084582255000,4.25,9.04,-0.91,0
26,2084632335000,5.63,9.62,-1.14,0
26,2084682292000,2.56,11.6,0.72,0
26,2084682292000,2.56,11.6,0.72,0
26,2084784465000,-0.11,18.2,0.27,0
26,2084842296000,-3.02,14.18,-2.83,0
26,2084892314000,-2.07,7.97,-2.37,0
26,2084942332000,-0.95,3.64,-0.38,0
26,2084992320000,0.38,3.72,-0.15,0
26,2085042369000,1.57,8.47,-1.14,0
26,2085092326000,2.79,13.02,-0.11,0
26,2085142345000,5.33,8.47,-1.33,0
26,2085192332000,9.23,14.79,-4.79,0
26,2085242259000,-1.84,17.82,-1.5,0
26,2085292247000,-9.15,7.21,8.92,0
26,2085342326000,-2.37,7.01,-0.65,0
26,2085392345000,3.17,8.54,-2.34,0
26,2085442332000,6.36,9.15,-1.57,0
26,2085492320000,5.75,9.85,-3.15,0
26,2085542308000,2.26,9.38,1.57,0
26,2085592326000,-0.3,17.92,0.15,0
26,2085642345000,-2.79,16.04,-1.69,0
26,2085692332000,-2.98,10.08,-0.38,0
26,2085742320000,-2.26,8.43,-2.41,0
26,2085792369000,-1.38,6.51,-2.79,0
26,2085842326000,0.84,4.06,-1.33,0
26,2085892345000,2.91,7.97,-0.8,0
26,2085942332000,6.02,9.23,-2.64,0
26,2085992290000,12.18,16.86,-5.33,0
26,2086042339000,-0.65,18.05,2.53,0
26,2086092326000,-7.25,6.02,10.27,0
26,2086142345000,-1.84,5.94,-2.79,0
26,2086192332000,1.92,9.72,-3.17,0
26,2086242290000,6.47,9.11,-0.27,0
26,2086292247000,3.76,4.56,-1.99,0
26,2086342296000,1.92,11.07,0.34,0
26,2086392345000,-0.11,19.08,-0.76,0
26,2086442332000,-0.65,11.99,-2.07,0
26,2086492320000,-1.95,11.3,-0.5,0
26,2086542308000,-1.42,9.38,-1.69,0
26,2086542308000,-1.42,9.38,-1.69,0
26,2086642467000,-0.04,6.63,-1.61,0
26,2086692119000,2.34,7.59,-1.31,0
26,2086742259000,3.76,11.37,-0.8,0
26,2086792308000,6.55,9.92,-2.07,0
26,2086842296000,9.77,17.62,-3.41,0
26,2086892284000,-4.86,16.7,2.26,0
26,2086942332000,-7.35,7.27,2.03,0
26,2086992259000,-2.96,6.17,-0.04,0
26,2087042369000,4.63,10.12,0.27,0
26,2087092357000,7.7,11.26,-1.38,0
26,2087142345000,3.57,4.9,-1.88,0
26,2087192332000,1.61,5.01,-1.5,0
26,2087242290000,1.27,17.01,-2.26,0
26,2087292338000,-2.56,17.69,-0.84,0
26,2087342296000,-1.46,6.89,-0.84,0
26,2087392345000,-2.26,11.5,0.11,0
26,2087442332000,-1.57,10.46,-1.31,0
26,2087492351000,0.69,6.4,-1.73,0
26,2087542308000,1.88,5.56,0.65,0
26,2087592326000,3.49,7.46,-0.42,0
26,2087642345000,6.74,7.82,-1.04,0
26,2087692332000,13.33,13.18,-5.9,0
26,2087762279000,-2.41,18.54,2.34,0
26,2087812266000,-11.73,14.79,5.28,0
26,2087862315000,-3.49,8.85,-3.45,0
26,2087912303000,2.72,11.6,-2.68,0
26,2087962321000,6.17,9.92,-0.5,0
26,2088012248000,6.51,7.82,1.27,0
26,2088062328000,1.8,6.59,2.56,0
26,2088112315000,1.65,11.6,-1.69,0
26,2088162334000,-0.15,18.31,-2.91,0
26,2088212291000,0.19,8.12,-3.02,0
26,2088262309000,-1.33,14.71,-1.95,0
26,2088312328000,-1.23,10.46,-0.08,0
26,2088362315000,-0.8,7.67,1.04,0
26,2088412334000,0.89,9.43,0.08,0
26,2088462291000,0.95,8.08,0.19,0
26,2088512370000,2.79,12.64,-0.42,0
26,2088562328000,4.44,7.08,-1.61,0
26,2088612315000,6.21,9.7,0.31,0
26,2088662334000,2.91,19.19,-4.56,0
26,2088712291000,-1.8,17.43,-0.8,0
26,2088762340000,-2.6,9.72,-0.57,0
26,2088812297000,-3.87,10.0,-4.52,0
26,2088862315000,-3.53,6.28,-3.41,0
26,2088912334000,-4.9,8.28,1.92,0
26,2088962291000,0.65,10.38,5.22,0
26,2089012340000,10.15,9.92,-4.56,0
26,2089062297000,1.12,6.36,-5.6,0
26,2089112346000,-1.04,17.86,4.21,0
26,2089162395000,-4.63,13.21,4.21,0
26,2089212230000,-0.27,7.89,-3.15,0
26,2089262248000,-0.84,8.73,-4.21,0
26,2089312389000,0.19,7.74,-3.45,0
26,2089362315000,0.42,7.7,-3.95,0
26,2089412303000,0.38,11.03,-1.8,0
26,2089462321000,0.23,14.1,9.3,0
26,2089512309000,1.76,10.23,-2.64,0
26,2089562328000,3.64,13.06,1.42,0
26,2089612315000,5.43,11.18,5.41,0
26,2089662303000,4.56,11.03,-2.37,0
26,2089712321000,-1.53,16.7,-7.16,0
26,2089762279000,-1.53,13.38,-7.5,0
26,2089812328000,-0.15,8.2,-5.37,0
26,2089862315000,-0.53,9.0,4.67,0
26,2089912303000,-2.07,5.98,0.76,0
26,2089962291000,-0.72,6.59,-2.18,0
26,2090012279000,1.57,11.69,1.27,0
26,2090062328000,6.55,13.18,2.34,0
26,2090112407000,-2.6,12.68,-2.72,0
26,2090162334000,-4.25,12.07,-1.14,0
26,2090212291000,-2.53,9.19,-0.57,0
26,2090262309000,-2.18,10.42,-2.87,0
26,2090312328000,-0.3,8.47,-2.26,0
26,2090362315000,2.07,9.58,-2.72,0
26,2090412334000,4.86,8.12,3.72,0
26,2090462291000,3.72,6.66,0.76,0
26,2090512340000,3.3,4.6,0.04,0
26,2090562266000,-0.34,8.89,-0.3,0
26,2090612315000,-0.72,12.41,-1.8,0
26,2090662334000,0.93,7.97,-1.69,0
26,2090712291000,5.63,15.21,-1.57,0
26,2090762309000,3.38,18.81,3.76,0
26,2090812297000,-4.82,9.81,-2.6,0
26,2090862346000,-4.29,5.67,-4.99,0
26,2090912303000,-2.18,1.65,-0.34,0
26,2090962291000,3.83,4.25,9.89,0
26,2091012340000,4.21,11.6,-3.21,0
26,2091062297000,3.6,14.82,-2.72,0
26,2091112346000,2.37,7.59,-0.69,0
26,2091162303000,3.3,19.42,1.46,0
26,2091212321000,-1.88,13.91,0.84,0
26,2091262218000,-0.72,11.07,-1.76,0
26,2091312328000,-0.5,10.8,-2.83,0
26,2091362315000,0.38,5.13,-1.18,0
26,2091412303000,1.04,4.9,-1.46,0
26,2091462321000,2.37,6.17,-0.89,0
26,2091512309000,2.98,6.51,-0.38,0
26,2091562328000,3.15,9.08,-1.8,0
26,2091612315000,5.52,12.37,-3.15,0
26,2091662517000,7.89,18.2,-4.1,0
26,2091712291000,-7.7,17.69,7.16,0
26,2091762340000,-5.71,7.63,1.88,0
26,2091812297000,-3.06,7.27,-0.65,0
26,2091862315000,2.18,5.86,-0.89,0
26,2091912303000,5.33,5.83,-0.65,0
26,2091962291000,4.37,8.85,-2.72,0
26,2092012309000,2.6,4.79,-0.76,0
26,2092062297000,3.15,15.94,-0.89,0
26,2092112346000,-0.19,19.31,-2.14,0
26,2092162303000,-1.57,11.54,1.46,0
26,2092212321000,-2.26,11.22,-0.15,0
26,2092262309000,-1.73,8.62,-2.14,0
26,2092312297000,-0.69,3.72,-1.18,0
26,2092362315000,0.69,3.79,-0.8,0
26,2092412303000,1.18,7.74,-0.69,0
26,2092462321000,2.3,12.03,-1.04,0
26,2092512309000,6.21,9.92,-2.98,0
26,2092562297000,9.96,18.96,-4.1,0
26,2092612346000,-4.56,13.76,3.06,0
26,2092662303000,-7.46,8.69,4.4,0
26,2092712321000,-1.73,6.36,0.08,0
26,2092762309000,3.79,6.36,-2.53,0
26,2092812297000,5.33,9.23,-1.53,0
26,2092862376000,3.49,7.82,-2.96,0
26,2092912303000,0.76,10.61,0.72,0
26,2092962321000,0.38,18.39,1.04,0
26,2093012309000,-0.99,16.59,-2.14,0
26,2093062328000,-1.5,11.18,-0.19,0
26,2093112315000,-1.46,9.72,-2.07,0
26,2093162334000,-1.08,6.97,-2.22,0
26,2093212291000,0.5,4.86,-1.18,0
26,2093262309000,1.88,8.24,-0.99,0
26,2093312297000,3.41,9.43,-1.08,0
26,2093362315000,4.94,9.53,-1.46,0
26,2093412303000,8.47,11.88,-2.22,0
26,2093462291000,3.79,18.24,-3.76,0
26,2093512340000,-6.05,15.51,5.28,0
26,2093562297000,-6.97,7.86,2.83,0
26,2093612346000,-2.03,4.1,-0.27,0
26,2093662303000,3.64,9.23,0.53,0
26,2093712321000,6.05,12.26,-1.65,0
26,2093762309000,2.26,6.97,-2.34,0
26,2093812297000,1.5,13.8,-0.3,0
26,2093862346000,0.84,18.92,-1.38,0
26,2093912334000,-0.15,10.84,-0.42,0
26,2093962352000,-1.08,13.91,-0.95,0
26,2094012279000,-0.99,8.85,-1.69,0
26,2094062328000,-0.57,5.05,-1.23,0
26,2094112315000,-0.27,5.01,-0.72,0
26,2094162303000,0.31,6.28,-0.91,0
26,2094232310000,1.65,12.72,-0.57,0
26,2094232310000,1.65,12.72,-0.57,0
26,2094282268000,4.56,9.85,-1.14,0
26,2094332317000,6.7,10.42,-1.31,0
26,2094382274000,3.79,17.92,-3.95,0
26,2094432384000,-4.75,12.34,1.84,0
26,2094482280000,-7.12,7.35,3.53,0
26,2094532329000,-0.84,5.79,-0.99,0
26,2094582286000,5.05,8.77,0.95,0
26,2094632274000,5.22,11.99,-1.08,0
26,2094682323000,1.84,7.35,-1.27,0
26,2094732280000,0.53,9.62,-0.53,0
26,2094782298000,0.53,17.69,-0.84,0
26,2094832286000,-0.5,15.55,-0.89,0
26,2094882274000,-0.3,12.98,-1.38,0
26,2094932323000,-0.72,10.0,-2.68,0
26,2094982310000,-0.84,6.4,-0.27,0
26,2095032268000,0.53,6.74,-0.46,0
26,2095082347000,2.07,8.77,-0.38,0
26,2095132274000,2.37,6.59,-0.95,0
26,2095182323000,3.38,8.92,-0.69,0
26,2095232280000,5.71,8.81,-1.95,0
26,2095292308000,5.13,14.82,-3.68,0
26,2095342326000,-2.64,15.6,0.93,0
26,2095392345000,-3.36,10.88,-0.15,0
26,2095442332000,-3.53,7.78,-0.65,0
26,2095492290000,-0.53,7.78,3.72,0
26,2095542308000,-0.84,6.74,0.08,0
26,2095592326000,0.95,12.6,0.46,0
26,2095642345000,8.85,12.87,-4.1,0
26,2095692332000,6.85,11.18,-3.11,0
26,2095742320000,2.03,18.47,4.67,0
26,2095792338000,-1.99,15.02,2.79,0
26,2095842326000,-1.73,16.4,-7.04,0
26,2095892345000,-6.17,11.07,-9.58,0
26,2095942332000,-2.87,1.42,-3.98,0
26,2095992320000,-1.84,7.59,-1.88,0
26,2096042338000,-1.04,15.79,10.57,0
26,2096092326000,1.5,9.92,-3.17,0
26,2096142345000,0.95,9.51,-3.26,0
26,2096192332000,4.14,12.6,2.76,0
26,2096242290000,2.26,13.63,-0.8,0
26,2096292338000,4.6,10.38,-1.46,0
26,2096342326000,4.14,11.3,-3.15,0
26,2096392375000,-1.42,15.13,-5.48,0
26,2096442332000,-3.17,12.45,-4.06,0
26,2096492320000,-0.8,9.62,-3.98,0
26,2096542308000,4.56,10.15,-2.26,0
26,2096592296000,-3.11,9.23,0.84,0
26,2096642345000,-3.76,6.21,-4.59,0
26,2096692332000,-5.33,6.05,0.08,0
26,2096742320000,4.82,13.67,7.89,0
26,2096792338000,13.44,13.38,-5.6,0
26,2096842326000,-0.23,3.83,-3.26,0
26,2096892345000,-0.38,11.37,-2.3,0
26,2096942332000,2.26,15.75,2.79,0
26,2096992320000,-1.46,6.13,0.15,0
26,2097042338000,-1.88,10.76,-3.06,0
26,2097092296000,-2.91,11.6,-4.33,0
26,2097142345000,-1.23,8.35,-3.11,0
26,2097192363000,1.04,7.59,-2.56,0
26,2097242290000,4.63,8.24,1.61,0
26,2097292338000,5.48,6.24,4.02,0
26,2097342326000,3.64,5.94,-0.46,0
26,2097392345000,0.42,10.84,-0.69,0
26,2097442332000,0.46,12.64,-2.37,0
26,2097492320000,3.6,9.15,-3.36,0
26,2097542735000,5.9,17.2,-4.82,0
26,2097592326000,-3.11,16.55,1.92,0
26,2097642345000,-5.28,8.47,2.68,0
26,2097692332000,-1.73,5.98,-0.42,0
26,2097742320000,0.89,5.37,-0.57,0
26,2097792461000,3.49,5.24,-0.53,0
26,2097842296000,3.49,10.31,-1.57,0
26,2097892345000,3.64,9.92,-2.72,0
26,2097942332000,3.06,16.63,-0.3,0
26,2097992290000,-0.38,17.27,0.8,0
26,2098042338000,-1.27,10.46,-0.15,0
26,2098092296000,-1.95,14.06,-3.06,0
26,2098142345000,-1.69,9.11,-1.84,0
26,2098192332000,-0.99,3.53,-1.08,0
26,2098242320000,0.19,2.37,-0.8,0
26,2098292338000,0.5,7.16,-1.69,0
26,2098342326000,1.69,13.67,-1.88,0
26,2098392345000,6.13,9.23,-3.6,0
26,2098442363000,7.86,11.5,-2.34,0
26,2098492320000,7.12,19.11,-3.17,0
26,2098542308000,-9.23,14.75,10.53,0
26,2098592357000,-4.4,6.82,0.84,0
26,2098642345000,0.11,7.27,-1.04,0
26,2098692332000,3.49,6.85,-3.49,0
26,2098742351000,4.52,10.46,-0.34,0
26,2098792338000,3.06,5.83,-1.46,0
26,2098842326000,2.45,10.8,0.04,0
26,2098892345000,1.57,18.62,-0.34,0
26,2098942332000,-0.23,19.23,-0.38,0
26,2098992320000,-1.92,11.69,-1.73,0
26,2099042338000,-3.68,10.0,-2.98,0
26,2099092296000,-2.64,6.85,-2.07,0
26,2099142345000,-1.42,4.4,-0.34,0
26,2099192332000,0.04,5.79,-0.38,0
26,2099242320000,0.93,10.38,-1.57,0
26,2099292369000,3.41,12.83,-1.84,0
26,2099342326000,6.63,9.58,-2.26,0
26,2099392345000,9.43,13.57,-2.34,0
26,2099442332000,0.0,16.32,1.54,0
26,2099492320000,-7.78,11.14,-0.57,0
26,2099562328000,-3.02,5.83,-0.57,0
26,2099612254000,2.83,8.2,-2.03,0
26,2099662395000,4.94,10.0,-1.61,0
26,2099712260000,4.56,11.3,-1.38,0
26,2099762309000,2.53,8.2,0.23,0
26,2099812328000,0.99,16.36,-0.04,0
26,2099862315000,-1.31,18.7,-1.53,0
26,2099912364000,-1.57,12.37,-1.08,0
26,2099962291000,-2.49,9.66,-1.61,0
26,2100012248000,-2.11,6.63,-1.61,0
26,2100062328000,-1.08,4.33,-0.8,0
26,2100112315000,0.34,7.31,-0.57,0
26,2100162303000,2.22,10.19,-1.61,0
26,2100212291000,4.1,9.51,-1.27,0
26,2100262248000,6.74,10.69,-1.92,0
26,2100312328000,9.66,18.89,-3.87,0
26,2100362315000,-6.09,13.18,5.6,0
26,2100412334000,-6.02,8.47,0.08,0
26,2100462291000,-2.3,5.52,-1.46,0
26,2100512309000,2.41,5.94,0.46,0
26,2100562297000,5.79,10.23,1.14,0
26,2100612315000,2.53,13.91,-2.53,0
26,2100662334000,1.76,7.08,-1.33,0
26,2100712291000,2.83,16.4,-1.38,0
26,2100762309000,0.27,13.95,-1.14,0
26,2100812297000,-1.76,11.84,-0.76,0
26,2100862346000,-1.73,13.72,-0.42,0
26,2100912303000,-0.46,6.32,-1.04,0
26,2100962291000,0.65,5.56,-0.99,0
26,2101012309000,2.53,8.85,-1.5,0
26,2101062297000,3.57,7.4,-1.23,0
26,2101112346000,3.6,10.73,-1.95,0
26,2101162334000,5.43,8.35,-2.87,0
26,2101212321000,6.7,12.72,-1.73,0
26,2101262309000,-8.43,15.02,3.34,0
26,2101312297000,-6.59,9.89,-1.61,0
26,2101362315000,-1.31,10.53,0.15,0
26,2101412303000,8.28,11.84,0.04,0
26,2101462321000,7.46,13.59,-1.53,0
26,2101512309000,2.45,6.32,-0.42,0
26,2101562297000,1.33,3.76,-1.61,0
26,2101612315000,0.84,9.81,-2.68,0
26,2101662334000,-0.84,19.5,-4.75,0
26,2101712291000,-2.68,10.92,2.11,0
26,2101762309000,-1.8,10.12,0.46,0
26,2101812328000,1.38,11.37,-1.46,0
26,2101862315000,1.76,8.24,-1.23,0
26,2101912334000,2.98,8.73,-1.23,0
26,2101962321000,3.57,5.6,-0.8,0
26,2102012309000,5.52,4.1,0.11,0
26,2102062328000,3.06,14.63,-2.26,0
26,2102112376000,-2.53,18.85,-4.75,0
26,2102162303000,-4.71,9.19,-1.23,0
26,2102212321000,-6.63,7.08,6.4,0
26,2102262401000,-1.12,7.59,1.33,0
26,2102312328000,-0.23,9.28,3.11,0
26,2102362346000,9.92,13.21,-2.56,0
26,2102412334000,5.43,6.36,-3.57,0
26,2102462749000,4.82,15.94,0.84,0
26,2102462749000,4.82,15.94,0.84,0
26,2102462749000,4.82,15.94,0.84,0
26,2102582469000,-0.57,16.13,4.14,0
26,2102632640000,-5.41,15.09,-7.7,0
26,2102682231000,-2.87,3.99,-4.86,0
26,2102732310000,-2.26,4.6,-1.76,0
26,2102782298000,-0.8,9.19,-2.3,0
26,2102832347000,1.76,15.47,-0.5,0
26,2102882274000,-0.11,11.88,6.66,0
26,2102932353000,1.95,10.99,-2.64,0
26,2102982310000,3.87,11.11,-0.04,0
26,2103032329000,4.14,11.65,-0.27,0
26,2103082347000,4.44,9.66,-0.72,0
26,2103132304000,4.1,12.11,-0.08,0
26,2103182353000,-2.98,18.09,-8.43,0
26,2103232310000,-4.63,11.84,-5.52,0
26,2103282329000,0.46,8.81,-3.49,0
26,2103332317000,2.34,7.63,3.11,0
26,2103382304000,-0.69,7.97,-6.97,0
26,2103432811000,-5.13,8.73,-1.42,0
26,2103492320000,-0.23,8.2,3.6,0
26,2103542339000,5.6,11.6,1.57,0
26,2103592326000,4.48,7.63,-5.71,0
26,2103642345000,4.02,8.81,-3.76,0
26,2103692332000,1.12,10.65,-0.69,0
26,2103742320000,5.05,19.31,-0.69,0
26,2103792338000,-3.83,7.16,3.68,0
26,2103842357000,-2.53,8.28,-1.84,0
26,2103892345000,-1.95,12.37,-1.5,0
26,2103942332000,1.46,10.73,-4.02,0
26,2103992320000,2.6,9.11,-3.11,0
26,2104042339000,1.57,8.08,-3.3,0
26,2104092326000,3.17,8.5,2.53,0
26,2104142345000,4.67,8.66,3.76,0
26,2104192363000,3.79,5.28,0.8,0
26,2104242320000,1.57,9.92,-0.8,0
26,2104292338000,-0.11,11.69,-2.03,0
26,2104342418000,0.89,9.92,-1.69,0
26,2104392375000,5.18,12.3,-6.17,0
26,2104442332000,3.6,18.62,-0.42,0
26,2104492320000,-5.13,14.1,1.99,0
26,2104542369000,-2.45,8.43,-1.27,0
26,2104592326000,-0.57,5.24,1.84,0
26,2104642314000,-0.11,4.79,0.11,0
26,2104692302000,1.57,5.48,-0.99,0
26,2104742320000,5.52,11.37,-0.95,0
26,2104792338000,5.22,9.53,-2.49,0
26,2104842326000,2.37,3.21,-0.3,0
26,2104892345000,2.79,15.83,-0.8,0
26,2104942332000,-1.53,19.04,-2.03,0
26,2104992320000,-1.31,9.34,0.5,0
26,2105042339000,-2.49,9.19,-1.76,0
26,2105092326000,-1.04,9.3,-2.3,0
26,2105142345000,0.27,4.63,-1.08,0
26,2105192363000,1.92,4.75,-0.99,0
26,2105242320000,3.83,11.54,-1.73,0
26,2105292369000,4.94,9.28,-0.8,0
26,2105342357000,7.21,11.92,-1.65,0
26,2105392345000,0.65,19.08,-0.08,0
26,2105442332000,-6.02,8.77,1.12,0
26,2105492320000,-5.82,6.13,0.15,0
26,2105542339000,-1.33,4.06,-0.91,0
26,2105592326000,6.59,12.72,-1.23,0
26,2105642375000,7.08,10.61,-2.56,0
26,2105692332000,3.72,8.31,2.49,0
26,2105742320000,1.61,17.86,-2.6,0
26,2105792369000,-0.76,12.83,-1.12,0
26,2105842326000,-2.34,10.5,-0.23,0
26,2105892345000,-1.73,10.8,-1.57,0
26,2105942332000,-0.57,8.62,-2.56,0
26,2105992320000,1.08,7.82,-1.33,0
26,2106042339000,3.68,7.4,-2.56,0
26,2106092326000,4.75,3.02,-1.14,0
26,2106142345000,6.59,4.9,0.31,0
26,2106192332000,-1.38,13.38,-3.11,0
26,2106242320000,-8.16,17.2,2.53,0
26,2106292338000,1.33,8.58,-1.31,0
26,2106342326000,7.67,9.58,-3.02,0
26,2106392345000,8.5,8.08,-1.5,0
26,2106442363000,4.29,10.12,2.87,0
26,2106492320000,0.08,19.19,-3.3,0
26,2106542339000,-1.46,11.8,-0.69,0
26,2106592326000,-1.42,12.91,-1.18,0
26,2106642345000,-1.27,8.12,-2.53,0
26,2106692332000,-0.3,4.94,-1.88,0
26,2106742320000,0.84,8.43,-1.23,0
26,2106792338000,4.94,8.16,0.0,0
26,2106842326000,7.93,15.05,0.04,0
26,2106892345000,-4.25,11.73,0.34,0
26,2106942393000,-5.6,8.62,-0.11,0
26,2106992320000,-0.99,8.2,0.23,0
26,2107042369000,7.25,9.77,-1.76,0
26,2107092326000,7.82,13.57,-1.27,0
26,2107142345000,3.83,4.99,-0.46,0
26,2107192332000,-0.61,10.23,1.99,0
26,2107242320000,0.76,19.0,-3.17,0
26,2107292338000,-2.37,11.37,-2.45,0
26,2107342326000,-1.76,8.54,-1.53,0
26,2107392345000,-1.23,12.03,-2.53,0
26,2107442332000,1.88,8.96,-1.5,0
26,2107492351000,4.48,8.96,-0.95,0
26,2107542339000,8.35,6.24,-0.23,0
26,2107592326000,2.87,5.05,3.45,0
26,2107642345000,-1.33,14.48,-5.37,0
26,2107692363000,-7.08,14.52,-0.38,0
26,2107742320000,-2.14,6.97,0.08,0
26,2107792338000,5.48,10.38,1.5,0
26,2107842357000,6.82,9.15,-0.11,0
26,2107892345000,2.3,2.26,-1.12,0
26,2107942332000,1.38,15.36,-0.61,0
26,2107992351000,-1.46,16.89,-1.08,0
26,2108042339000,-2.45,10.12,-0.3,0
26,2108092326000,0.65,12.26,-2.18,0
26,2108142375000,3.64,10.31,-2.37,0
26,2108192332000,4.9,5.67,-3.17,0
26,2108242320000,5.09,1.57,1.5,0
26,2108292338000,4.63,2.53,6.74,0
26,2108342326000,3.72,15.83,-7.35,0
26,2108392345000,-4.59,17.5,-3.98,0
26,2108442363000,-6.82,6.66,5.37,0
26,2108492320000,-3.57,7.78,0.34,0
26,2108542369000,0.95,12.03,0.42,0
26,2108592326000,13.67,12.72,0.53,0
26,2108642345000,10.73,6.13,-5.9,0
26,2108692363000,1.38,19.27,1.8,0
26,2108742351000,-2.64,17.77,5.09,0
26,2108792338000,-1.14,17.62,-6.17,0
26,2108842326000,-6.28,13.59,-9.11,0
26,2108892345000,-2.18,3.72,-4.06,0
26,2108942363000,-0.91,5.05,-1.8,0
26,2108992320000,0.11,9.47,-0.89,0
26,2109042400000,2.53,14.71,10.99,0
26,2109092326000,3.11,9.34,-2.75,0
26,2109142345000,4.52,13.59,0.99,0
26,2109192332000,2.72,14.02,-0.65,0
26,2109242320000,4.82,11.45,-1.76,0
26,2109292338000,5.05,9.53,-1.88,0
26,2109342326000,1.8,15.55,-2.6,0
26,2109392345000,-0.72,17.05,-7.78,0
26,2109442332000,-1.69,10.95,-8.66,0
26,2109492320000,-2.64,8.89,-3.36,0
26,2109542338000,-4.71,9.7,5.13,0
26,2109592326000,-4.56,5.79,-3.57,0
26,2109642345000,-4.18,8.12,9.15,0
26,2109692332000,8.54,14.33,-3.36,0
26,2109742320000,9.3,8.39,-1.53,0
26,2109792338000,0.46,1.5,-4.06,0
26,2109842326000,0.57,16.89,-2.91,0
26,2109892345000,0.15,12.26,2.41,0
26,2109942332000,-3.02,7.35,0.93,0
26,2109992290000,-3.68,5.63,-2.91,0
26,2110062328000,-0.8,5.63,-2.91,0
26,2110112254000,3.17,7.21,-0.65,0
26,2110162364000,4.14,7.59,1.31,0
26,2110212260000,4.06,6.28,0.69,0
26,2110262279000,0.15,10.31,0.08,0
26,2110312328000,2.26,11.26,-0.72,0
26,2110362315000,4.86,9.19,-1.38,0
26,2110412303000,6.13,11.07,-0.61,0
26,2110462321000,-2.68,19.08,-2.11,0
26,2110512340000,-4.33,5.86,1.46,0
26,2110562297000,-1.04,3.45,-2.6,0
26,2110612346000,1.65,6.55,-0.53,0
26,2110662334000,4.56,8.73,0.08,0
26,2110712291000,6.44,14.33,-1.14,0
26,2110762340000,4.44,6.63,-0.27,0
26,2110812328000,-0.11,13.14,3.72,0
26,2110862315000,2.64,17.08,-2.41,0
26,2110912334000,-0.95,10.08,-1.46,0
26,2110962291000,-1.04,10.69,-1.88,0
26,2111012279000,-1.73,9.11,-2.72,0
26,2111062297000,-0.15,4.99,-1.92,0
26,2111112346000,1.46,7.08,-1.04,0
26,2111162303000,3.17,9.15,0.53,0
26,2111212291000,5.86,8.43,-1.31,0
26,2111262370000,7.67,11.8,-0.99,0
26,2111312297000,4.29,19.08,-5.52,0
26,2111362346000,-7.78,10.65,4.1,0
26,2111412303000,-4.86,5.9,0.27,0
26,2111462291000,-1.08,7.46,-0.11,0
26,2111512340000,6.78,10.5,-0.3,0
26,2111562297000,6.85,10.53,-1.27,0
26,2111612346000,3.15,4.94,-2.07,0
26,2111662669000,1.76,10.08,-0.11,0
26,2111712321000,-0.08,18.58,-1.73,0
26,2111762309000,0.53,14.02,-1.38,0
26,2111812297000,-1.14,10.8,0.15,0
26,2111862315000,-0.8,9.58,-1.84,0
26,2111912273000,-0.8,7.31,-2.79,0
26,2111962321000,0.89,6.17,-1.31,0
26,2112012279000,4.4,7.08,-3.68,0
26,2112062328000,7.16,8.12,-2.56,0
26,2112112315000,-0.15,17.39,2.45,0
26,2112162395000,-6.21,11.88,0.99,0
26,2112212291000,-1.99,7.97,-1.33,0
26,2112262309000,5.01,11.35,-1.73,0
26,2112312328000,8.01,12.76,-0.99,0
26,2112362315000,2.64,5.41,0.38,0
26,2112412334000,1.33,5.28,-0.72,0
26,2112462291000,0.69,14.48,-1.27,0
26,2112512340000,0.0,17.47,-4.4,0
26,2112562297000,-0.95,10.95,0.42,0
26,2112612346000,-0.84,12.18,-1.53,0
26,2112662334000,0.69,10.34,-2.91,0
26,2112712291000,4.48,4.44,-2.6,0
26,2112762340000,6.28,3.53,1.46,0
26,2112812297000,1.27,10.12,-0.95,0
26,2112862376000,-5.67,15.43,-0.99,0
26,2112912303000,-3.53,10.88,-1.8,0
26,2112962291000,2.56,10.38,-0.76,0
26,2113012309000,6.44,11.26,0.46,0
26,2113062297000,5.22,2.87,0.23,0
26,2113112346000,3.06,4.63,1.04,0
26,2113162425000,1.65,19.57,-7.27,0
26,2113212321000,-0.61,10.99,0.08,0
26,2113262309000,-2.96,11.69,0.42,0
26,2113312328000,-1.04,11.73,-4.56,0
26,2113362315000,3.72,5.48,-6.02,0
26,2113412303000,7.44,4.56,1.42,0
26,2113462321000,1.65,7.97,6.93,0
26,2113512309000,-4.33,18.47,-2.91,0
26,2113562297000,-1.88,12.26,-0.8,0
26,2113612315000,4.18,9.81,-1.92,0
26,2113662334000,6.17,11.35,-0.89,0
26,2113712291000,2.96,3.6,-0.34,0
26,2113762309000,1.18,1.99,1.14,0
26,2113812328000,4.67,16.04,-0.38,0
26,2113862315000,-4.06,18.62,-1.84,0
26,2113912334000,-1.5,7.86,-0.57,0
26,2113962291000,0.19,11.75,-3.15,0
26,2114012279000,2.96,7.82,-3.57,0
26,2114062328000,4.56,3.45,-3.64,0
26,2114112315000,2.91,0.99,1.08,0
26,2114162303000,3.38,8.12,0.76,0
26,2114212291000,-5.6,19.57,-2.34,0
26,2114262309000,-4.56,9.62,0.11,0
26,2114312297000,-4.82,4.14,4.1,0
26,2114362346000,6.44,16.4,3.06,0
26,2114412303000,12.45,13.18,-5.82,0
26,2114462291000,5.52,11.56,-4.1,0
26,2114512370000,-3.36,16.86,4.63,0
26,2114562297000,-0.11,18.2,0.84,0
26,2114612346000,-2.68,14.94,-5.37,0
26,2114662303000,-3.83,10.46,-5.33,0
26,2114712321000,-1.69,5.71,-1.46,0
26,2114762309000,0.19,6.55,-1.8,0
26,2114812297000,2.22,10.34,-0.23,0
26,2114862315000,1.95,9.51,5.67,0
26,2114912303000,3.6,13.48,1.84,0
26,2114962291000,2.64,13.18,-0.57,0
26,2115012309000,3.72,11.6,-2.87,0
26,2115062297000,4.52,12.18,-2.18,0
26,2115062297000,4.52,12.18,-2.18,0
26,2115132274000,-0.08,16.89,-7.08,0
26,2115182292000,-3.57,10.57,-6.09,0
26,2115232310000,-2.45,7.12,-2.79,0
26,2115282329000,-0.42,9.19,4.48,0
26,2115332286000,-4.25,7.7,-4.99,0
26,2115382274000,-4.71,7.4,-0.91,0
26,2115432323000,-0.8,9.89,7.46,0
26,2115482280000,12.87,13.63,-6.89,0
26,2115532329000,6.24,6.82,-2.3,0
26,2115582286000,-0.57,8.5,-2.96,0
26,2115632274000,2.22,18.92,1.14,0
26,2115682262000,-2.79,8.85,3.02,0
26,2115732280000,-1.53,8.89,-3.02,0
26,2115782329000,-2.87,12.03,-3.64,0
26,2115832286000,0.53,7.89,-2.96,0
26,2115882335000,1.61,8.54,-2.49,0
26,2115932262000,3.06,8.85,-2.83,0
26,2115982310000,3.76,7.55,0.93,0
26,2116032329000,4.99,5.79,6.51,0
26,2116082286000,0.65,9.11,1.38,0
26,2116132274000,-0.23,12.6,-1.14,0
26,2116182323000,0.72,10.76,-2.26,0
26,2116232310000,4.9,7.86,-5.82,0
26,2116282329000,6.21,14.44,-3.83,0
26,2116332286000,-5.01,17.12,3.91,0
26,2116382426000,-5.2,6.02,5.33,0
26,2116432323000,-0.5,6.24,0.0,0
26,2116482280000,2.83,6.09,-1.12,0
26,2116532329000,3.57,8.54,0.11,0
26,2116582286000,3.91,10.34,-3.3,0
26,2116632335000,4.99,10.84,-0.8,0
26,2116682262000,3.26,19.04,-2.37,0
26,2116732280000,-0.19,12.49,0.8,0
26,2116782329000,-1.65,12.11,0.23,0
26,2116832286000,-1.08,8.66,-2.41,0
26,2116882335000,-0.23,7.06,-1.57,0
26,2116932262000,1.33,6.51,-1.42,0
26,2116982280000,2.68,5.83,-1.12,0
26,2117032329000,5.48,8.24,-2.83,0
26,2117082286000,8.96,14.48,-4.75,0
26,2117132335000,-1.53,17.24,2.72,0
26,2117182262000,-6.93,9.38,5.01,0
26,2117232341000,-1.08,9.04,-0.38,0
26,2117282268000,5.28,8.96,-1.65,0
26,2117332347000,7.89,11.3,0.19,0
26,2117382335000,4.67,6.13,-0.84,0
26,2117432292000,1.69,7.67,-0.34,0
26,2117482310000,-0.3,17.39,-1.08,0
26,2117482310000,-0.3,17.39,-1.08,0
26,2117592143000,-1.69,12.15,-0.76,0
26,2117642192000,-1.33,8.5,-1.65,0
26,2117692241000,-0.76,6.47,-2.03,0
26,2117742259000,1.8,5.24,-1.42,0
26,2117792338000,3.99,10.38,-0.99,0
26,2117842326000,6.21,7.12,-1.99,0
26,2117892345000,8.73,11.8,-2.11,0
26,2117942332000,-3.36,14.98,1.14,0
26,2117992290000,-6.47,12.76,0.04,0
26,2118042339000,-1.38,7.86,-1.04,0
26,2118092326000,4.29,11.84,-0.95,0
26,2118142345000,5.37,11.6,-0.65,0
26,2118192332000,1.76,1.95,-1.12,0
26,2118242320000,1.14,4.1,-0.89,0
26,2118292338000,3.38,19.08,-2.49,0
26,2118342326000,0.11,12.95,-0.34,0
26,2118392345000,-2.03,9.72,0.38,0
26,2118442424000,-1.65,11.96,-1.73,0
26,2118492320000,0.0,7.78,-1.84,0
26,2118542339000,2.53,5.98,-1.27,0
26,2118592326000,6.24,6.09,-3.76,0
26,2118642345000,6.7,9.34,-3.72,0
26,2118692332000,-4.79,18.12,0.57,0
26,2118742808000,-5.71,8.96,1.8,0
26,2118792338000,1.27,10.15,0.84,0
26,2118842326000,5.37,11.26,-0.23,0
26,2118892345000,6.55,12.22,-1.92,0
26,2118942332000,2.6,3.15,-1.12,0
26,2118992290000,1.92,9.47,-1.18,0
26,2119042339000,1.08,18.85,-3.06,0
26,2119092326000,-1.04,11.5,-0.95,0
26,2119142345000,-1.99,12.6,-0.08,0
26,2119192332000,-1.27,8.77,-2.07,0
26,2119242320000,0.53,7.67,-1.84,0
26,2119292308000,3.76,7.67,-1.42,0
26,2119342326000,5.56,5.9,-2.18,0
26,2119392345000,4.25,11.41,0.38,0
26,2119442363000,-5.48,12.11,-1.99,0
26,2119492320000,-5.71,10.73,-0.5,0
26,2119542339000,4.33,11.45,-0.15,0
26,2119592326000,9.19,16.4,-0.99,0
26,2119642345000,4.99,6.09,0.23,0
26,2119692332000,0.93,1.57,0.38,0
26,2119742320000,1.8,9.51,-3.11,0
26,2119792338000,-0.11,19.46,-3.76,0
26,2119842326000,-2.87,10.99,0.72,0
26,2119892345000,-0.53,11.99,-1.04,0
26,2119942332000,1.18,12.11,-2.79,0
26,2119992290000,2.26,9.19,-1.5,0
26,2120042339000,3.87,8.43,-1.53,0
26,2120092326000,4.94,3.53,-0.11,0
26,2120142345000,5.48,3.64,3.79,0
26,2120192332000,2.07,12.53,-6.09,0
26,2120242290000,-4.44,18.62,-4.33,0
26,2120292338000,-4.79,9.47,-1.23,0
26,2120342326000,-8.85,8.05,10.12,0
26,2120392345000,4.18,13.99,3.45,0
26,2120512340000,5.43,5.24,-3.79,0
26,2120512340000,5.43,5.24,-3.79,0
26,2120562236000,1.54,19.57,2.22,0
26,2120612346000,-3.83,15.32,5.86,0
26,2120662273000,-0.15,9.19,-2.68,0
26,2120712291000,-3.49,8.58,-9.62,0
26,2120762340000,-1.12,4.9,-4.82,0
26,2120812297000,0.42,9.3,-2.22,0
26,2120862315000,4.56,14.94,3.57,0
26,2120912334000,3.6,11.54,3.11,0
26,2120962291000,3.87,12.22,-3.11,0
26,2121012340000,5.09,12.03,1.99,0
26,2121062297000,4.71,10.84,1.14,0
26,2121112346000,0.53,18.47,-8.81,0
26,2121162303000,0.11,14.25,-12.3,0
26,2121212291000,-0.46,8.89,-6.51,0
26,2121262248000,-4.67,11.07,0.27,0
26,2121312297000,-5.67,6.13,2.45,0
26,2121362346000,-5.6,6.09,0.99,0
26,2121412303000,4.52,12.34,6.24,0
26,2121462321000,12.79,12.83,-7.78,0
26,2121512309000,3.99,4.21,-2.72,0
26,2121562297000,1.88,15.79,-7.04,0
26,2121612315000,-4.9,13.29,9.72,0
26,2121662303000,-2.79,10.53,-0.5,0
26,2121712321000,-2.6,11.88,-3.95,0
26,2121762309000,-2.64,7.82,-2.37,0
26,2121812328000,1.12,7.4,-4.71,0
26,2121862315000,2.18,9.89,-3.11,0
26,2121912303000,2.83,7.74,1.14,0
26,2121962321000,3.64,5.9,0.27,0
26,2122012279000,3.72,8.01,1.5,0
26,2122062297000,0.04,13.25,-0.15,0
26,2122112346000,1.57,11.3,-0.72,0
26,2122162303000,3.83,6.89,-1.69,0
26,2122212291000,4.02,6.74,-3.72,0
26,2122262553000,-2.07,17.35,-4.44,0
26,2122312297000,-6.89,12.07,1.84,0
26,2122362346000,-2.83,7.46,2.79,0
26,2122412303000,3.49,7.59,0.27,0
26,2122462321000,5.75,10.27,0.19,0
26,2122512309000,5.09,10.61,-3.26,0
26,2122562328000,2.96,6.59,-0.23,0
26,2122612315000,0.27,18.05,1.54,0
26,2122662303000,1.42,13.91,-1.95,0
26,2122712291000,-1.8,9.7,-0.72,0
26,2122762309000,-1.46,10.69,-1.8,0
26,2122812328000,-1.92,8.12,-2.34,0
26,2122862315000,0.34,2.87,0.11,0
26,2122912334000,2.22,9.3,-0.95,0
26,2122962291000,5.09,10.46,-2.72,0
26,2123012309000,7.82,9.81,-3.64,0
26,2123062297000,5.98,17.47,-1.65,0
26,2123112315000,-7.21,13.59,2.83,0
26,2123162303000,-5.05,7.25,-0.69,0
26,2123212291000,-1.33,7.35,-0.19,0
26,2123262340000,6.44,9.23,-0.15,0
26,2123312297000,7.27,11.03,-0.11,0
26,2123362315000,2.15,7.74,-1.76,0
26,2123412334000,1.23,8.08,-0.5,0
26,2123412334000,1.23,8.08,-0.5,0
26,2123482402000,0.08,19.31,-2.83,0
26,2123532237000,-0.3,10.08,-2.03,0
26,2123582378000,-1.65,9.62,0.34,0
26,2123632335000,-1.73,9.89,-1.27,0
26,2123682262000,-0.08,5.86,-2.41,0
26,2123732280000,1.99,6.97,-0.89,0
26,2123782329000,3.64,9.34,-0.99,0
26,2123832286000,6.05,9.85,-2.98,0
26,2123882335000,11.65,17.5,-4.21,0
26,2123932262000,-3.57,14.71,4.14,0
26,2123982371000,-7.12,10.38,2.18,0
26,2124032268000,-2.26,7.08,-1.95,0
26,2124082286000,0.61,6.7,-1.31,0
26,2124132335000,4.79,10.5,-1.73,0
26,2124182262000,7.82,13.33,-1.08,0
26,2124232341000,2.68,4.63,0.19,0
26,2124282390000,1.84,10.61,-0.19,0
26,2124332347000,-0.69,17.47,-2.75,0
26,2124382274000,-1.95,14.67,-4.59,0
26,2124432262000,-1.92,10.61,1.27,0
26,2124482341000,-1.04,10.08,-0.69,0
26,2124532268000,0.42,7.4,-2.87,0
26,2124582439000,2.45,7.89,-1.33,0
26,2124632335000,5.52,6.85,-2.87,0
26,2124682323000,9.72,13.18,-2.87,0
26,2124732280000,-3.21,16.89,5.48,0
26,2124782268000,-4.33,7.7,-0.3,0
26,2124832347000,-2.22,7.74,-3.15,0
26,2124882274000,0.76,10.92,-1.33,0
26,2124932323000,6.09,12.49,-0.95,0
26,2124982280000,5.6,8.54,-0.57,0
26,2125032329000,1.04,4.67,0.23,0
26,2125082286000,1.73,12.15,-0.5,0
26,2125132274000,1.69,17.16,-3.49,0
26,2125182353000,-0.42,12.72,-2.22,0
26,2125232310000,-1.08,12.34,0.31,0
26,2125292308000,-0.99,9.23,-1.92,0
26,2125342296000,0.76,6.36,-1.92,0
26,2125392345000,3.83,7.35,-2.68,0
26,2125442332000,6.66,7.27,-2.37,0
26,2125492320000,2.53,16.13,3.83,0
26,2125542308000,-4.63,9.7,-0.99,0
26,2125612315000,-2.75,11.03,-2.68,0
26,2125662273000,1.99,9.77,0.15,0
26,2125712352000,5.33,13.02,1.88,0
26,2125762309000,4.56,8.58,-0.69,0
26,2125812358000,1.31,6.13,-0.15,0
26,2125862315000,0.38,12.98,-1.12,0
26,2125912303000,0.69,16.09,-2.22,0
26,2125962321000,-0.95,13.76,-2.3,0
26,2126012248000,-1.14,10.73,0.23,0
26,2126062328000,-2.49,8.66,-0.42,0
26,2126112346000,-1.95,7.4,-1.08,0
26,2126162334000,-2.72,11.07,2.22,0
26,2126212291000,2.72,12.45,2.37,0
26,2126262279000,6.89,5.41,-1.8,0
26,2126312328000,-4.37,9.04,-0.99,0
26,2126362315000,-7.86,11.54,0.72,0
26,2126412334000,-9.49,11.6,-1.12,0
26,2126462291000,-2.68,11.5,1.33,0
26,2126512309000,-1.53,12.45,-0.27,0
26,2126562297000,2.41,6.32,-1.38,0
26,2126612346000,-2.79,7.86,5.28,0
26,2126662303000,2.56,4.06,0.23,0
26,2148132365000,5.41,15.89,0.08,4
26,2148182323000,0.08,10.12,-0.04,4
26,2148232371000,3.11,8.12,-0.46,4
26,2148282298000,3.06,5.94,-0.46,4
26,2148332347000,2.6,1.92,-0.42,4
26,2148382365000,4.29,0.89,0.0,4
26,2148432292000,8.01,0.27,0.46,4
26,2148512370000,13.87,4.29,3.21,4
26,2148512370000,13.87,4.29,3.21,4
26,2148562663000,11.84,6.55,2.37,4
26,2148612285000,5.22,8.08,-1.53,4
26,2148712291000,5.13,8.54,-1.38,4
26,2148712291000,5.13,8.54,-1.38,4
26,2148772258000,4.94,8.47,-1.18,4
26,2148822337000,3.3,8.5,-2.41,4
26,2148872325000,4.25,8.5,-2.14,4
26,2148922343000,6.44,11.14,-3.11,4
26,2148972331000,8.01,10.34,-2.07,4
26,2149022319000,11.11,7.86,-12.45,4
26,2149072337000,-2.3,11.18,5.6,4
26,2149133891000,-2.91,13.87,-7.25,4
26,2149182262000,2.49,16.47,-2.03,4
26,2149232280000,4.79,12.41,-2.18,4
26,2149282329000,5.6,8.66,-3.79,4
26,2149332866000,7.82,6.32,-2.87,4
26,2149332866000,7.82,6.32,-2.87,4
26,2149422374000,6.02,11.37,0.65,4
26,2149472270000,-1.99,16.97,-0.99,4
26,2149522288000,4.86,9.51,-2.22,4
26,2149572337000,8.01,8.5,-0.99,4
26,2149622325000,3.41,11.3,-2.6,4
26,2149672343000,-0.11,5.71,-0.3,4
26,2149722331000,2.3,0.19,-1.57,4
26,2149772319000,3.95,1.23,-1.14,4
26,2149822337000,5.67,1.5,-1.5,4
26,2149872691000,10.15,3.17,-2.41,4
26,2149922343000,13.02,13.29,-0.84,4
26,2149972331000,3.15,7.55,-0.8,4
26,2150022319000,5.52,6.82,-3.02,4
26,2150072337000,2.91,11.18,-1.61,4
26,2150122325000,4.33,12.22,-2.22,4
26,2150172343000,4.56,8.39,-1.73,4
26,2150222362000,4.75,9.3,-1.5,4
26,2150272319000,5.01,8.62,-1.92,4
26,2150322337000,4.67,8.69,-2.03,4
26,2150372356000,7.93,6.32,-11.8,4
26,2150422343000,0.65,6.36,0.72,4
26,2150472331000,0.84,8.35,-1.18,4
26,2150522380000,6.47,7.55,-1.92,4
26,2150572368000,-3.11,10.99,-4.29,4
26,2150622325000,-4.79,16.93,-5.94,4
26,2150672343000,0.08,19.38,-4.56,4
26,2150722331000,4.02,13.44,-1.92,4
26,2150772319000,2.76,7.21,-4.79,4
26,2150822337000,7.67,4.56,-4.18,4
26,2150872325000,11.18,7.89,-1.27,4
26,2150922343000,6.4,14.9,-1.08,4
26,2150972362000,0.57,19.19,-3.68,4
26,2151022319000,0.69,12.45,-1.84,4
26,2151072337000,5.86,8.47,0.08,4
26,2151122325000,1.27,8.54,-4.02,4
26,2151172343000,0.84,6.36,1.14,4
26,2151222331000,0.46,3.64,-2.3,4
26,2151272319000,2.64,-0.27,-1.57,4
26,2151322337000,6.82,2.22,-2.18,4
26,2151372386000,8.77,5.13,-0.3,4
26,2151422343000,10.92,4.99,-3.45,4
26,2151472331000,16.28,11.37,-2.03,4
26,2151522319000,4.33,7.59,-2.34,4
26,2151572337000,5.18,5.24,-3.68,4
26,2151622325000,3.95,10.23,-3.11,4
26,2151672343000,4.82,10.34,-2.41,4
26,2151722331000,5.18,8.89,-1.46,4
26,2151772319000,4.94,9.3,-1.27,4
26,2151822337000,4.56,8.77,-1.57,4
26,2151872630000,4.33,8.08,-1.53,4
26,2151922343000,9.0,4.79,-13.17,4
26,2151972362000,-0.76,5.09,4.14,4
26,2152022319000,1.12,8.5,-5.18,4
26,2152072337000,0.31,12.64,-3.3,4
26,2152122325000,-0.95,14.9,-5.2,4
26,2152172343000,-1.14,19.27,-5.13,4
26,2152222331000,1.95,18.2,-4.18,4
26,2152272319000,7.16,9.81,-1.84,4
26,2152322337000,5.52,3.6,-4.94,4
26,2152372325000,8.28,3.34,-1.84,4
26,2152422343000,6.32,10.46,-1.65,4
26,2152472362000,-0.99,19.11,1.42,4
26,2152522319000,0.65,12.18,-1.5,4
26,2152572337000,1.42,8.2,-0.76,4
26,2152622325000,7.7,8.58,-0.99,4
26,2152672343000,0.08,9.15,-0.53,4
26,2152722331000,-1.14,5.13,-0.69,4
26,2152772319000,5.01,2.96,-4.9,4
26,2152822337000,5.41,2.22,-6.17,4
26,2152882304000,11.37,6.74,-7.5,4
26,2152932323000,-1.8,13.25,6.02,4
26,2152982341000,0.8,5.56,-2.98,4
26,2153032359000,2.53,13.59,-1.53,4
26,2153082317000,2.6,8.62,-0.84,4
26,2153132335000,1.5,10.46,-1.57,4
26,2153182323000,2.15,9.58,-2.6,4
26,2153232371000,1.8,9.23,-3.36,4
26,2153282329000,0.5,9.43,-2.72,4
26,2153332347000,0.31,8.28,-5.05,4
26,2153382304000,1.12,7.89,-1.61,4
26,2153432323000,2.34,10.88,-2.41,4
26,2153482341000,3.95,9.3,-2.49,4
26,2153532359000,4.99,10.92,-1.23,4
26,2153582317000,6.51,12.11,-1.23,4
26,2153632335000,-0.34,15.64,7.82,4
26,2153682323000,-3.21,12.53,0.61,4
26,2153732341000,-4.25,10.53,-2.75,4
26,2153782329000,-4.18,4.79,-2.37,4
26,2153832347000,3.38,1.69,-3.91,4
26,2153882304000,8.54,11.65,-8.01,4
26,2153932323000,7.31,13.44,1.73,4
26,2153982341000,-1.57,14.9,5.33,4
26,2154032359000,-1.92,10.42,-2.37,4
26,2154082347000,-2.64,9.66,-0.19,4
26,2154132335000,-4.1,12.79,-0.23,4
26,2154182292000,-4.1,10.92,-3.11,4
26,2154232341000,-0.27,7.78,-11.8,4
26,2154282329000,3.53,12.45,-9.19,4
26,2154332347000,7.55,13.95,14.44,4
26,2154382518000,3.76,6.82,-4.94,4
26,2154432353000,-2.41,9.43,-3.06,4
26,2154482310000,-6.74,12.41,-4.48,4
26,2154532237000,-5.41,16.04,-5.67,4
26,2154582378000,2.18,19.15,-2.26,4
26,2154632335000,2.76,13.57,-0.5,4
26,2154682323000,7.4,8.28,-2.3,4
26,2154732371000,5.79,6.97,-4.33,4
26,2154782329000,2.91,12.37,0.34,4
26,2154832347000,-0.8,15.51,3.57,4
26,2154882304000,1.61,17.5,-8.27,4
26,2154932323000,6.85,14.44,5.01,4
26,2154982341000,5.01,16.59,-3.45,4
26,2155032329000,-3.76,10.04,-0.27,4
26,2155082347000,-0.65,-2.45,-3.91,4
26,2155132335000,-2.11,-5.18,-2.75,4
26,2155182323000,2.79,-0.3,-0.8,4
26,2155232402000,4.56,15.7,-2.98,4
26,2155282329000,-3.06,14.86,-1.18,4
26,2155332347000,2.37,9.7,-1.33,4
26,2155382304000,1.04,10.69,-1.04,4
26,2155432292000,0.95,13.4,-1.04,4
26,2155482341000,1.04,11.5,-0.76,4
26,2155532329000,1.23,8.77,-1.73,4
26,2155582347000,10.76,9.7,-16.21,4
26,2155632335000,-5.37,7.63,7.59,4
26,2155682323000,5.94,8.24,-3.49,4
26,2155732341000,1.33,7.31,-2.37,4
26,2155782359000,-5.43,9.43,-4.56,4
26,2155832347000,-1.84,13.8,-3.76,4
26,2155912334000,-5.01,19.53,-4.21,4
26,2155962199000,2.56,15.79,-1.33,4
26,2156012248000,4.67,8.47,-4.21,4
26,2156062266000,8.66,6.7,-2.3,4
26,2156112346000,5.71,10.34,0.65,4
26,2156112346000,5.71,10.34,0.65,4
26,2156172282000,-3.41,17.58,-4.4,4
26,2156222362000,-2.64,13.57,-2.45,4
26,2156272319000,0.34,9.77,0.23,4
26,2156322337000,1.14,9.23,-1.61,4
26,2156372325000,-0.04,10.04,1.23,4
26,2156422343000,-0.65,4.25,0.42,4
26,2156472331000,4.86,-0.11,-2.18,4
26,2156522319000,-0.34,-0.72,-1.88,4
26,2156572337000,8.81,17.08,-5.82,4
26,2156622325000,-1.53,12.15,4.29,4
26,2156672374000,2.41,4.6,-4.18,4
26,2156722331000,-3.83,13.48,-2.14,4
26,2156772319000,-1.5,14.37,-1.18,4
26,2156822337000,1.08,9.23,-0.69,4
26,2156872325000,1.88,9.08,-0.84,4
26,2156922343000,3.02,8.58,-2.3,4
26,2156972331000,11.26,9.7,-12.83,4
26,2157022319000,0.89,9.11,-2.75,4
26,2157072337000,-0.72,10.08,-4.79,4
26,2157122325000,-2.64,5.48,0.53,4
26,2157172343000,-6.02,13.25,-2.98,4
26,2157222331000,-9.53,16.55,-3.53,4
26,2157272319000,-6.24,19.27,-5.13,4
26,2157322337000,0.72,15.4,-1.08,4
26,2157372325000,2.53,8.28,-4.52,4
26,2157422343000,7.67,6.02,-2.87,4
26,2157472331000,4.33,11.11,0.15,4
26,2157522319000,-4.21,16.97,-3.11,4
26,2157572368000,-8.08,15.7,-0.04,4
26,2157622325000,-0.57,9.28,-1.18,4
26,2157672343000,2.64,6.05,-0.34,4
26,2157722331000,0.42,7.97,-2.07,4
26,2157772319000,0.11,8.08,2.41,4
26,2157822337000,-0.11,2.79,-0.8,4
26,2157872325000,2.45,2.03,-1.33,4
26,2157922343000,5.01,3.6,-2.68,4
26,2157972362000,7.35,7.35,-6.09,4
26,2158022319000,10.0,19.27,3.11,4
26,2158072337000,1.38,4.86,-5.82,4
26,2158122325000,0.8,6.93,-1.31,4
26,2158172343000,-0.91,10.0,-1.18,4
26,2158222331000,-0.42,14.94,0.15,4
26,2158272319000,0.46,9.96,-0.23,4
26,2158322337000,-1.38,8.92,-2.41,4
26,2158372325000,-2.22,11.54,-2.64,4
26,2158422343000,-1.08,10.38,-3.41,4
26,2158472331000,-0.23,8.69,-4.14,4
26,2158522319000,0.95,7.78,-6.85,4
26,2158572337000,-0.5,6.85,-2.91,4
26,2158622325000,-0.84,8.31,-0.76,4
26,2158672343000,-0.5,10.15,-0.27,4
26,2158722331000,0.27,12.95,-1.08,4
26,2158772319000,3.15,11.75,-2.18,4
26,2158822429000,5.41,9.85,-0.57,4
26,2158872325000,-2.22,12.91,2.64,4
26,2158922343000,-8.96,17.88,6.05,4
26,2158972362000,-4.44,12.41,3.11,4
26,2159022319000,-2.49,8.5,1.8,4
26,2159072337000,-2.72,7.31,-1.92,4
26,2159122356000,-1.92,5.37,-4.48,4
26,2159172343000,-0.34,5.9,0.93,4
26,2159222331000,4.29,8.2,-1.65,4
26,2159272319000,4.52,9.43,-2.26,4
26,2159322337000,5.67,15.83,-0.57,4
26,2159372325000,6.02,13.18,-0.23,4
26,2159422343000,-1.27,11.96,-1.12,4
26,2159472331000,-4.06,11.35,-0.76,4
26,2159542338000,-4.82,8.01,-0.46,4
26,2159592265000,-6.13,14.9,-0.23,4
26,2159642375000,-2.11,9.19,-1.61,4
26,2159702281000,-2.26,10.38,-4.48,4
26,2159752330000,-0.3,11.37,-12.03,4
26,2159802348000,3.34,8.85,-8.73,4
26,2159852336000,13.44,15.89,9.7,4
26,2159902324000,-2.45,4.94,-4.71,4
26,2159952342000,-3.68,7.35,-1.73,4
26,2160003093000,-6.36,10.04,-4.33,4
26,2160052348000,-0.95,15.51,-3.79,4
26,2160102336000,-4.48,19.5,-4.14,4
26,2160152324000,-4.29,18.54,-1.92,4
26,2160202342000,4.79,10.65,-1.95,4
26,2160260417000,8.12,9.08,-3.91,4
26,2160260417000,8.12,9.08,-3.91,4
26,2160322276000,4.48,9.04,-1.12,4
26,2160372386000,-4.02,16.78,1.38,4
26,2160422343000,-5.82,15.47,-5.28,4
26,2160472331000,-0.76,10.92,2.18,4
26,2160522319000,1.23,9.66,-1.61,4
26,2160572337000,-2.96,6.13,-0.89,4
26,2160622478000,-2.41,4.18,0.84,4
26,2160672374000,3.45,2.03,-2.26,4
26,2160722331000,3.87,-0.08,-3.68,4
26,2160772319000,10.84,10.73,-2.98,4
26,2160822337000,3.26,14.67,5.9,4
26,2160872325000,3.15,3.68,-4.99,4
26,2160922374000,-0.91,10.0,-1.69,4
26,2160982280000,-2.14,15.02,-0.38,4
26,2161032268000,0.31,8.92,-0.99,4
26,2161082347000,-0.04,10.15,-1.99,4
26,2161132335000,-0.46,12.22,-2.14,4
26,2161182323000,0.5,10.38,-2.41,4
26,2161232371000,5.56,8.92,-9.43,4
26,2161282329000,5.67,7.5,-5.86,4
26,2161332317000,-0.23,7.27,1.27,4
26,2161382335000,1.04,5.05,-1.04,4
26,2161432323000,-0.15,10.95,-3.11,4
26,2161482341000,-7.44,14.21,-4.1,4
26,2161532329000,-8.73,19.34,-4.75,4
26,2161582317000,-4.99,19.34,-1.88,4
26,2161632304000,2.34,12.07,-1.46,4
26,2161682323000,5.56,7.86,-5.75,4
26,2161732371000,6.7,6.44,-3.15,4
26,2161782329000,5.41,11.96,1.5,4
26,2161832317000,-3.49,17.01,-3.95,4
26,2161882335000,-6.17,13.91,-6.85,4
26,2161932353000,0.8,9.23,6.44,4
26,2161982341000,-1.53,9.77,-3.95,4
26,2162032329000,-3.98,5.28,2.37,4
26,2162082347000,1.54,1.38,-3.72,4
26,2162132365000,2.76,1.61,-1.88,4
26,2162182323000,0.84,6.78,-2.72,4
26,2162232341000,9.38,16.55,-9.0,4
26,2162282481000,0.19,10.95,5.09,4
26,2162332317000,0.34,7.46,-5.71,4
26,2162382304000,-3.45,12.18,-2.07,4
26,2162432353000,-0.27,10.69,-0.72,4
26,2162482310000,0.38,10.46,-0.72,4
26,2162532329000,0.46,8.81,-1.27,4
26,2162582347000,1.38,8.77,-1.92,4
26,2162632304000,7.44,9.04,-13.38,4
26,2162682323000,2.64,7.21,-3.72,4
26,2162732341000,-3.49,10.08,-0.69,4
26,2162782329000,-6.43,8.96,-1.46,4
26,2162832347000,-5.28,15.05,-3.76,4
26,2162882304000,-8.73,18.81,-3.72,4
26,2162932323000,-1.99,18.66,-2.98,4
26,2162982341000,5.24,11.5,-3.53,4
26,2163032329000,7.27,5.71,-3.3,4
26,2163082347000,5.09,7.31,-0.19,4
26,2163132335000,-2.22,17.54,-2.6,4
26,2163182323000,-8.47,19.34,-4.14,4
26,2163232341000,-6.32,11.96,5.13,4
26,2163282329000,4.02,10.0,-1.76,4
26,2163332317000,-1.42,9.47,-0.5,4
26,2163382304000,-3.87,3.53,-2.37,4
26,2163432323000,0.57,-1.42,-0.95,4
26,2163482341000,3.3,0.38,-0.23,4
26,2163532329000,8.66,3.6,-1.42,4
26,2163582347000,9.3,5.52,-1.76,4
26,2163632304000,7.31,16.78,1.04,4
26,2163682323000,1.18,8.54,-1.42,4
26,2163732341000,2.96,9.53,-1.53,4
26,2163782329000,1.27,7.12,-2.37,4
26,2163832347000,-1.04,10.19,-2.45,4
26,2163882365000,-0.99,13.95,-1.76,4
26,2163932323000,-0.19,10.04,-1.42,4
26,2163982341000,-0.53,11.69,-2.07,4
26,2164032329000,-0.72,11.54,-1.92,4
26,2164082347000,0.42,10.42,-3.3,4
26,2164132365000,2.3,7.78,-7.5,4
26,2164182323000,-0.8,5.48,-2.22,4
26,2164232341000,-2.18,6.7,-0.3,4
26,2164282329000,-2.07,13.02,6.66,4
26,2164332317000,0.0,10.42,-6.47,4
26,2164332317000,0.0,10.42,-6.47,4
26,2164442363000,4.14,10.08,5.13,4
26,2164492839000,-6.59,19.15,1.27,4
26,2164542216000,-14.14,16.04,2.18,4
26,2164592265000,-6.09,5.37,0.99,4
26,2164642833000,-0.95,3.99,-0.38,4
26,2164692332000,-2.03,2.96,-3.76,4
26,2164742320000,-3.3,4.56,-2.03,4
26,2164792338000,-0.53,8.89,-0.65,4
26,2164852336000,10.73,19.04,-7.31,4
26,2164902324000,8.28,11.54,7.7,4
26,2164952342000,-8.08,14.98,0.42,4
26,2165002330000,-5.52,8.85,-0.99,4
26,2165052348000,-4.9,9.23,-1.61,4
26,2165102336000,-6.32,10.61,-3.95,4
26,2165152324000,-6.02,5.83,-6.05,4
26,2165202281000,-4.94,8.58,-4.59,4
26,2165257182000,-3.34,11.18,-5.28,4
26,2165257182000,-3.34,11.18,-5.28,4
26,2165312297000,1.27,13.44,-6.09,4
26,2165372264000,3.87,15.02,-4.4,4
26,2165422343000,7.21,10.38,9.04,4
26,2165472331000,2.45,10.95,-3.87,4
26,2165522319000,0.08,11.11,-0.61,4
26,2165572337000,-0.61,13.82,4.44,4
26,2165622325000,-7.08,19.27,3.53,4
26,2165672374000,-11.26,19.53,-3.49,4
26,2165722331000,2.37,13.67,5.71,4
26,2165772319000,-4.86,8.5,-5.28,4
26,2165822368000,1.76,6.78,0.89,4
26,2165872356000,1.65,6.63,-2.72,4
26,2165922343000,0.53,-1.95,-2.3,4
26,2165972362000,7.12,3.11,1.65,4
26,2166022319000,6.55,5.56,4.52,4
26,2166072337000,5.75,4.75,3.26,4
26,2166122356000,10.15,12.15,2.53,4
26,2166172343000,4.52,9.15,1.12,4
26,2166222362000,4.02,10.04,0.34,4
26,2166272319000,1.95,7.97,-3.11,4
26,2166322337000,-0.42,10.69,-2.41,4
26,2166372356000,-0.3,14.63,-1.08,4
26,2166422343000,0.34,9.72,-0.57,4
26,2166472331000,0.99,11.6,-1.08,4
26,2166522288000,0.99,12.37,-2.03,4
26,2166572337000,3.87,9.53,-6.43,4
26,2166622325000,3.68,6.55,-9.66,4
26,2166672343000,-4.25,6.05,4.44,4
26,2166722331000,6.89,8.62,-2.68,4
26,2166772319000,3.68,8.43,-2.87,4
26,2166822337000,-7.25,9.47,-4.4,4
26,2166872325000,-13.63,16.89,-2.91,4
26,2166982158000,0.89,13.21,-3.36,4
26,2166982158000,0.89,13.21,-3.36,4
26,2167032207000,4.86,9.77,-2.72,4
26,2167082439000,5.56,8.58,-4.86,4
26,2167132274000,2.56,13.25,-2.18,4
26,2167182323000,-3.91,16.13,-0.89,4
26,2167232341000,-3.06,14.02,-5.37,4
26,2167282359000,-0.84,8.35,2.37,4
26,2167332317000,-0.38,7.86,-1.88,4
26,2167382335000,-1.73,6.24,-0.34,4
26,2167432323000,0.76,4.82,-0.46,4
26,2167482341000,1.92,1.76,-2.11,4
26,2167532329000,2.45,-0.5,-3.57,4
26,2167582347000,10.76,12.34,-2.91,4
26,2167632304000,8.24,16.04,1.73,4
26,2167682323000,0.72,8.81,-1.88,4
26,2167732341000,0.61,9.53,-2.91,4
26,2167782329000,-0.91,10.27,-1.99,4
26,2167832347000,-1.8,14.67,-1.57,4
26,2167882335000,0.04,9.85,-1.38,4
26,2167932323000,1.27,9.89,-1.61,4
26,2167982341000,2.15,9.28,-1.27,4
26,2168032329000,5.18,8.01,-5.86,4
26,2168082347000,8.12,8.24,-11.37,4
26,2168132335000,-4.82,9.47,10.0,4
26,2168182384000,-0.46,6.59,-4.44,4
26,2168232341000,-5.9,12.15,-4.14,4
26,2168282329000,-10.04,15.36,-3.36,4
26,2168332317000,-10.65,19.57,-5.82,4
26,2168382365000,0.27,16.4,-0.8,4
26,2168432323000,3.68,9.7,-4.67,4
26,2168482341000,8.73,6.47,-2.45,4
26,2168532329000,5.86,8.35,-0.38,4
26,2168582347000,-1.76,17.27,-3.64,4
26,2168632335000,-8.81,18.96,-4.75,4
26,2168682323000,-1.88,10.38,4.44,4
26,2168732341000,3.17,9.23,-1.23,4
26,2168782329000,-4.25,3.79,-0.65,4
26,2168832378000,-2.49,3.83,0.23,4
26,2168882365000,0.89,0.31,-2.34,4
26,2168932323000,3.72,1.08,-0.23,4
26,2168982341000,6.74,6.17,-0.69,4
26,2169032359000,11.65,19.15,-4.14,4
26,2169082347000,1.31,13.1,-3.02,4
26,2169132335000,1.84,7.44,-2.41,4
26,2169182323000,1.46,9.08,-2.96,4
26,2169232341000,-2.45,12.57,-1.73,4
26,2169282329000,-1.14,11.69,-1.53,4
26,2169332347000,0.23,8.81,-2.11,4
26,2169382335000,-0.34,10.34,-1.69,4
26,2169432323000,-0.11,10.04,-2.6,4
26,2169482341000,5.28,7.12,-14.98,4
26,2169532390000,-0.91,7.93,10.08,4
26,2169582347000,7.63,7.12,-10.31,4
26,2169632640000,1.92,7.31,2.15,4
26,2169682323000,-5.05,7.89,-2.91,4
26,2169732341000,-11.75,10.65,-2.3,4
26,2169782329000,-5.79,14.63,-2.96,4
26,2169832347000,-11.03,19.27,-4.4,4
26,2169882365000,-10.57,19.57,-4.21,4
26,2169932323000,5.43,9.92,-2.64,4
26,2169982341000,11.5,5.09,-5.67,4
26,2170032329000,4.63,4.99,-2.26,4
26,2170082378000,-2.75,13.48,3.57,4
26,2170132335000,-6.74,16.02,-0.72,4
26,2170182323000,-10.23,11.22,-0.8,4
26,2170232341000,-6.66,8.35,1.14,4
26,2170282329000,0.04,8.5,3.49,4
26,2170332469000,-1.84,5.75,-0.34,4
26,2170382335000,-3.53,4.33,0.15,4
26,2170432292000,-1.69,5.18,0.15,4
26,2170482341000,-1.42,4.44,-1.04,4
26,2170532359000,-0.5,4.4,-2.37,4
26,2170582347000,2.6,13.25,-4.37,4
26,2170632335000,5.24,19.38,-3.64,4
26,2170682323000,9.77,10.42,5.18,4
26,2170732341000,-3.15,7.93,0.46,4
26,2170782329000,-8.81,16.36,-0.91,4
26,2170832347000,-4.67,8.43,-1.27,4
26,2170882335000,-4.21,7.25,-1.92,4
26,2170932323000,-6.55,12.53,-3.53,4
26,2170982341000,-3.95,6.85,-4.21,4
26,2171032329000,-2.75,9.23,-7.86,4
26,2171082347000,1.08,12.83,-13.33,4
26,2171132335000,3.02,11.11,-4.4,4
26,2171182323000,6.02,14.41,11.3,4
26,2171232341000,-0.11,8.54,-9.38,4
26,2171282329000,-5.33,11.14,1.27,4
26,2171332317000,-0.08,9.53,-4.25,4
26,2171382335000,2.07,10.88,-4.14,4
26,2171432323000,1.92,11.96,0.53,4
26,2171482341000,-1.12,12.6,0.42,4
26,2171532329000,-4.59,17.92,0.27,4
26,2171582347000,-11.95,18.12,-1.18,4
26,2171632335000,-5.13,8.16,-1.33,4
26,2171682323000,2.76,6.13,-0.3,4
26,2171732341000,-1.88,6.17,-1.69,4
26,2171782329000,-6.7,2.3,-2.53,4
26,2171832347000,-1.65,4.37,-1.92,4
26,2171882335000,1.54,8.31,0.42,4
26,2171932323000,8.89,17.27,0.46,4
26,2171982341000,10.57,16.51,4.82,4
26,2172042338000,-5.94,8.08,-3.11,4
26,2172092265000,-9.49,14.41,2.98,4
26,2172142345000,-3.64,8.01,-3.53,4
26,2172202281000,-3.68,9.53,-1.5,4
26,2172252330000,-2.03,11.8,-1.65,4
26,2172302348000,0.5,10.65,-5.67,4
26,2172352336000,6.59,11.56,-14.56,4
26,2172402324000,10.84,7.74,-5.67,4
26,2172452342000,11.03,16.66,8.77,4
26,2172502330000,2.3,8.01,-12.15,4
26,2172552348000,-5.86,9.43,0.72,4
26,2172602336000,-7.93,15.75,-3.49,4
26,2172652324000,-6.59,19.57,-4.18,4
26,2172702342000,-0.15,18.85,-2.91,4
26,2172752330000,1.38,5.48,-2.22,4
26,2172802348000,3.53,9.53,-4.25,4
26,2172852336000,5.67,10.08,0.72,4
26,2172902324000,-0.46,13.14,-0.53,4
26,2172952342000,-8.88,16.36,2.15,4
26,2173002330000,0.15,11.18,-4.25,4
26,2173052348000,0.99,9.53,3.17,4
26,2173102336000,3.38,10.19,-0.61,4
26,2173152293000,0.5,10.27,-1.04,4
26,2173202342000,-3.34,2.56,-2.56,4
26,2173252330000,0.31,-0.53,-2.07,4
26,2173302379000,5.75,2.15,1.33,4
26,2173352367000,6.51,4.02,1.18,4
26,2173402293000,15.83,15.55,1.42,4
26,2173452342000,5.13,7.35,0.0,4
26,2173502299000,1.18,9.0,-0.8,4
26,2173552348000,1.5,8.5,-2.41,4
26,2173602306000,-2.53,12.95,-3.26,4
26,2173652354000,0.15,13.76,-0.95,4
26,2173702312000,1.33,9.62,-0.3,4
26,2173752330000,1.69,10.0,-1.14,4
26,2173802348000,2.83,8.92,-1.61,4
26,2173852367000,7.55,6.82,-7.78,4
26,2173902293000,3.99,7.12,-4.33,4
26,2173952342000,-4.86,8.89,-3.41,4
26,2174002574000,-6.55,10.76,-2.53,4
26,2174052379000,-6.32,18.62,-3.91,4
26,2174102336000,-7.7,19.53,-4.06,4
26,2174152324000,0.19,13.29,-1.38,4
26,2174202342000,4.33,9.92,-4.44,4
26,2174252330000,8.54,7.78,-4.21,4
26,2174302348000,5.37,8.77,-0.46,4
26,2174352336000,-2.11,15.13,-1.57,4
26,2174402293000,-7.35,16.97,-2.37,4
26,2174452342000,-2.68,9.77,-5.75,4
26,2174502330000,2.03,8.5,5.24,4
26,2174552348000,-0.38,6.21,-3.45,4
26,2174602306000,-1.42,6.66,0.69,4
26,2174652324000,-0.5,3.76,-1.88,4
26,2174702342000,1.99,2.34,-1.38,4
26,2174752330000,8.28,5.13,-8.16,4
26,2174802348000,8.12,19.23,4.44,4
26,2174852336000,-0.5,7.82,-4.25,4
26,2174902324000,1.99,6.44,-3.15,4
26,2174952342000,-0.61,10.61,-2.34,4
26,2175002330000,-0.08,15.79,-0.53,4
26,2175052318000,0.69,10.53,-0.46,4
26,2175102336000,1.08,9.11,-1.92,4
26,2175152354000,1.8,9.62,-2.45,4
26,2175202342000,6.7,8.77,-8.35,4
26,2175257426000,6.32,5.98,-7.59,4
26,2175257426000,6.32,5.98,-7.59,4
26,2175312297000,-6.24,7.12,-7.63,4
26,2175372264000,-6.09,17.58,-1.92,4
26,2175422343000,-6.63,19.53,-3.83,4
26,2175472331000,-0.91,16.28,-0.08,4
26,2175522319000,3.53,10.76,-2.34,4
26,2175572398000,6.66,7.25,-4.63,4
26,2175622325000,5.52,7.97,-1.92,4
26,2175672343000,-0.27,13.14,-0.23,4
26,2175722331000,-6.02,17.05,-0.91,4
26,2175772319000,-2.34,11.03,-1.14,4
26,2175822337000,0.57,8.01,-0.99,4
26,2175872325000,-0.11,8.73,-1.84,4
26,2175922374000,-1.46,5.79,1.92,4
26,2175972362000,-1.14,0.69,-2.26,4
26,2176022319000,1.88,1.88,-0.99,4
26,2176072337000,6.13,2.87,-1.57,4
26,2176122356000,8.73,7.27,-2.37,4
26,2176172343000,11.45,16.93,0.27,4
26,2176222362000,5.37,10.42,-4.63,4
26,2176272319000,1.27,8.81,0.15,4
26,2176322337000,1.12,5.6,-3.17,4
26,2176372325000,-0.19,9.19,-2.3,4
26,2176422374000,-0.57,14.82,-1.53,4
26,2176472331000,1.08,8.69,-0.99,4
26,2176522319000,0.95,8.5,-1.69,4
26,2176572337000,-1.14,13.48,-1.84,4
26,2176622325000,-1.12,10.12,-1.5,4
26,2176672343000,-0.99,7.06,-2.37,4
26,2176722331000,-0.72,7.21,-7.82,4
26,2176772319000,-2.03,5.37,-4.75,4
26,2176822337000,-2.75,6.85,-0.53,4
26,2176872325000,-2.6,12.03,2.56,4
26,2176922343000,-0.84,11.54,2.79,4
26,2176972331000,2.15,13.87,-8.58,4
26,2177022319000,6.44,9.81,-4.9,4
26,2177072337000,-2.18,14.25,12.76,4
26,2177122325000,-6.63,18.24,-0.99,4
26,2177232158000,-4.21,6.21,-1.27,4
26,2177232158000,-4.21,6.21,-1.27,4
26,2177282207000,3.91,5.94,-0.84,4
26,2177332347000,-2.98,5.09,-0.99,4
26,2177382304000,-2.83,4.99,-2.14,4
26,2177432323000,-0.23,4.4,-2.49,4
26,2177482371000,5.63,10.27,-3.76,4
26,2177532329000,9.38,19.53,5.75,4
26,2177582469000,5.18,8.31,1.23,4
26,2177632304000,-10.11,14.67,1.73,4
26,2177682353000,-4.52,9.47,-2.37,4
26,2177732341000,-2.96,5.67,-1.12,4
26,2177782359000,-5.71,13.33,-1.57,4
26,2177832347000,-3.91,8.54,-3.79,4
26,2177882335000,-2.64,8.96,-5.01,4
26,2177932323000,4.02,10.04,-16.47,4
26,2177982371000,12.18,13.02,-8.31,4
26,2178032359000,12.15,13.59,9.89,4
26,2178082347000,1.54,9.11,-3.06,4
26,2178132335000,-5.05,5.48,-1.57,4
26,2178182323000,-7.82,14.71,-3.68,4
26,2178232341000,-5.33,19.0,-3.34,4
26,2178282329000,-9.43,19.57,-2.72,4
26,2178332317000,-0.61,11.56,-2.45,4
26,2178382335000,4.94,8.31,-5.28,4
26,2178432323000,6.28,7.93,-4.52,4
26,2178482341000,4.63,7.25,-1.92,4
26,2178532329000,1.12,13.29,-1.57,4
26,2178582347000,-4.02,14.1,2.98,4
26,2178632335000,-0.53,10.8,-4.99,4
26,2178682323000,0.04,9.81,-0.38,4
26,2178732341000,2.87,10.46,-1.46,4
26,2178782329000,-0.76,11.5,1.12,4
26,2178832347000,-2.07,2.11,-3.15,4
26,2178882335000,0.0,-0.65,-1.73,4
26,2178932323000,3.79,2.3,-0.99,4
26,2178982341000,6.17,6.63,1.14,4
26,2179032329000,11.92,15.09,-3.34,4
26,2179082347000,7.7,13.99,-3.83,4
26,2179132335000,3.91,11.73,0.8,4
26,2179182323000,2.18,8.08,-1.99,4
26,2179232341000,1.04,7.55,-3.36,4
26,2179282329000,-2.41,13.29,-2.11,4
26,2179332317000,-0.11,12.11,-1.12,4
26,2179332317000,-0.11,12.11,-1.12,4
26,2179432292000,1.12,8.54,-0.8,4
26,2179482463000,1.61,9.51,-2.3,4
26,2179532207000,8.92,8.12,-12.53,4
26,2179582286000,0.27,6.32,0.65,4
26,2179632304000,2.18,7.59,-5.01,4
26,2179682323000,-5.2,7.21,-0.57,4
26,2179732341000,-8.31,16.25,-4.59,4
26,2179782329000,-9.58,19.57,-3.06,4
26,2179832347000,-5.41,17.47,-2.96,4
26,2179882335000,0.69,11.6,-3.17,4
26,2179932353000,7.27,9.38,-3.3,4
26,2179982341000,8.12,4.99,-3.34,4
26,2180032298000,2.87,8.5,-1.84,4
26,2180082347000,-2.49,18.77,-1.88,4
26,2180132335000,-7.4,15.79,-2.96,4
26,2180182323000,-2.83,7.5,3.34,4
26,2180232341000,2.79,8.96,-1.27,4
26,2180282329000,-2.64,4.48,-1.84,4
26,2180342418000,-1.31,1.5,-2.83,4
26,2180402324000,1.27,3.87,-1.65,4
26,2180452342000,3.06,4.82,-1.33,4
26,2180502330000,8.39,11.26,-6.85,4
26,2180552348000,11.96,19.5,0.42,4
26,2180602336000,1.61,7.44,-3.98,4
26,2180652293000,0.15,7.01,-4.25,4
26,2180702342000,-1.08,8.85,-2.56,4
26,2180752330000,-4.59,15.79,-1.61,4
26,2180802348000,-1.04,11.14,-0.34,4
26,2180852336000,-0.38,6.63,-1.12,4
26,2180902293000,0.99,8.05,-1.8,4
26,2180952342000,9.51,10.69,-14.86,4
26,2181002330000,6.17,5.52,-5.63,4
26,2181052379000,-0.19,7.08,11.5,4
26,2181102336000,0.65,8.28,-7.16,4
26,2181152324000,-11.26,13.82,-2.22,4
26,2181202342000,-16.44,18.39,-4.56,4
26,2181252391000,-8.01,19.31,-3.87,4
26,2181302318000,-0.46,13.21,-0.53,4
26,2181352306000,4.37,7.08,-5.6,4
26,2181402324000,6.05,4.82,-3.79,4
26,2181452342000,2.68,8.12,-0.57,4
26,2181502330000,-2.96,18.2,-2.87,4
26,2181552348000,-8.27,17.24,-1.61,4
26,2181602336000,-5.63,8.2,1.54,4
26,2181652293000,2.22,7.89,-1.33,4
26,2181702342000,-1.46,11.22,0.46,4
26,2181752330000,-5.56,4.52,-2.45,4
26,2181802348000,-0.15,-3.6,-0.57,4
26,2181852336000,6.24,1.08,-2.11,4
26,2181902324000,8.28,6.13,-0.27,4
26,2181952342000,12.95,8.08,-2.87,4
26,2182002849000,11.5,13.91,2.07,4
26,2182052348000,0.69,7.25,0.0,4
26,2182102336000,0.72,9.04,-1.33,4
26,2182152324000,0.38,9.62,-1.65,4
26,2182202373000,-2.45,10.69,-2.83,4
26,2182262401000,-1.8,12.83,-2.34,4
26,2182262401000,-1.8,12.83,-2.34,4
26,2182362285000,-0.27,9.72,-1.46,4
26,2182362285000,-0.27,9.72,-1.46,4
26,2182412303000,-0.72,10.27,-1.33,4
26,2182472270000,-0.53,7.86,-1.38,4
26,2182522319000,-0.08,5.98,-2.6,4
26,2182572337000,0.08,7.21,-8.31,4
26,2182622325000,-2.98,7.35,-2.75,4
26,2182672343000,-3.06,10.0,-0.53,4
26,2182722331000,-4.67,11.3,4.9,4
26,2182772319000,-0.34,11.54,-3.6,4
26,2182822337000,2.98,12.6,-7.27,4
26,2182872325000,2.72,10.19,-3.06,4
26,2182922343000,-6.59,14.25,13.76,4
26,2182972362000,-8.58,16.63,1.31,4
26,2183022349000,-14.02,15.6,0.19,4
26,2183072368000,-5.18,7.35,-0.72,4
26,2183122325000,3.72,5.22,-2.56,4
26,2183172343000,-1.31,4.4,-2.03,4
26,2183222331000,-2.18,2.83,-2.45,4
26,2183272319000,2.15,5.05,-2.49,4
26,2183322337000,10.46,16.55,-4.94,4
26,2183372325000,11.03,17.01,12.83,4
26,2183422343000,-2.6,8.08,-5.94,4
26,2183482341000,-8.05,12.15,-1.5,4
26,2183532329000,-5.2,8.54,-0.19,4
26,2183582347000,-3.36,8.85,-0.27,4
26,2183632335000,-3.41,10.73,-1.8,4
26,2183682323000,-2.03,9.58,-5.43,4
26,2183732341000,0.76,9.92,-14.25,4
26,2183782329000,4.67,10.46,-11.33,4
26,2183832347000,13.67,16.74,13.14,4
26,2183882365000,5.13,5.83,-6.24,4
26,2183932323000,-1.8,9.62,1.18,4
26,2183982341000,-4.79,8.54,-2.03,4
26,2184032298000,-11.84,14.79,-4.63,4
26,2184082347000,-7.16,18.89,-7.35,4
26,2184132335000,-1.76,18.05,-1.33,4
26,2184182323000,0.61,10.73,-2.41,4
26,2184232341000,5.43,9.23,-2.18,4
26,2184282329000,7.67,7.4,-4.18,4
26,2184332347000,3.68,9.53,-2.41,4
26,2184382335000,-3.83,17.92,5.24,4
26,2184432292000,-3.21,11.92,-2.37,4
26,2184482341000,0.08,13.53,-0.99,4
26,2184532298000,2.96,8.62,-0.23,4
26,2184582347000,1.42,9.85,1.69,4
26,2184632335000,-2.98,6.93,-1.95,4
26,2184682323000,-1.8,-1.04,-2.98,4
26,2184732341000,4.14,0.89,-2.3,4
26,2184782329000,8.35,6.74,-4.44,4
26,2184832378000,6.36,19.04,3.64,4
26,2184832378000,6.36,19.04,3.64,4
26,2184934581000,0.04,6.4,-1.69,4
26,2184992259000,-2.3,13.57,-2.6,4
26,2185052348000,0.08,11.73,-0.91,4
26,2185102336000,2.07,9.19,-1.27,4
26,2185152324000,1.69,10.53,-1.23,4
26,2185202342000,1.95,9.34,-2.68,4
26,2185202342000,1.95,9.34,-2.68,4
26,2185262584000,8.81,8.69,-15.47,4
26,2185322276000,-2.87,8.31,8.05,4
26,2185372325000,-0.72,4.4,-1.8,4
26,2185422374000,-4.86,10.76,-2.72,4
26,2185472331000,-8.12,17.58,-4.14,4
26,2185522319000,-9.81,19.57,-4.33,4
26,2185572337000,-1.76,16.51,-0.84,4
26,2185622325000,3.34,11.65,-2.75,4
26,2185672343000,6.82,7.78,-5.37,4
26,2185722331000,5.18,6.02,-2.56,4
26,2185772319000,2.64,13.02,0.5,4
26,2185822368000,-3.64,16.36,-0.27,4
26,2185872325000,-3.98,14.29,-8.12,4
26,2185922343000,-4.37,9.3,1.73,4
26,2185972362000,-0.27,8.01,-0.99,4
26,2186022319000,-1.53,5.33,1.92,4
26,2186072337000,-1.8,2.26,-3.57,4
26,2186122356000,1.5,0.38,-1.5,4
26,2186172343000,4.4,4.86,-0.91,4
26,2186222362000,10.88,15.83,-4.29,4
26,2186272258000,4.4,16.66,-2.41,4
26,2186322368000,2.37,9.77,-2.96,4
26,2186372325000,1.14,8.54,-2.79,4
26,2186422343000,-0.91,10.57,-3.02,4
26,2186472331000,-1.73,13.8,-1.95,4
26,2186522319000,0.57,8.92,-0.69,4
26,2186572337000,0.53,8.5,-0.76,4
26,2186622325000,0.93,9.28,-1.14,4
26,2186672343000,2.37,7.78,-2.18,4
26,2186722362000,9.47,9.19,-16.21,4
26,2186772319000,-5.63,7.25,9.96,4
26,2186822337000,0.27,5.05,-10.11,4
26,2186872325000,-5.41,8.96,-1.8,4
26,2186922343000,-8.62,15.85,-3.87,4
26,2186972362000,-10.92,19.38,-4.29,4
26,2187022319000,-8.08,19.23,-4.02,4
26,2187072337000,0.5,12.45,0.23,4
26,2187122325000,5.24,9.08,-5.43,4
26,2187172343000,7.44,6.59,-5.33,4
26,2187222331000,3.41,7.55,-2.07,4
26,2187272349000,-3.72,15.66,0.99,4
26,2187322337000,-6.82,14.21,-0.8,4
26,2187372356000,-1.76,10.57,-1.23,4
26,2187422343000,0.93,8.81,-0.99,4
26,2187532115000,-0.89,7.5,0.5,4
26,2187532115000,-0.89,7.5,0.5,4
26,2187582194000,-0.42,0.04,-2.45,4
26,2187632365000,1.12,-0.95,-1.69,4
26,2187682292000,4.4,4.33,1.73,4
26,2187732341000,14.56,12.49,-3.79,4
26,2187782359000,11.69,13.72,-1.5,4
26,2187832347000,5.75,11.56,-1.69,4
26,2187882335000,3.26,7.97,-1.84,4
26,2187932292000,1.88,7.16,-1.84,4
26,2187982341000,0.89,8.81,-2.03,4
26,2188032329000,-1.76,12.68,-1.57,4
26,2188082347000,-1.14,10.0,-1.31,4
26,2188132335000,-1.18,8.85,-1.61,4
26,2188182353000,-2.56,12.45,-1.95,4
26,2188232341000,-2.72,12.6,-1.61,4
26,2188282390000,-0.84,8.01,-2.14,4
26,2188332347000,0.04,7.97,-5.18,4
26,2188382396000,-1.08,6.63,-7.93,4
26,2188432323000,-2.41,1.92,-6.51,4
26,2188482341000,-0.91,5.67,-1.53,4
26,2188532329000,-3.98,15.83,9.47,4
26,2188582347000,-3.49,10.42,-8.31,4
26,2188632335000,-0.99,14.14,-5.48,4
26,2188682353000,1.95,11.75,-1.73,4
26,2188732341000,2.83,10.46,-1.88,4
26,2188782359000,-1.23,12.15,2.6,4
26,2188832347000,-5.33,18.39,0.95,4
26,2188882365000,-15.17,19.38,1.84,4
26,2188932323000,-1.38,14.86,-3.79,4
26,2188982341000,3.83,15.17,0.69,4
26,2189032329000,-4.06,6.59,-2.45,4
26,2189082347000,1.08,4.52,0.65,4
26,2189132335000,-0.42,-0.3,-4.44,4
26,2189182323000,3.68,1.12,0.72,4
26,2189232341000,7.82,3.26,3.21,4
26,2189282329000,12.07,8.47,3.21,4
26,2189332347000,8.31,7.63,2.3,4
26,2189382335000,0.19,9.28,1.73,4
26,2189432323000,0.99,10.5,0.84,4
26,2189482341000,2.79,8.89,-1.73,4
26,2189532329000,0.34,10.84,-3.15,4
26,2189582347000,0.57,12.68,-2.72,4
26,2189632335000,0.99,10.15,-0.57,4
26,2189682323000,1.76,9.81,-0.5,4
26,2189732310000,1.31,10.38,-0.95,4
26,2189782329000,2.96,8.54,-2.11,4
26,2189832347000,8.69,8.54,-13.21,4
26,2189882335000,-3.95,10.57,11.92,4
26,2189932323000,2.79,6.4,-8.73,4
26,2189982341000,1.38,8.16,-0.84,4
26,2190032329000,-4.94,7.35,-2.64,4
26,2190082347000,-10.38,11.26,-4.79,4
26,2190132365000,-5.9,19.38,-4.44,4
26,2190182323000,-10.88,19.53,-4.48,4
26,2190232341000,-3.41,16.44,-1.53,4
26,2190282359000,3.3,9.23,-2.34,4
26,2190332347000,8.5,5.83,-3.79,4
26,2190382335000,4.6,4.06,-3.64,4
26,2190432353000,0.08,10.42,2.22,4
26,2190482341000,-5.28,18.47,-0.89,4
26,2190532359000,-4.1,14.1,-6.66,4
26,2190582347000,-0.23,11.65,4.9,4
26,2190632335000,0.57,11.11,-3.06,4
26,2190682323000,-0.72,8.47,0.27,4
26,2190732341000,0.38,6.44,-0.15,4
26,2190782329000,0.0,1.12,-2.64,4
26,2190832347000,1.73,-1.31,-1.92,4
26,2190882335000,4.1,2.03,0.38,4
26,2190932323000,9.7,11.18,-0.15,4
26,2190982371000,9.96,13.8,-3.02,4
26,2191032329000,5.33,15.09,0.23,4
26,2191082347000,2.6,8.35,-1.08,4
26,2191132335000,2.15,7.86,-2.22,4
26,2191182323000,2.03,8.43,-2.79,4
26,2191232341000,-0.3,12.49,-1.84,4
26,2191282329000,1.69,9.19,0.46,4
26,2191332378000,1.23,9.08,-1.14,4
26,2191382335000,1.08,12.18,-2.22,4
26,2191432323000,0.19,10.69,-2.03,4
26,2191482341000,0.57,8.43,-5.33,4
26,2191532329000,1.46,9.81,-11.6,4
26,2191582317000,-0.19,9.81,6.02,4
26,2191632335000,2.26,5.28,-1.57,4
26,2191682292000,-2.11,5.28,-1.61,4
26,2191732341000,-6.89,7.59,-3.3,4
26,2191782329000,-7.63,17.5,-4.48,4
26,2191832347000,-6.51,19.57,-6.7,4
26,2191882335000,-6.28,18.54,-1.84,4
26,2191932292000,-0.34,11.6,-0.27,4
26,2191982341000,6.89,8.39,-2.3,4
26,2192032329000,7.01,6.59,-5.05,4
26,2192082347000,3.02,9.15,-2.41,4
26,2192132335000,-3.26,16.21,-3.15,4
26,2192182323000,-3.72,13.18,2.96,4
26,2192232341000,0.23,9.66,-3.26,4
26,2192282329000,-0.11,7.59,-0.5,4
26,2192332347000,1.08,9.23,-1.31,4
26,2192382335000,-1.18,10.08,-0.95,4
26,2192432323000,-1.88,4.02,-1.88,4
26,2192482341000,2.11,0.76,-0.46,4
26,2192532359000,4.29,3.64,0.0,4
26,2192592296000,5.63,4.33,-1.04,4
26,2192642284000,14.6,12.37,0.11,4
26,2192692332000,10.88,8.2,-0.5,4
26,2192752299000,9.43,15.75,-0.23,4
26,2192802348000,3.34,7.35,-2.72,4
26,2192852336000,2.64,5.71,-2.98,4
26,2192902324000,3.83,6.55,-3.41,4
26,2192952342000,-0.34,11.22,-2.22,4
26,2193002330000,0.38,13.57,-1.18,4
26,2193052379000,0.53,8.73,-0.84,4
26,2193102336000,-0.08,9.47,-1.65,4
26,2193152324000,-0.3,10.27,-1.61,4
26,2193202342000,0.23,9.89,-1.84,4
26,2193252330000,0.31,8.08,-2.56,4
26,2193302348000,4.33,7.35,-13.29,4
26,2193352306000,-9.28,10.61,10.04,4
26,2193402324000,1.57,10.15,-8.12,4
26,2193452342000,2.15,8.96,-1.76,4
26,2193502299000,0.0,8.12,-1.76,4
26,2193552318000,-0.27,7.82,-1.76,4
26,2193602336000,-1.53,9.53,-1.27,4
26,2193652293000,-7.89,10.15,-2.79,4
26,2193702342000,-8.12,14.56,-5.94,4
26,2193752330000,-6.89,19.5,-4.79,4
26,2193802348000,-7.12,18.09,-2.3,4
26,2193852336000,-0.5,11.14,-0.8,4
26,2193902293000,4.82,8.05,-2.37,4
26,2193952342000,5.71,8.2,-3.21,4
26,2194002910000,-0.19,8.96,-1.92,4
26,2194052531000,-2.72,10.23,0.8,4
26,2194102336000,-4.25,10.19,-4.48,4
26,2194152324000,-6.55,6.32,-5.86,4
26,2194202342000,-9.15,4.82,2.03,4
26,2194252330000,-7.55,6.63,1.08,4
26,2194302348000,-6.59,13.59,1.38,4
26,2194352306000,0.57,3.57,-2.83,4
26,2194402324000,0.8,-0.53,-0.61,4
26,2194452342000,-8.47,3.72,3.15,4
26,2194502330000,-10.42,9.28,1.84,4
26,2194552348000,-3.11,11.45,1.08,4
26,2194602336000,-1.08,12.18,1.46,4
26,2194652293000,-4.75,6.7,-0.08,4
26,2194702342000,-2.87,9.92,2.45,4
26,2194752360000,-5.9,7.08,5.86,4
26,2194802348000,-5.82,8.39,0.42,4
26,2194852336000,-4.37,8.73,1.04,4
26,2194902324000,-1.5,9.11,1.23,4
26,2194952342000,-2.03,10.34,2.6,4
26,2195002360000,-1.38,9.43,4.52,4
26,2195052318000,-2.3,9.62,4.02,4
26,2213992259000,-2.41,16.7,2.34,0
26,2214042339000,-7.04,8.24,-2.98,0
26,2214092326000,-5.05,5.01,-0.57,0
26,2214142345000,-0.11,6.89,0.0,0
26,2214192332000,6.05,11.99,-0.61,0
26,2214242320000,6.97,11.03,-2.22,0
26,2214292338000,1.65,8.31,1.08,0
26,2214342326000,-0.11,14.1,1.38,0
26,2214392345000,2.87,13.57,-2.07,0
26,2214442332000,-2.3,12.91,-1.57,0
26,2214492320000,-2.34,13.25,-2.03,0
26,2214542339000,-1.69,8.58,-2.45,0
26,2214592235000,0.0,6.63,-1.27,0
26,2214642314000,2.03,8.89,-2.49,0
26,2214692241000,5.9,8.47,-1.14,0
26,2214752269000,7.86,15.43,1.54,0
26,2214802348000,-6.17,13.33,0.42,0
26,2214852336000,-4.56,8.81,-3.11,0
26,2214902324000,-3.57,8.01,-1.33,0
26,2214952342000,1.84,6.55,4.06,0
26,2215002330000,5.41,14.98,-0.5,0
26,2215052348000,2.53,8.24,-1.42,0
26,2215102336000,1.54,0.53,-1.76,0
26,2215152232000,2.34,7.67,0.34,0
26,2215202373000,0.0,19.57,-5.82,0
26,2215252513000,-1.33,9.77,1.69,0
26,2215302348000,-3.34,9.58,1.12,0
26,2215352336000,-2.72,10.69,-2.45,0
26,2215402354000,-0.19,5.86,-0.34,0
26,2215452342000,4.44,8.35,-1.84,0
26,2215502330000,6.51,12.18,5.05,0
26,2215552348000,-4.59,10.8,-2.96,0
26,2215602306000,-6.97,9.28,-2.96,0
26,2215652324000,-2.87,6.97,-1.61,0
26,2215702342000,2.18,12.57,0.99,0
26,2215752330000,6.59,15.13,-0.3,0
26,2215802348000,3.49,2.91,4.99,0
26,2215852336000,-0.99,8.24,0.38,0
26,2215902324000,0.04,19.34,-3.53,0
26,2215952312000,-1.5,9.72,-1.76,0
26,2216002299000,-3.68,12.07,-1.46,0
26,2216052287000,-3.15,10.84,-2.03,0
26,2216102306000,-0.53,8.01,-0.72,0
26,2216152293000,0.93,8.47,-0.61,0
26,2216202342000,1.92,10.65,-1.18,0
26,2216202342000,1.92,10.65,-1.18,0
26,2216302135000,6.05,8.16,0.93,0
26,2216352183000,-1.08,13.29,1.69,0
26,2216402354000,-5.13,14.82,-3.17,0
26,2216452342000,-4.52,10.12,-2.14,0
26,2216502330000,-3.15,6.09,1.84,0
26,2216552348000,-1.23,8.28,3.68,0
26,2216602306000,-1.42,8.39,-1.38,0
26,2216652324000,4.06,14.82,-1.88,0
26,2216702342000,7.86,13.87,-2.72,0
26,2216752330000,5.33,15.7,-0.53,0
26,2216802348000,-4.59,15.13,4.4,0
26,2216852336000,-2.26,13.18,0.34,0
26,2216902293000,-4.71,13.33,-6.89,0
26,2216952342000,-5.79,6.47,-10.0,0
26,2217002330000,-3.95,3.02,-2.14,0
26,2217052318000,-3.17,8.28,0.0,0
26,2217102306000,0.89,17.01,2.98,0
26,2217152324000,1.76,11.92,4.86,0
26,2217202342000,3.15,11.56,-4.52,0
26,2217252330000,2.68,11.5,0.57,0
26,2217302348000,2.98,10.84,3.11,0
26,2217352336000,-1.53,17.24,-2.49,0
26,2217402324000,-5.67,18.35,-7.44,0
26,2217452342000,-3.6,8.5,-2.87,0
26,2217502330000,-1.84,4.94,-1.12,0
26,2217552379000,-4.56,3.21,0.11,0
26,2217602611000,-4.4,3.45,4.75,0
26,2217652324000,1.42,7.44,0.99,0
26,2217702342000,2.11,9.15,-4.59,0
26,2217752330000,-0.69,7.25,1.95,0
26,2217802318000,-1.08,7.25,2.11,0
26,2217852306000,0.42,7.25,-2.26,0
26,2217902324000,-2.91,17.27,0.95,0
26,2217952342000,0.93,16.47,3.3,0
26,2218002910000,-4.02,7.25,-4.4,0
26,2218052409000,-4.06,13.8,-5.33,0
26,2218102306000,0.42,10.61,-2.64,0
26,2218152324000,4.14,5.75,2.83,0
26,2218202342000,3.87,2.87,1.38,0
26,2218252330000,1.5,8.77,-1.95,0
26,2218302348000,1.73,14.37,-1.88,0
26,2218352336000,6.36,12.26,0.23,0
26,2218402324000,-5.33,10.92,1.61,0
26,2218452342000,-10.38,13.63,-5.86,0
26,2218502330000,-6.05,6.85,0.38,0
26,2218552348000,2.45,10.34,3.57,0
26,2218602306000,5.13,6.59,-1.33,0
26,2218652324000,3.76,11.45,-2.3,0
26,2218702342000,-0.61,9.58,3.06,0
26,2218752330000,-2.37,10.53,2.22,0
26,2218802348000,-2.11,17.62,-2.87,0
26,2218852336000,0.08,13.21,-1.61,0
26,2218902324000,-1.88,9.85,-0.61,0
26,2218952342000,-1.57,8.89,-2.6,0
26,2219002330000,-1.61,7.25,-3.45,0
26,2219052348000,1.46,3.83,-1.04,0
26,2219102306000,5.09,8.08,-1.5,0
26,2219152324000,6.66,13.1,1.54,0
26,2219202373000,-6.09,12.18,0.31,0
26,2219252330000,-7.97,11.37,-2.45,0
26,2219302348000,-3.21,8.85,-1.12,0
26,2219352336000,3.3,13.72,0.0,0
26,2219402324000,8.2,15.09,0.42,0
26,2219452342000,4.52,2.79,2.56,0
26,2219502330000,1.18,8.96,-1.46,0
26,2219552348000,-7.63,19.34,-5.52,0
26,2219602306000,-2.3,9.0,-0.8,0
26,2219652354000,-4.02,10.46,0.23,0
26,2219702373000,-2.49,7.46,-1.57,0
26,2219752330000,-1.08,5.48,-1.8,0
26,2219802348000,0.19,6.13,-1.23,0
26,2219852336000,0.69,11.03,-0.08,0
26,2219902354000,3.15,11.22,-0.04,0
26,2219952373000,7.06,15.55,-3.76,0
26,2220002635000,-4.63,13.18,-1.38,0
26,2220052348000,-8.73,8.28,3.34,0
26,2220102306000,-4.4,7.21,0.08,0
26,2220152324000,3.02,10.88,-1.14,0
26,2220202342000,5.52,10.95,-0.89,0
26,2220253001000,2.6,7.97,-1.31,0
26,2220302348000,-0.19,6.7,-0.72,0
26,2220352336000,-2.18,10.61,0.34,0
26,2220402324000,-1.46,19.23,-3.49,0
26,2220452312000,-2.22,10.8,-0.99,0
26,2220502330000,-3.53,10.99,-0.46,0
26,2220552348000,-2.96,9.3,-1.42,0
26,2220602336000,-1.27,6.32,-1.8,0
26,2220652293000,0.42,6.4,-0.53,0
26,2220702373000,3.45,9.11,-2.72,0
26,2220752330000,7.97,10.69,-3.36,0
26,2220802348000,0.95,17.62,0.38,0
26,2220852336000,-11.07,13.53,3.38,0
26,2220902324000,-5.43,6.24,-1.14,0
26,2220952342000,0.34,11.69,-0.84,0
26,2221002330000,2.37,14.6,-0.27,0
26,2221052348000,3.11,11.22,-2.26,0
26,2221102306000,2.96,3.87,-1.18,0
26,2221152324000,1.92,0.38,-2.22,0
26,2221202342000,1.33,10.53,0.5,0
26,2221252422000,-4.99,18.7,-4.9,0
26,2221302348000,-2.87,7.86,0.42,0
26,2221362254000,-5.2,12.15,-0.08,0
26,2221412273000,-3.02,7.59,-2.07,0
26,2221462321000,0.93,5.83,-3.91,0
26,2221512309000,4.02,9.0,-4.1,0
26,2221562297000,7.67,10.5,-3.36,0
26,2221612315000,-0.84,14.25,5.05,0
26,2221662303000,-8.77,12.83,1.84,0
26,2221712291000,-3.68,8.2,-2.49,0
26,2221762309000,0.8,12.11,-1.61,0
26,2221812297000,4.18,14.94,0.23,0
26,2221862346000,3.72,7.55,0.23,0
26,2221912120000,1.46,0.42,2.83,0
26,2221962169000,6.82,5.41,-3.26,0
26,2222012248000,-3.21,19.15,-6.28,0
26,2222062297000,-5.37,11.96,3.45,0
26,2222112346000,-1.69,8.35,-1.5,0
26,2222162303000,-3.91,13.82,-2.96,0
26,2222212291000,-0.61,7.89,-2.07,0
26,2222262309000,0.31,7.93,-0.8,0
26,2222312328000,1.46,10.0,-2.75,0
26,2222362315000,5.01,6.85,3.21,0
26,2222412303000,6.74,14.98,4.37,0
26,2222462291000,-3.45,19.57,-8.66,0
26,2222512309000,-6.59,14.94,-3.36,0
26,2222562297000,-7.74,10.61,-3.68,0
26,2222612315000,-4.86,9.23,-2.26,0
26,2222662303000,-10.65,4.6,4.44,0
26,2222712321000,-7.16,7.35,4.18,0
26,2222762309000,2.68,11.11,2.34,0
26,2222812297000,9.3,13.95,-8.05,0
26,2222862315000,3.76,5.71,-4.59,0
26,2222912303000,-1.99,16.44,-4.21,0
26,2222962291000,-7.86,11.3,8.69,0
26,2223012248000,-3.53,8.01,-1.69,0
26,2223062297000,-5.33,11.75,-4.79,0
26,2223112315000,-4.67,8.24,-4.48,0
26,2223162303000,-2.96,7.67,-3.72,0
26,2223212291000,-2.03,10.08,-2.26,0
26,2223262309000,2.22,12.83,6.74,0
26,2223312297000,0.46,9.96,0.69,0
26,2223362376000,0.34,10.88,-2.91,0
26,2223412303000,-0.91,10.0,1.23,0
26,2223462291000,-1.04,13.18,-0.65,0
26,2223512309000,1.95,12.79,-1.12,0
26,2223562297000,2.56,11.22,0.76,0
26,2223612346000,-5.2,18.28,-3.72,0
26,2223662303000,-7.31,14.82,-7.27,0
26,2223712321000,-3.53,7.89,-3.6,0
26,2223762309000,-3.68,7.31,7.01,0
26,2223812297000,-4.33,4.14,-4.79,0
26,2223862315000,-4.02,2.98,0.0,0
26,2223912303000,0.89,7.46,4.56,0
26,2223962291000,1.42,9.19,-3.83,0
26,2224012248000,0.93,6.78,-1.04,0
26,2224062297000,-0.23,9.3,-0.57,0
26,2224112346000,-0.95,9.77,-0.34,0
26,2224162303000,-2.14,7.63,0.34,0
26,2224212291000,-5.63,18.62,2.96,0
26,2224262309000,0.08,10.61,1.08,0
26,2224312297000,-2.72,6.97,-6.05,0
26,2224362315000,-2.98,11.3,-4.67,0
26,2224412334000,-1.31,6.66,-1.08,0
26,2224462291000,1.65,5.86,-1.31,0
26,2224512309000,1.95,9.66,0.95,0
26,2224562297000,2.56,10.88,-0.53,0
26,2224612346000,5.22,11.11,-2.87,0
26,2224662334000,3.91,18.5,-3.17,0
26,2224712291000,-10.65,14.14,2.34,0
26,2224762309000,-7.55,5.48,0.76,0
26,2224812297000,-3.83,6.47,-1.18,0
26,2224862315000,3.38,10.15,1.08,0
26,2224912303000,5.79,10.69,0.5,0
26,2224962321000,2.26,10.73,-2.37,0
26,2225012309000,-1.69,7.4,0.11,0
26,2225062297000,-3.83,15.09,1.18,0
26,2225112346000,-4.33,17.05,-2.96,0
26,2225162303000,-2.53,8.54,-2.03,0
26,2225212291000,-2.22,8.58,-1.65,0
26,2225262279000,-2.11,7.5,-0.95,0
26,2225312297000,-0.72,7.44,-1.5,0
26,2225362315000,0.23,9.53,-0.53,0
26,2225412303000,1.5,11.92,-0.69,0
26,2225462291000,2.79,9.66,0.11,0
26,2225512309000,4.25,10.38,0.38,0
26,2225562297000,-0.11,18.47,-2.53,0
26,2225612315000,-9.92,15.36,-0.57,0
26,2225662303000,-7.82,3.83,3.95,0
26,2225712291000,-3.91,5.33,-0.76,0
26,2225762309000,0.57,8.24,0.19,0
26,2225812297000,4.1,8.5,1.12,0
26,2225862315000,2.22,13.8,-2.41,0
26,2225912303000,0.95,8.28,-1.33,0
26,2225962291000,-1.42,10.0,0.23,0
26,2226012309000,-4.29,16.51,0.76,0
26,2226062297000,-2.34,10.99,-2.53,0
26,2226112346000,-4.06,10.46,-1.42,0
26,2226162303000,-3.36,9.34,-0.61,0
26,2226212291000,-1.57,8.54,-2.07,0
26,2226212291000,-1.57,8.54,-2.07,0
26,2226312389000,1.14,8.31,-1.61,0
26,2226363536000,5.52,8.58,-3.21,0
26,2226412212000,6.47,16.78,-2.87,0
26,2226462230000,-9.62,13.91,6.97,0
26,2226512279000,-8.47,8.12,0.46,0
26,2226562328000,-3.15,5.43,-1.65,0
26,2226612315000,0.84,11.45,-0.95,0
26,2226662303000,3.91,14.98,-1.27,0
26,2226712291000,4.48,6.55,-2.41,0
26,2226762309000,3.06,3.11,2.07,0
26,2226812297000,-2.37,15.64,-0.84,0
26,2226862346000,-5.18,17.43,-1.95,0
26,2226932292000,-3.57,9.08,0.46,0
26,2226932292000,-3.57,9.08,0.46,0
26,2226982280000,-4.14,8.73,-2.98,0
26,2227032298000,-2.07,5.43,-1.69,0
26,2227082317000,0.11,7.7,-1.8,0
26,2227142314000,7.31,9.47,-5.13,0
26,2227192302000,4.29,17.01,2.76,0
26,2227242290000,-9.34,11.56,5.13,0
26,2227292308000,-5.37,8.54,-1.76,0
26,2227342265000,-0.99,11.69,-1.99,0
26,2227392253000,4.75,13.38,-0.11,0
26,2227442302000,3.06,8.2,-0.27,0
26,2227492290000,1.46,2.64,-0.42,0
26,2227542277000,0.72,10.5,-0.27,0
26,2227592326000,-1.42,19.42,-4.06,0
26,2227642314000,-3.11,10.84,-1.33,0
26,2227692332000,-3.34,9.62,0.15,0
26,2227742320000,-3.87,9.43,-1.95,0
26,2227792308000,-2.26,5.43,-1.95,0
26,2227842326000,-0.95,9.89,-2.37,0
26,2227892345000,2.6,8.73,-0.19,0
26,2227942332000,5.9,12.64,-0.5,0
26,2227992290000,-1.88,14.48,1.31,0
26,2228042339000,-7.7,10.8,-1.14,0
26,2228092326000,-5.79,7.74,-1.42,0
26,2228142436000,-1.5,8.12,1.84,0
26,2228192363000,4.9,15.09,3.34,0
26,2228242320000,3.68,9.28,-2.6,0
26,2228292338000,2.6,1.84,-1.04,0
26,2228342326000,0.42,4.29,-0.84,0
26,2228392314000,-3.49,18.54,-1.65,0
26,2228442332000,-5.09,16.32,1.27,0
26,2228492320000,-2.22,8.16,0.57,0
26,2228542339000,-1.99,10.95,-2.96,0
26,2228592326000,-1.33,11.3,-1.38,0
26,2228642345000,-0.5,11.18,-1.14,0
26,2228692302000,1.73,10.76,-1.31,0
26,2228742320000,4.56,6.09,-0.91,0
26,2228792338000,9.19,13.48,4.48,0
26,2228842326000,-1.23,19.5,-4.1,0
26,2228892375000,-7.5,19.53,-5.67,0
26,2228942332000,-9.81,12.45,-3.15,0
26,2228992320000,-6.7,4.67,-1.8,0
26,2229042339000,-9.15,4.1,0.8,0
26,2229092326000,-7.5,2.45,0.38,0
26,2229142345000,-0.8,11.26,9.3,0
26,2229192332000,11.07,18.24,-7.55,0
26,2229242320000,1.08,6.09,-0.99,0
26,2229292338000,-2.03,11.96,-5.67,0
26,2229342326000,0.89,17.24,11.35,0
26,2229392375000,-4.82,9.19,-2.72,0
26,2229442332000,-4.48,8.54,-4.25,0
26,2229492320000,-4.18,10.88,-2.41,0
26,2229542338000,0.08,8.69,-4.06,0
26,2229592326000,-0.08,8.81,-4.25,0
26,2229642345000,-5.05,10.88,3.72,0
26,2229692302000,-1.65,10.04,2.56,0
26,2229742320000,0.34,9.28,-5.67,0
26,2229792338000,-1.12,10.42,1.84,0
26,2229842326000,-1.65,11.35,-1.14,0
26,2229892345000,-2.53,12.68,-1.33,0
26,2229942332000,2.91,12.41,-1.73,0
26,2229992290000,3.34,11.65,1.69,0
26,2230042369000,-4.48,16.55,-1.8,0
26,2230092326000,-10.04,15.64,-7.44,0
26,2230142375000,-6.85,7.89,-0.53,0
26,2230192332000,2.03,7.5,1.12,0
26,2230242320000,-2.41,5.6,-2.87,0
26,2230292338000,-5.13,2.37,-2.14,0
26,2230342326000,-3.21,4.56,3.87,0
26,2230392467000,-0.23,7.67,-0.61,0
26,2230442332000,0.93,9.11,1.31,0
26,2230492320000,-1.33,6.47,1.12,0
26,2230542369000,-1.04,9.58,-1.61,0
26,2230592326000,0.19,10.42,-0.99,0
26,2230642345000,-4.59,19.27,0.8,0
26,2230692302000,0.76,12.68,6.4,0
26,2230742320000,-2.41,6.97,-5.75,0
26,2230792400000,-3.11,11.96,-7.31,0
26,2230842326000,-1.42,5.6,-0.38,0
26,2230892345000,1.76,6.97,0.31,0
26,2230942332000,2.37,8.35,2.11,0
26,2230992290000,0.95,7.25,1.73,0
26,2231042339000,-1.5,9.85,-0.15,0
26,2231092326000,4.44,12.64,-4.48,0
26,2231142345000,1.46,19.27,-4.44,0
26,2231192332000,-10.11,9.08,5.41,0
26,2231242290000,-6.32,7.06,-0.19,0
26,2231292369000,-0.69,6.02,-0.99,0
26,2231342326000,4.71,7.82,1.04,0
26,2231412364000,2.45,12.68,-2.37,0
26,2231462199000,-0.46,6.85,0.27,0
26,2231512340000,-2.75,12.98,2.26,0
26,2231562297000,-1.88,17.58,-3.36,0
26,2231612315000,-3.64,10.15,-3.17,0
