user-id,timestamp,accX,accY,accZ,ActivityEncoded
14,57711602306000,16.4,10.23,1.69,0
14,57711652294000,9.19,-0.34,3.99,0
14,57711702313000,6.78,4.67,1.76,0
14,57711752300000,17.82,18.81,-3.11,0
14,57711802319000,4.75,10.23,-4.02,0
14,57711852306000,1.46,1.5,0.46,0
14,57711902294000,13.44,4.37,1.8,0
14,57711952313000,13.67,7.74,8.2,0
14,57712002575000,4.82,7.5,0.57,0
14,57712052319000,8.31,10.15,-7.21,0
14,57712102306000,8.58,15.79,-10.72,0
14,57712152325000,-2.56,10.08,5.28,0
14,57712202313000,-1.38,8.43,-1.27,0
14,57712252300000,3.68,6.82,-1.42,0
14,57712302319000,17.54,10.46,4.4,0
14,57712352306000,8.47,-1.14,5.43,0
14,57712402294000,4.63,3.49,-0.34,0
14,57712452313000,17.47,19.5,-1.5,0
14,57712502300000,3.68,7.44,3.99,0
14,57712552319000,4.63,2.26,-4.33,0
14,57712602306000,12.91,4.37,-2.91,0
14,57712652294000,10.8,5.63,7.25,0
14,57712702313000,4.44,6.21,10.46,0
14,57712752300000,8.62,8.39,-5.37,0
14,57712802319000,13.18,14.67,-11.26,0
14,57712852306000,2.76,11.37,-4.52,0
14,57712902294000,-2.34,11.54,8.24,0
14,57712952740000,5.41,7.31,4.29,0
14,57713002300000,14.67,5.22,6.13,0
14,57713052349000,4.67,0.46,1.33,0
14,57713102306000,3.95,1.65,0.5,0
14,57713152294000,14.14,15.24,-0.99,0
14,57713202313000,10.92,14.18,4.56,0
14,57713252300000,3.11,6.02,-3.98,0
14,57713302319000,13.67,3.38,1.46,0
14,57713352306000,13.53,2.45,10.8,0
14,57713408794000,8.96,5.9,-0.23,0
14,57713408794000,8.96,5.9,-0.23,0
14,57713462292000,18.31,11.3,-7.82,0
14,57713512341000,18.66,18.66,-11.54,0
14,57713562328000,2.15,15.79,-6.93,0
14,57713612347000,-10.5,17.77,6.09,0
14,57713662334000,-5.63,6.78,1.69,0
14,57713712322000,2.07,5.28,13.33,0
14,57713762341000,16.25,13.53,8.08,0
14,57713812328000,7.27,4.02,0.89,0
14,57713862347000,7.44,18.81,-2.49,0
14,57713912334000,2.07,9.47,-3.83,0
14,57713962353000,3.15,5.63,-13.17,0
14,57714012310000,6.21,7.97,-8.01,0
14,57714062328000,5.52,11.45,-3.11,0
14,57714112347000,0.04,15.09,6.47,0
14,57714162334000,2.11,10.5,8.96,0
14,57714212322000,9.47,9.04,-3.41,0
14,57714262341000,11.3,8.39,-1.08,0
14,57714312328000,10.69,12.83,9.62,0
14,57714362347000,15.6,9.51,-4.21,0
14,57714412334000,12.98,12.34,-7.35,0
14,57714462322000,11.11,16.97,-15.28,0
14,57714512341000,1.5,10.88,-7.5,0
14,57714562328000,-0.72,8.01,3.26,0
14,57714612347000,-2.37,5.13,-2.91,0
14,57714662334000,-0.38,4.52,-0.89,0
14,57714712322000,1.95,11.26,3.91,0
14,57714762341000,10.12,11.73,6.02,0
14,57714812328000,10.19,16.25,0.42,0
14,57714862347000,2.49,9.62,0.72,0
14,57714912334000,-1.46,2.56,-1.53,0
14,57714962322000,3.3,8.12,-1.8,0
14,57715012341000,9.34,12.15,-5.09,0
14,57715062328000,5.28,6.28,-0.11,0
14,57715112347000,7.06,7.78,4.67,0
14,57715162334000,11.73,5.6,0.04,0
14,57715212322000,7.78,4.33,2.68,0
14,57715262341000,9.47,5.28,0.23,0
14,57715322338000,12.41,10.0,2.34,0
14,57715382336000,5.71,10.04,-3.45,0
14,57715432324000,6.02,18.58,-10.65,0
14,57715482342000,-2.87,10.57,6.89,0
14,57715532330000,0.99,8.28,-0.91,0
14,57715582348000,3.87,6.66,4.02,0
14,57715632366000,15.55,11.3,-0.38,0
14,57715682323000,9.0,4.94,-0.69,0
14,57715732342000,6.09,0.38,3.76,0
14,57715782330000,5.09,4.67,0.72,0
14,57715832348000,14.67,16.09,-2.14,0
14,57715882336000,13.33,13.99,0.53,0
14,57715932324000,-0.3,7.44,0.42,0
14,57715982342000,1.61,6.13,-2.41,0
14,57716032330000,5.24,11.03,-2.72,0
14,57716082348000,10.42,4.14,3.38,0
14,57716132336000,11.3,3.64,-3.34,0
14,57716202343000,10.65,9.96,-3.34,0
14,57716252270000,11.45,12.03,-9.72,0
14,57716302349000,2.34,10.69,-7.16,0
14,57716352245000,-0.57,12.87,9.89,0
14,57716402294000,1.46,7.82,-1.31,0
14,57716452313000,5.28,8.28,2.07,0
14,57716502331000,15.4,11.03,1.88,0
14,57716552319000,8.58,0.34,3.91,0
14,57716602306000,5.94,0.15,3.21,0
14,57716652294000,10.27,11.88,-1.88,0
14,57716702313000,15.43,17.69,-4.79,0
14,57716752300000,2.49,6.24,3.91,0
14,57716802380000,4.94,5.33,-1.04,0
14,57716852306000,14.63,6.4,-0.3,0
14,57716902294000,8.28,6.44,8.28,0
14,57716952313000,5.48,6.59,3.53,0
14,57717002300000,9.34,7.63,-5.94,0
14,57717052319000,17.01,16.13,-11.18,0
14,57717102306000,1.46,9.08,-4.75,0
14,57717152294000,-3.53,11.45,7.7,0
14,57717202313000,1.76,7.27,2.18,0
14,57717252331000,9.51,9.38,5.09,0
14,57717302319000,11.5,5.37,3.76,0
14,57717352306000,5.9,0.72,4.06,0
14,57717402294000,6.05,7.55,-1.53,0
14,57717452313000,18.31,19.46,2.49,0
14,57717502331000,0.08,9.92,-3.45,0
14,57717552319000,2.68,4.37,-3.98,0
14,57717602306000,6.51,8.39,-4.18,0
14,57717652294000,9.58,5.37,-0.23,0
14,57717702313000,9.19,1.38,11.56,0
14,57717752300000,15.85,2.64,6.74,0
14,57717802319000,13.99,12.91,-4.94,0
14,57717852306000,17.24,15.05,-9.08,0
14,57717902294000,8.66,16.04,-7.25,0
14,57717952343000,-2.72,12.79,2.22,0
14,57718002514000,-2.14,7.93,5.01,0
14,57718052319000,3.11,2.64,-1.08,0
14,57718102306000,5.33,3.6,4.67,0
14,57718152294000,14.52,7.16,8.89,0
14,57718202343000,13.82,8.69,4.18,0
14,57718252300000,4.1,15.75,-6.63,0
14,57718302288000,2.07,19.53,-6.63,0
14,57718352306000,0.34,7.21,-10.65,0
14,57718402294000,5.28,6.97,-5.9,0
14,57718452313000,8.12,13.18,-4.33,0
14,57718502300000,-0.89,9.89,7.31,0
14,57718552319000,5.98,7.25,3.68,0
14,57718602276000,10.92,7.25,-2.79,0
14,57718652294000,11.45,5.52,-1.53,0
14,57718702313000,14.75,11.65,14.06,0
14,57718752331000,15.09,7.7,-3.21,0
14,57718802319000,18.2,10.69,-6.13,0
14,57718852306000,18.24,12.45,-15.6,0
14,57718902325000,7.44,10.15,-15.36,0
14,57718952313000,1.5,9.62,-7.27,0
14,57719002300000,-1.46,12.68,-2.45,0
14,57719052319000,-0.57,10.38,-1.95,0
14,57719102306000,-0.34,8.39,-2.53,0
14,57719152294000,1.61,9.0,-2.22,0
14,57719202313000,6.13,11.75,13.67,0
14,57719252300000,7.27,10.61,-0.84,0
14,57719302319000,10.53,11.35,-3.15,0
14,57719352306000,2.72,4.18,-0.34,0
14,57719402294000,6.4,10.19,-3.68,0
14,57719452313000,6.02,9.89,-5.41,0
14,57719502300000,4.21,6.47,-1.27,0
14,57719552319000,4.4,8.08,-0.57,0
14,57719602337000,5.22,11.14,-0.3,0
14,57719652294000,14.86,6.44,13.44,0
14,57719702313000,11.75,9.38,0.34,0
14,57719752300000,8.31,14.98,-4.37,0
14,57719802319000,4.99,14.25,-8.35,0
14,57719852337000,5.67,9.77,-3.45,0
14,57719902294000,-2.87,10.0,2.07,0
14,57719952343000,-1.92,5.13,-0.8,0
14,57720002758000,0.84,2.76,-0.61,0
14,57720052319000,5.24,6.05,0.8,0
14,57720102306000,11.99,10.04,-2.07,0
14,57720152294000,3.49,2.07,7.01,0
14,57720202313000,6.28,11.75,3.68,0
14,57720252300000,15.36,18.01,-4.82,0
14,57720302319000,8.85,10.23,-0.42,0
14,57720352306000,3.17,4.71,-0.04,0
14,57720402294000,10.04,6.47,-0.53,0
14,57720452313000,11.18,5.6,4.48,0
14,57720502300000,5.83,6.13,7.08,0
14,57720552319000,4.94,7.86,-2.87,0
14,57720602306000,9.28,9.66,-7.89,0
14,57720652294000,7.97,13.63,-8.12,0
14,57720702313000,-2.18,11.99,7.21,0
14,57720752300000,1.99,9.7,-1.23,0
14,57720802319000,8.28,10.46,3.3,0
14,57720852306000,15.17,8.01,2.41,0
14,57720902294000,5.28,1.31,2.11,0
14,57720952313000,2.83,-0.19,2.41,0
14,57721002331000,10.99,11.35,-0.34,0
14,57721052349000,16.7,18.35,-4.63,0
14,57721102306000,2.72,4.79,-0.69,0
14,57721152294000,3.41,1.42,-0.42,0
14,57721202313000,14.18,7.25,0.61,0
14,57721202313000,14.18,7.25,0.61,0
14,57721262280000,9.53,5.43,9.77,0
14,57721312328000,7.08,7.55,-0.65,0
14,57721362347000,7.63,9.58,-7.01,0
14,57721412334000,7.59,14.82,-8.35,0
14,57721462322000,1.18,12.98,1.88,0
14,57721512341000,0.99,13.06,0.38,0
14,57721562328000,9.62,8.12,5.71,0
14,57721612347000,16.4,9.38,-0.5,0
14,57721662334000,9.11,0.0,3.11,0
14,57721712322000,0.84,0.99,4.33,0
14,57721762341000,1.42,9.23,-3.34,0
14,57721812328000,11.5,18.12,-6.63,0
14,57721862347000,11.45,16.55,-2.72,0
14,57721912334000,4.79,3.76,-0.57,0
14,57721962353000,9.66,-0.19,-0.04,0
14,57722012310000,6.4,5.67,3.91,0
14,57722062328000,5.9,3.99,5.37,0
14,57722112347000,6.21,4.56,1.04,0
14,57722162334000,7.7,8.47,-4.67,0
14,57722212353000,13.72,15.13,-9.11,0
14,57722262341000,6.47,15.47,-4.63,0
14,57722312328000,-1.65,11.96,6.97,0
14,57722362347000,1.95,9.19,3.79,0
14,57722412334000,11.96,8.5,8.43,0
14,57722462322000,13.14,6.02,0.5,0
14,57722512768000,6.21,1.08,2.83,0
14,57722562328000,1.73,5.63,-1.23,0
14,57722612347000,5.56,17.73,-2.68,0
14,57722662334000,13.25,19.31,-9.85,0
14,57722712322000,9.19,10.65,-1.8,0
14,57722762341000,4.86,5.86,-2.34,0
14,57722812328000,0.57,6.13,11.99,0
14,57722862347000,7.89,4.44,1.84,0
14,57722912334000,7.97,3.95,4.25,0
14,57722962322000,7.31,8.31,-1.73,0
14,57723012341000,15.6,11.96,-1.99,0
14,57723062328000,13.95,15.98,-9.28,0
14,57723112347000,4.1,9.38,-2.41,0
14,57723162334000,2.15,8.73,-0.23,0
14,57723212322000,0.08,5.33,-3.87,0
14,57723262341000,-0.61,4.86,-3.72,0
14,57723312328000,2.68,8.16,-2.22,0
14,57723362377000,9.58,12.6,12.72,0
14,57723412334000,8.73,6.97,2.3,0
14,57723462322000,7.08,10.8,-1.08,0
14,57723512341000,8.89,15.79,-0.91,0
14,57723562328000,3.49,5.75,-3.36,0
14,57723612347000,5.22,4.82,-4.52,0
14,57723662334000,6.78,8.24,-4.56,0
14,57723712322000,5.22,8.69,-2.37,0
14,57723762341000,3.34,8.96,-0.23,0
14,57723812328000,0.38,12.11,6.36,0
14,57723862347000,6.21,10.0,-1.76,0
14,57723912334000,9.89,10.42,-4.56,0
14,57723962353000,9.77,7.44,-1.99,0
14,57724072277000,11.84,12.15,-1.99,0
14,57724072277000,11.84,12.15,-1.99,0
14,57724122295000,8.92,17.16,-8.35,0
14,57724172405000,3.49,16.4,-9.81,0
14,57724222302000,7.12,9.43,6.63,0
14,57724272320000,-2.49,8.24,-2.53,0
14,57724322338000,-3.98,1.76,-2.56,0
14,57724382336000,-0.46,1.69,-3.17,0
14,57724432324000,4.63,9.77,0.23,0
14,57724482342000,10.42,12.57,0.38,0
14,57724532330000,4.9,2.96,9.3,0
14,57724582378000,3.72,8.58,-0.42,0
14,57724632336000,12.83,17.5,-5.71,0
14,57724682323000,14.56,12.41,1.46,0
14,57724732311000,4.75,5.22,2.22,0
14,57724782330000,11.5,4.21,-1.31,0
14,57724832348000,9.77,4.52,4.4,0
14,57724882336000,3.11,6.05,5.79,0
14,57724932324000,6.82,5.43,-2.75,0
14,57724982342000,7.86,8.47,-8.47,0
14,57725032330000,11.92,18.09,-2.3,0
14,57725082348000,-1.12,12.26,2.41,0
14,57725132336000,2.53,7.55,-1.5,0
14,57725182323000,8.58,6.13,8.05,0
14,57725232311000,13.21,8.43,1.95,0
14,57725282269000,4.99,2.68,-0.23,0
14,57725332348000,1.14,-0.27,0.89,0
14,57725382336000,4.18,6.63,0.0,0
14,57725432324000,17.97,19.5,-4.4,0
14,57725482342000,8.62,9.62,0.89,0
14,57725532330000,4.25,0.34,0.69,0
14,57725582348000,13.82,3.79,2.98,0
14,57725632336000,8.16,8.5,11.99,0
14,57725682323000,4.75,7.16,-2.68,0
14,57725732311000,6.32,9.08,-9.23,0
14,57725782330000,9.28,15.02,-6.63,0
14,57725832348000,-0.3,12.49,-0.5,0
14,57725882336000,2.22,9.7,-0.15,0
14,57725932324000,11.07,9.43,7.06,0
14,57725982342000,10.73,5.56,3.72,0
14,57726032330000,2.98,0.57,1.12,0
14,57726082317000,2.6,0.57,1.92,0
14,57726132336000,8.58,9.04,-1.88,0
14,57726182323000,18.47,18.81,-4.44,0
14,57726232311000,6.36,5.75,-0.95,0
14,57726282238000,8.5,-1.88,3.06,0
14,57726332348000,12.37,7.67,6.02,0
14,57726382336000,1.73,7.78,-0.69,0
14,57726432354000,4.82,7.08,-8.39,0
14,57726482342000,6.85,11.75,-7.16,0
14,57726532330000,4.79,14.44,0.19,0
14,57726582317000,0.93,10.57,-0.38,0
14,57726632336000,5.83,7.63,2.03,0
14,57726682323000,13.57,4.1,5.83,0
14,57726732311000,4.6,1.73,0.27,0
14,57726782330000,4.06,0.84,0.8,0
14,57726832348000,8.47,10.0,-0.19,0
14,57726882366000,17.47,19.34,-5.48,0
14,57726932354000,6.36,6.09,0.89,0
14,57726982342000,16.89,-3.21,4.4,0
14,57727032330000,12.34,3.91,8.81,0
14,57727082348000,8.08,10.15,-3.11,0
14,57727132336000,18.12,15.75,-10.31,0
14,57727182323000,15.89,17.58,-12.18,0
14,57727232311000,-0.76,13.63,-5.98,0
14,57727282360000,-12.41,15.36,8.35,0
14,57727332348000,1.92,7.5,11.11,0
14,57727382366000,12.11,9.51,6.17,0
14,57727432324000,7.27,3.3,1.46,0
14,57727482372000,2.64,3.6,-4.06,0
14,57727532360000,6.55,17.67,-10.15,0
14,57727582348000,11.11,15.02,-9.28,0
14,57727632336000,6.85,9.47,-3.02,0
14,57727682354000,4.86,13.44,0.04,0
14,57727732311000,-0.19,12.72,15.02,0
14,57727782330000,9.89,5.52,3.57,0
14,57727832348000,5.33,1.76,-0.42,0
14,57727882336000,10.57,8.81,-5.79,0
14,57727932324000,19.53,16.09,-6.47,0
14,57727982342000,6.78,18.24,-9.77,0
14,57728032330000,-5.2,14.98,0.99,0
14,57728082348000,-3.36,7.97,-2.87,0
14,57728132336000,-2.34,4.33,-0.8,0
14,57728182323000,3.83,1.27,7.67,0
14,57728232372000,8.66,5.9,-1.73,0
14,57728282330000,10.57,14.02,-2.37,0
14,57728332348000,3.21,11.75,-1.61,0
14,57728382336000,1.46,11.26,-4.79,0
14,57728432324000,4.37,12.37,-5.98,0
14,57728482342000,4.75,10.27,-2.34,0
14,57728532330000,7.21,9.89,-0.15,0
14,57728582348000,15.43,5.01,16.17,0
14,57728632336000,13.18,0.31,2.83,0
14,57728682323000,8.16,10.04,-2.26,0
14,57728732952000,13.21,16.93,-6.47,0
14,57728782330000,8.2,17.54,-10.0,0
14,57728832348000,-5.41,13.38,10.12,0
14,57728882336000,0.8,5.86,0.23,0
14,57728932324000,2.03,4.4,-0.76,0
14,57728982342000,5.41,5.56,0.8,0
14,57729032360000,8.66,8.39,-0.42,0
14,57729082348000,4.67,3.26,-0.15,0
14,57729132305000,2.41,4.06,6.7,0
14,57729182293000,6.89,10.04,-0.53,0
14,57729232342000,16.51,19.57,-5.67,0
14,57729282330000,7.27,7.01,-0.99,0
14,57729332378000,4.02,1.18,-0.27,0
14,57729382336000,11.18,5.33,2.98,0
14,57729432354000,8.16,6.82,3.87,0
14,57729482342000,5.48,4.52,4.06,0
14,57729532330000,7.89,3.53,-1.92,0
14,57729582348000,8.47,8.05,-6.17,0
14,57729632946000,11.5,17.27,-9.7,0
14,57729682323000,1.12,14.67,6.47,0
14,57729732342000,1.46,11.26,-0.76,0
14,57729782330000,0.95,2.91,0.19,0
14,57729832348000,10.46,4.82,6.36,0
14,57729882488000,11.3,1.76,0.53,0
14,57729932324000,6.47,5.56,1.61,0
14,57729982342000,16.97,18.28,-2.75,0
14,57730032330000,8.28,11.88,-1.42,0
14,57730082348000,3.87,2.72,-0.23,0
14,57730132336000,17.05,1.69,2.41,0
14,57730182323000,5.79,8.47,11.11,0
14,57730232342000,2.87,6.4,-2.53,0
14,57730282269000,4.67,5.98,-8.88,0
14,57730332348000,12.15,13.44,-3.79,0
14,57730382336000,1.8,12.98,-1.08,0
14,57730432324000,2.3,8.96,-0.99,0
14,57730482342000,7.55,9.19,5.22,0
14,57730532330000,12.87,5.71,7.97,0
14,57730582348000,4.37,2.15,1.5,0
14,57730632336000,1.8,-1.61,0.15,0
14,57730682323000,2.91,5.98,-1.42,0
14,57730732342000,19.15,19.57,-1.46,0
14,57730782330000,6.55,10.84,0.38,0
14,57730832348000,5.63,0.5,-5.09,0
14,57730882336000,15.4,5.18,2.15,0
14,57730932324000,9.81,2.18,10.34,0
14,57730982342000,4.52,5.63,3.26,0
14,57731032330000,9.04,5.18,-6.13,0
14,57731082348000,14.37,11.37,-9.47,0
14,57731132336000,8.28,15.02,-6.24,0
14,57731182323000,-2.49,14.18,9.53,0
14,57731232342000,2.34,8.39,0.42,0
14,57731282238000,10.23,8.01,10.65,0
14,57731332348000,14.63,5.09,4.63,0
14,57731382336000,9.04,1.18,1.12,0
14,57731432324000,2.68,4.71,-0.57,0
14,57731482372000,1.5,14.37,-0.91,0
14,57731532391000,10.15,19.57,-8.05,0
14,57731582348000,6.24,10.15,-3.64,0
14,57731632336000,9.0,4.29,-2.45,0
14,57731682323000,8.66,9.77,2.87,0
14,57731732342000,9.0,7.67,13.14,0
14,57731782360000,11.03,4.02,6.63,0
14,57731852306000,8.73,9.47,-1.38,0
14,57731902233000,19.46,9.04,-3.83,0
14,57731952343000,16.36,15.09,-11.84,0
14,57732002270000,5.22,16.36,-15.62,0
14,57732052319000,-0.69,9.62,-6.32,0
14,57732102306000,-4.06,6.51,0.27,0
14,57732152294000,0.0,6.32,-1.95,0
14,57732202313000,3.11,11.99,-2.53,0
14,57732252300000,8.12,9.81,13.63,0
14,57732302319000,0.11,6.63,-0.53,0
14,57732352306000,2.11,9.3,-1.8,0
14,57732402294000,11.35,18.58,-4.99,0
14,57732452313000,3.68,3.68,-4.25,0
14,57732502300000,5.6,3.99,-3.57,0
14,57732552319000,6.93,7.46,-2.34,0
14,57732602306000,4.79,7.44,0.61,0
14,57732652294000,4.02,11.11,0.19,0
14,57732702313000,6.7,12.53,0.42,0
14,57732752331000,8.62,8.16,3.68,0
14,57732802319000,6.09,9.66,5.28,0
14,57732852306000,9.34,8.81,-1.65,0
14,57732902294000,13.38,7.25,-1.08,0
14,57732952343000,6.85,17.01,-4.9,0
14,57733002300000,3.68,15.79,-10.72,0
14,57733052319000,2.64,9.85,3.53,0
14,57733102306000,-2.41,8.12,0.08,0
14,57733152294000,-2.34,3.02,-1.12,0
14,57733202313000,1.38,3.53,-0.38,0
14,57733252300000,7.97,12.07,-0.15,0
14,57733302319000,12.91,9.7,-0.19,0
14,57733352306000,5.48,2.64,6.97,0
14,57733402325000,0.76,1.73,2.79,0
14,57733452313000,4.48,6.85,-0.89,0
14,57733502300000,17.88,19.19,-5.82,0
14,57733552319000,6.82,9.89,4.18,0
14,57733602306000,3.41,2.76,-1.12,0
14,57733652294000,8.73,4.4,-1.99,0
14,57733702313000,5.67,5.01,0.65,0
14,57733752300000,3.83,6.47,0.15,0
14,57733802319000,15.32,3.57,4.67,0
14,57733852306000,15.4,10.23,4.25,0
14,57733902325000,8.89,12.03,-7.44,0
14,57733952313000,9.04,18.24,-11.5,0
14,57734002544000,0.69,9.28,11.56,0
14,57734052319000,-0.04,7.25,0.08,0
14,57734102306000,0.34,4.18,-0.99,0
14,57734152325000,6.32,7.59,2.15,0
14,57734202313000,13.59,7.7,1.54,0
14,57734252300000,8.62,-1.57,4.33,0
14,57734302319000,7.06,3.87,0.84,0
14,57734352306000,19.08,18.47,-4.33,0
14,57734402294000,8.58,12.72,2.41,0
14,57734452313000,1.38,5.6,-3.64,0
14,57734502300000,3.17,6.97,-5.56,0
14,57734552319000,5.09,9.11,-3.36,0
14,57734602306000,9.77,3.45,2.07,0
14,57734652294000,16.32,0.31,14.79,0
14,57734702313000,10.23,8.81,-1.92,0
14,57734752422000,13.91,13.38,-10.38,0
14,57734802319000,6.21,14.02,-10.31,0
14,57734852306000,-2.6,9.43,9.51,0
14,57734902294000,2.64,8.08,0.76,0
14,57734952313000,3.76,6.17,-0.04,0
14,57735002300000,11.56,10.95,3.38,0
14,57735052319000,9.81,5.83,-0.27,0
14,57735102306000,4.63,0.27,0.95,0
14,57735152294000,5.83,4.4,1.88,0
14,57735202313000,18.35,17.39,-3.3,0
14,57735252300000,9.58,14.25,-3.68,0
14,57735252300000,9.58,14.25,-3.68,0
14,57735312359000,-0.15,4.14,0.27,0
14,57735362347000,2.6,8.77,0.15,0
14,57735412334000,2.91,9.77,-2.79,0
14,57735462353000,8.31,4.29,3.21,0
14,57735512341000,13.91,3.34,6.82,0
14,57735562328000,8.92,10.19,-0.99,0
14,57735612347000,9.77,10.0,-8.58,0
14,57735662334000,9.7,15.64,-10.61,0
14,57735712322000,2.6,9.51,6.78,0
14,57735762341000,1.38,9.66,0.95,0
14,57735812328000,1.23,5.18,-0.53,0
14,57735862347000,5.18,7.06,3.45,0
14,57735912334000,9.43,5.43,0.04,0
14,57735962353000,5.41,-0.91,2.45,0
14,57736012310000,10.34,4.94,0.0,0
14,57736062328000,18.24,18.81,-2.22,0
14,57736112347000,5.75,8.05,4.71,0
14,57736162334000,5.18,2.83,-2.03,0
14,57736212322000,10.38,4.56,-1.18,0
14,57736262371000,15.17,6.05,3.57,0
14,57736312328000,15.83,10.12,-1.38,0
14,57736362347000,14.29,19.11,-4.44,0
14,57736412334000,5.86,16.55,-7.01,0
14,57736462322000,1.31,10.23,-4.52,0
14,57736512371000,-1.04,8.24,-4.18,0
14,57736562328000,-2.98,6.66,-1.8,0
14,57736612347000,2.15,9.34,7.06,0
14,57736662334000,9.51,9.81,4.75,0
14,57736712322000,13.63,11.11,-0.27,0
14,57736762341000,4.52,10.92,-1.76,0
14,57736812328000,1.38,8.08,-5.6,0
14,57736862347000,3.38,10.65,-10.72,0
14,57736922314000,4.48,11.45,-5.24,0
14,57736972302000,5.67,10.95,-2.3,0
14,57737022350000,2.03,10.8,4.21,0
14,57737082317000,4.14,9.85,8.08,0
14,57737132336000,10.12,8.2,-3.15,0
14,57737182323000,12.79,8.05,13.82,0
14,57737232372000,11.75,10.19,-4.63,0
14,57737282330000,16.86,10.15,-4.99,0
14,57737332348000,11.3,14.14,-11.54,0
14,57737382366000,6.36,11.3,-10.84,0
14,57737432324000,2.37,8.5,3.15,0
14,57737482342000,0.15,7.01,-2.91,0
14,57737532330000,-0.76,5.83,-3.83,0
14,57737582348000,-0.42,5.71,-2.3,0
14,57737632336000,4.33,12.91,4.02,0
14,57737682354000,9.47,10.88,8.81,0
14,57737732342000,3.06,10.38,-1.18,0
14,57737782330000,7.67,18.58,4.02,0
14,57737832348000,6.7,6.55,-1.88,0
14,57737882336000,6.36,2.76,-2.72,0
14,57737932354000,9.51,6.44,-3.53,0
14,57737982372000,6.97,8.62,-2.07,0
14,57738032330000,3.15,6.66,-0.57,0
14,57738082348000,4.75,8.35,10.99,0
14,57738132336000,11.56,5.98,-3.26,0
14,57738182323000,8.54,4.4,0.42,0
14,57738232342000,4.67,7.93,-0.42,0
14,57738282330000,4.18,7.82,-2.07,0
14,57738332348000,8.77,6.74,1.27,0
14,57738382336000,12.03,4.4,8.16,0
14,57738432354000,8.54,9.34,-0.42,0
14,57738482342000,9.92,11.73,-9.15,0
14,57738532360000,11.92,13.59,-1.42,0
14,57738582348000,-2.03,11.65,4.52,0
14,57738632336000,-1.23,6.32,-1.14,0
14,57738682323000,1.14,5.05,1.12,0
14,57738732342000,11.54,11.96,5.37,0
14,57738782330000,12.79,5.28,-0.19,0
14,57738832378000,6.97,1.04,1.23,0
14,57738882336000,2.91,2.64,1.92,0
14,57738932324000,7.93,11.92,-2.49,0
14,57738982342000,19.11,17.97,-0.23,0
14,57739032330000,4.6,6.78,0.61,0
14,57739082378000,2.91,2.07,-2.34,0
14,57739132366000,6.05,8.54,-2.72,0
14,57739182323000,4.71,6.74,-1.31,0
14,57739232342000,7.63,6.13,1.04,0
14,57739282330000,15.28,3.38,10.08,0
14,57739332348000,10.53,8.5,3.45,0
14,57739402294000,4.94,9.77,-6.43,0
14,57739452374000,12.6,15.64,-7.4,0
14,57739502239000,0.93,9.19,5.56,0
14,57739552319000,-0.15,6.63,-1.12,0
14,57739602306000,1.92,5.13,-1.8,0
14,57739652294000,13.67,12.11,0.65,0
14,57739702343000,10.46,5.43,0.65,0
14,57739752270000,5.22,2.56,1.42,0
14,57739802227000,5.43,2.76,2.15,0
14,57739852337000,6.21,11.99,-1.73,0
14,57739902325000,18.92,18.01,-2.53,0
14,57739952313000,4.14,7.5,-0.38,0
14,57740002697000,2.41,3.6,-1.99,0
14,57740052319000,5.63,8.54,-2.96,0
14,57740102337000,6.13,6.85,-1.61,0
14,57740152294000,13.1,3.87,10.27,0
14,57740202313000,13.29,4.52,5.09,0
14,57740252300000,5.67,10.61,-4.63,0
14,57740302319000,7.97,11.45,-14.48,0
14,57740352306000,7.25,12.49,-2.41,0
14,57740402294000,1.73,11.3,5.43,0
14,57740452313000,3.34,7.44,-0.91,0
14,57740502300000,5.22,5.43,2.49,0
14,57740552319000,13.33,8.28,0.46,0
14,57740602306000,7.35,0.99,0.93,0
14,57740652294000,5.56,4.25,2.68,0
14,57740702313000,14.63,16.82,-2.83,0
14,57740752300000,9.77,12.37,-1.46,0
14,57740802319000,2.53,4.21,-0.19,0
14,57740852306000,4.71,4.71,-3.87,0
14,57740902294000,9.89,8.62,-2.45,0
14,57740952313000,11.11,1.23,9.3,0
14,57741002300000,10.34,6.47,5.24,0
14,57741052319000,8.73,11.03,-7.21,0
14,57741102306000,11.41,18.12,-11.33,0
14,57741152294000,1.84,10.61,-5.09,0
14,57741202343000,-0.91,10.69,4.9,0
14,57741252300000,2.22,6.66,5.28,0
14,57741302319000,13.95,7.12,4.99,0
14,57741352306000,6.36,2.83,-0.11,0
14,57741402294000,1.88,-0.69,0.38,0
14,57741452313000,6.4,6.51,-0.15,0
14,57741502300000,16.74,19.27,-2.11,0
14,57741552380000,8.28,7.63,5.56,0
14,57741602306000,4.1,1.95,-3.26,0
14,57741652294000,9.04,3.79,-0.15,0
14,57741702343000,10.88,10.99,6.55,0
14,57741752300000,13.53,13.57,1.27,0
14,57741802319000,17.47,16.13,-4.86,0
14,57741852306000,11.3,13.44,-12.87,0
14,57741902294000,0.34,10.69,-8.16,0
14,57741952313000,-5.6,9.96,4.06,0
14,57742002544000,-1.69,4.52,0.0,0
14,57742052319000,3.17,9.3,7.7,0
14,57742102306000,13.82,9.19,6.63,0
14,57742152294000,8.85,4.99,1.38,0
14,57742202313000,12.11,17.39,-2.22,0
14,57742252300000,2.72,8.47,-0.8,0
14,57742302319000,0.34,6.82,-2.49,0
14,57742352306000,5.22,7.06,-3.34,0
14,57742402294000,7.4,10.5,-7.16,0
14,57742452313000,6.13,8.16,-1.84,0
14,57742502300000,4.4,8.73,-0.11,0
14,57742552319000,2.91,10.15,2.37,0
14,57742602306000,5.37,8.85,2.76,0
14,57742652294000,9.7,9.47,-1.76,0
14,57742702313000,11.07,10.61,13.02,0
14,57742752300000,12.79,8.73,-3.64,0
14,57742802319000,17.27,6.32,-3.95,0
14,57742852306000,11.03,12.3,-9.89,0
14,57742902294000,7.7,13.48,-13.48,0
14,57742952313000,4.56,8.81,2.68,0
14,57743002300000,0.27,7.67,-2.83,0
14,57743052319000,0.72,7.35,-3.11,0
14,57743102306000,0.46,7.63,-2.53,0
14,57743152294000,2.68,8.96,4.21,0
14,57743202313000,7.27,8.43,4.75,0
14,57743252300000,8.96,8.66,-1.23,0
14,57743302319000,15.09,13.82,-0.46,0
14,57743352306000,2.76,4.1,-0.34,0
14,57743402294000,3.83,10.12,-2.91,0
14,57743452313000,4.4,9.51,-4.33,0
14,57743502361000,2.91,7.08,-0.5,0
14,57743552624000,5.05,6.89,0.76,0
14,57743602306000,11.3,5.48,4.44,0
14,57743652294000,7.4,5.18,0.8,0
14,57743702313000,5.22,6.44,-2.53,0
14,57743752300000,8.08,4.63,-1.88,0
14,57743802319000,18.35,5.13,3.72,0
14,57743852306000,7.7,11.5,-0.08,0
14,57743902294000,10.15,17.92,-10.38,0
14,57743952313000,0.08,11.99,5.9,0
14,57744002972000,1.23,7.63,0.65,0
14,57744052319000,2.11,5.22,-0.57,0
14,57744102306000,2.56,5.83,2.72,0
14,57744152325000,9.58,9.23,0.57,0
14,57744202313000,11.92,5.09,-1.88,0
14,57744252300000,9.19,-0.23,3.6,0
14,57744302319000,5.09,5.9,1.8,0
14,57744352306000,16.02,17.62,-3.79,0
14,57744402294000,9.85,14.1,-0.84,0
14,57744452313000,0.31,3.45,-0.23,0
14,57744502300000,3.53,4.67,-1.8,0
14,57744552319000,7.59,9.15,-2.91,0
14,57744602306000,11.18,2.45,4.6,0
14,57744652294000,12.68,3.57,7.25,0
14,57744702313000,8.24,9.51,-5.2,0
14,57744759045000,9.53,13.82,-11.41,0
14,57744759045000,9.53,13.82,-11.41,0
14,57744812298000,1.76,14.1,1.99,0
14,57744862347000,2.34,10.31,0.42,0
14,57744912457000,2.49,5.67,-0.53,0
14,57744962353000,9.11,8.08,5.01,0
14,57745012341000,12.18,6.32,0.0,0
14,57745062328000,5.43,0.95,1.54,0
14,57745112377000,6.09,3.02,1.88,0
14,57745162334000,14.29,14.71,-3.53,0
14,57745212322000,13.14,16.66,0.23,0
14,57745262341000,1.76,6.82,-1.42,0
14,57745312359000,2.49,4.25,-2.26,0
14,57745362377000,7.93,8.58,-1.69,0
14,57745412334000,9.51,4.67,4.52,0
14,57745462322000,11.35,4.56,8.05,0
14,57745512341000,11.75,9.7,-2.79,0
14,57745562328000,8.47,12.26,-10.69,0
14,57745612377000,3.72,11.92,-2.91,0
14,57745612377000,3.72,11.92,-2.91,0
14,57745722363000,2.18,7.06,-1.84,0
14,57745782360000,7.4,5.48,1.65,0
14,57745832378000,13.95,7.74,0.34,0
14,57745882336000,6.78,2.37,2.96,0
14,57745932354000,4.63,2.87,2.72,0
14,57745982372000,5.83,10.8,-2.03,0
14,57746032330000,19.23,19.34,-4.48,0
14,57746082378000,4.94,9.11,2.3,0
14,57746132336000,0.11,1.73,-1.69,0
14,57746182323000,3.6,5.79,-1.99,0
14,57746232342000,6.02,9.72,-3.6,0
14,57746282238000,5.75,4.21,-1.61,0
14,57746332348000,17.27,1.12,7.21,0
14,57746382336000,16.28,8.77,7.46,0
14,57746432354000,10.8,11.35,-9.08,0
14,57746482342000,8.89,16.7,-14.29,0
14,57746532360000,1.95,9.19,12.49,0
14,57746582348000,3.26,7.06,0.31,0
14,57746632336000,2.72,5.22,-1.14,0
14,57746682323000,3.57,6.21,-1.27,0
14,57746732342000,8.24,10.42,1.31,0
14,57746782360000,9.08,3.83,-0.5,0
14,57746832348000,7.55,1.95,4.06,0
14,57746882336000,13.99,13.87,-0.8,0
14,57746932324000,11.84,14.67,5.09,0
14,57746982342000,1.76,7.4,-2.83,0
14,57747032330000,2.91,1.95,-6.24,0
14,57747082348000,7.27,6.05,-3.57,0
14,57747132336000,5.86,3.6,-1.27,0
14,57747182323000,9.43,4.86,5.24,0
14,57747232342000,19.11,5.33,5.18,0
14,57747282330000,18.39,14.1,-4.9,0
14,57747332348000,14.52,17.01,-8.12,0
14,57747382336000,1.33,8.85,-5.13,0
14,57747432324000,-6.43,9.92,8.81,0
14,57747482372000,2.96,4.79,0.95,0
14,57747552319000,1.18,3.79,-2.49,0
14,57747602276000,1.27,7.01,3.68,0
14,57747652325000,10.08,7.5,6.55,0
14,57747702282000,18.92,6.51,6.36,0
14,57747752453000,1.8,3.83,1.92,0
14,57747802319000,6.78,9.96,-3.15,0
14,57747852306000,9.47,18.5,-4.14,0
14,57747902294000,7.67,15.32,-5.13,0
14,57747952343000,4.33,3.34,-4.44,0
14,57748002575000,6.13,8.31,-2.91,0
14,57748052319000,3.87,8.05,-3.45,0
14,57748102306000,1.27,8.77,-0.99,0
14,57748152294000,4.94,8.12,6.17,0
14,57748202313000,8.85,8.62,0.69,0
14,57748252331000,13.48,8.12,-0.57,0
14,57748302319000,14.18,8.73,-1.61,0
14,57748352306000,8.89,8.39,4.1,0
14,57748402325000,4.67,10.46,-2.91,0
14,57748452313000,4.79,14.02,-5.37,0
14,57748502300000,1.54,10.42,-5.63,0
14,57748552319000,7.08,4.75,0.57,0
14,57748602306000,5.6,6.74,-3.79,0
14,57748652325000,4.71,7.67,-4.67,0
14,57748702313000,5.05,9.51,-4.94,0
14,57748752300000,6.05,11.54,-1.8,0
14,57748802349000,6.17,9.08,9.3,0
14,57748852306000,0.72,10.46,-2.37,0
14,57748902294000,-0.53,9.89,-1.31,0
14,57748952313000,5.52,15.98,-3.49,0
14,57749002331000,5.9,9.08,-1.99,0
14,57749052319000,6.36,5.33,-0.15,0
14,57749102367000,9.77,4.29,3.57,0
14,57749152294000,9.28,9.96,-1.08,0
14,57749202313000,4.44,11.5,-0.23,0
14,57749252300000,5.94,7.67,-1.04,0
14,57749302319000,6.44,7.06,-3.79,4
14,57749352306000,5.37,7.97,-4.9,4
14,57749402294000,3.91,8.77,-3.17,4
14,57749452313000,3.64,9.51,-2.14,4
14,57749502331000,5.18,9.19,-1.31,4
14,57749552319000,6.89,6.97,0.42,4
14,57749602306000,7.74,6.28,-1.92,4
14,57749652325000,7.89,6.55,-4.29,4
14,57749702313000,8.24,9.34,-4.37,4
14,57749752300000,8.39,11.96,5.56,4
14,57749802319000,8.58,10.23,0.23,4
14,57749852306000,6.21,13.57,-1.14,4
14,57749852306000,6.21,13.57,-1.14,4
14,57749912334000,5.33,12.18,-2.87,4
14,57749962353000,6.89,10.57,2.6,4
14,57750012280000,9.89,9.53,0.53,4
14,57750062328000,5.94,9.43,-0.53,4
14,57750112377000,4.02,6.32,0.15,4
14,57750162334000,4.63,3.45,2.22,4
14,57750212322000,4.75,2.03,2.41,4
14,57750262341000,3.3,1.12,2.79,4
14,57750312328000,4.99,1.27,4.29,4
14,57750362377000,7.4,1.33,3.79,4
14,57750412334000,14.6,0.11,8.66,4
14,57750462322000,13.33,17.43,0.04,4
14,57750512341000,-1.31,3.99,2.37,4
14,57750562328000,2.53,5.63,1.18,4
14,57750612377000,8.66,13.44,-2.14,4
14,57750662304000,8.66,5.67,-0.76,4
14,57750712322000,6.63,7.25,-0.76,4
14,57750762371000,6.36,8.43,-0.99,4
14,57750812328000,8.5,9.04,-1.04,4
14,57750862347000,9.43,8.2,-0.65,4
14,57750912334000,8.54,6.05,0.57,4
14,57750962353000,6.17,6.17,-0.53,4
14,57751012249000,6.55,6.17,-2.22,4
14,57751062328000,6.89,8.01,-1.61,4
14,57751112347000,5.75,9.38,-0.91,4
14,57751162334000,5.48,9.81,-0.84,4
14,57751212322000,7.86,11.45,-1.23,4
14,57751262341000,9.62,12.57,-1.99,4
14,57751312328000,8.01,11.35,1.12,4
14,57751362347000,8.66,10.31,8.16,4
14,57751412334000,8.08,9.3,-0.72,4
14,57751462322000,9.77,9.85,0.15,4
14,57751512341000,6.44,10.15,1.31,4
14,57751562328000,8.01,8.54,-1.27,4
14,57751612347000,3.45,6.44,-1.5,4
14,57751662334000,-1.69,2.53,-0.46,4
14,57751712322000,-0.69,1.38,-3.49,4
14,57751762341000,2.22,2.34,-4.44,4
14,57751812328000,13.67,8.92,-0.99,4
14,57751862347000,14.56,13.59,3.99,4
14,57751912334000,1.31,5.52,2.79,4
14,57751962353000,2.96,7.55,-1.12,4
14,57752012310000,7.4,10.92,-2.3,4
14,57752062328000,8.73,8.47,-2.68,4
14,57752112347000,9.23,4.94,-1.27,4
14,57752162334000,8.43,3.72,-0.57,4
14,57752212322000,7.12,6.47,0.23,4
14,57752262371000,6.97,8.96,-0.53,4
14,57752312298000,6.97,11.07,-1.76,4
14,57752362347000,6.28,12.49,-1.04,4
14,57752412334000,8.85,13.1,5.86,4
14,57752462322000,10.8,11.6,3.64,4
14,57752512341000,7.74,10.31,-6.28,4
14,57752562328000,12.53,7.31,-0.38,4
14,57752622295000,7.89,9.43,2.3,4
14,57752672283000,4.75,8.58,-1.92,4
14,57752722332000,2.64,4.67,-1.84,4
14,57752782299000,0.65,3.3,-1.57,4
14,57752832348000,-0.5,2.64,-1.18,4
14,57752882336000,3.76,3.02,-1.69,4
14,57752932324000,9.11,2.11,0.53,4
14,57752982342000,18.77,18.7,-0.19,4
14,57753032330000,3.34,2.76,0.23,4
14,57753082348000,2.26,3.91,-1.31,4
14,57753132336000,5.05,10.15,-0.76,4
14,57753182323000,9.72,12.41,-2.87,4
14,57753232342000,7.31,6.47,-1.08,4
14,57753282330000,7.59,4.63,-0.42,4
14,57753332348000,8.31,5.37,0.0,4
14,57753382336000,7.16,6.17,-0.08,4
14,57753432324000,6.85,7.63,-1.73,4
14,57753482342000,6.7,11.22,-1.95,4
14,57753532330000,6.32,15.24,-3.11,4
14,57753582348000,7.4,14.63,2.37,4
14,57753632336000,12.91,10.61,11.84,4
14,57753682323000,6.4,10.8,-7.35,4
14,57753732342000,10.76,5.18,-2.11,4
14,57753782330000,6.7,9.34,2.45,4
14,57753832348000,7.16,9.53,-1.61,4
14,57753882336000,3.91,7.16,-2.34,4
14,57753932324000,-1.14,4.94,-2.49,4
14,57753982342000,-3.36,4.02,-1.18,4
14,57754032330000,1.31,2.3,-3.49,4
14,57754082348000,13.4,8.28,-0.08,4
14,57754132397000,16.36,14.21,4.4,4
14,57754182323000,4.14,4.44,-1.38,4
14,57754232342000,5.79,7.7,-3.49,4
14,57754282330000,8.89,8.66,-3.76,4
14,57754332348000,8.16,7.63,-1.95,4
14,57754382336000,5.37,7.7,2.45,4
14,57754432324000,6.02,7.82,1.27,4
14,57754482342000,8.2,7.35,-2.41,4
14,57754532330000,8.43,7.06,-1.95,4
14,57754582348000,9.11,10.19,-2.53,4
14,57754632336000,8.58,14.21,11.5,4
14,57754682323000,9.43,11.03,2.37,4
14,57754732342000,8.77,10.65,0.76,4
14,57754782330000,8.16,11.96,-0.23,4
14,57754832348000,6.51,10.04,-3.02,4
14,57754882336000,7.31,7.93,1.38,4
14,57754932324000,7.82,6.24,-1.46,4
14,57754982342000,1.69,4.79,-1.88,4
14,57755032330000,-2.3,2.56,-1.92,4
14,57755082378000,-2.75,3.15,-3.02,4
14,57755082378000,-2.75,3.15,-3.02,4
14,57755162304000,6.74,0.5,-0.57,4
14,57755212322000,12.95,11.99,2.83,4
14,57755262341000,1.5,3.87,-0.61,4
14,57755312634000,3.15,8.62,-0.53,4
14,57755422161000,7.44,8.08,-2.22,4
14,57755422161000,7.44,8.08,-2.22,4
14,57755472240000,8.43,4.44,-1.38,4
14,57755522381000,12.26,4.02,-0.99,4
14,57755572308000,9.66,4.33,0.72,4
14,57755622356000,7.4,6.51,0.42,4
14,57755672344000,6.4,8.24,-0.91,4
14,57755732311000,6.09,10.92,-2.37,4
14,57755782330000,2.18,16.21,-6.93,4
14,57755832348000,4.56,11.54,1.76,4
14,57755882336000,9.66,8.35,0.19,4
14,57755932324000,11.75,5.28,3.06,4
14,57755982342000,9.77,7.06,-0.65,4
14,57756032330000,7.93,10.34,0.15,4
14,57756082348000,1.84,17.27,6.21,4
14,57756132305000,-3.17,18.62,1.23,4
14,57756182323000,-2.18,13.76,-2.6,4
14,57756232342000,6.59,7.16,-2.22,4
14,57756282238000,5.48,4.56,-2.75,4
14,57756332348000,3.45,3.72,-3.3,4
14,57756382336000,1.95,1.99,-4.25,4
14,57756432324000,2.98,0.89,-2.75,4
14,57756482342000,16.78,0.93,6.59,4
14,57756532330000,9.34,11.14,4.14,4
14,57756582348000,9.53,15.36,0.04,4
14,57756632336000,1.27,11.3,-1.65,4
14,57756682323000,0.8,8.89,-0.8,4
14,57756732342000,2.72,10.04,-2.26,4
14,57756782330000,2.26,9.66,-6.02,4
14,57756832378000,5.56,8.73,-6.13,4
14,57756882366000,10.04,7.08,-4.56,4
14,57756932324000,12.34,5.6,-3.17,4
14,57756982342000,11.75,4.18,-0.91,4
14,57757032330000,10.88,5.98,0.89,4
14,57757082378000,6.97,11.65,6.55,4
14,57757132336000,5.67,12.76,-0.5,4
14,57757182354000,8.66,10.88,-1.69,4
14,57757232342000,8.96,10.23,1.73,4
14,57757282330000,6.51,14.21,1.46,4
14,57757332348000,5.67,16.13,-1.42,4
14,57757382336000,6.36,11.22,-0.08,4
14,57757432324000,9.77,7.93,-0.76,4
14,57757482342000,6.89,7.97,0.38,4
14,57757532330000,3.53,5.86,-1.14,4
14,57757582317000,-0.99,3.64,-0.08,4
14,57757632336000,-1.18,2.53,-2.64,4
14,57757682354000,1.92,2.03,-4.29,4
14,57757732342000,9.23,3.68,-3.06,4
14,57757782330000,19.57,18.43,2.53,4
14,57757832348000,6.7,6.78,4.94,4
14,57757882336000,2.68,8.58,-1.84,4
14,57757932324000,4.67,7.97,-2.98,4
14,57757982342000,7.86,8.96,-3.45,4
14,57758032330000,9.66,6.24,-2.22,4
14,57758082348000,10.15,2.72,-1.46,4
14,57758132366000,6.63,6.4,3.79,4
14,57758182323000,5.83,7.67,-0.19,4
14,57758232372000,5.6,10.23,-0.89,4
14,57758282330000,6.36,11.65,-1.33,4
14,57758332378000,8.73,11.69,-2.3,4
14,57758382366000,10.23,13.18,-2.41,4
14,57758432324000,10.31,10.46,13.53,4
14,57758482342000,7.4,12.11,-3.6,4
14,57758532360000,8.81,9.0,-3.95,4
14,57758582378000,7.93,8.5,1.18,4
14,57758632336000,8.28,8.89,0.08,4
14,57758682323000,3.76,7.21,-2.07,4
14,57758732342000,-0.53,4.33,-1.27,4
14,57758782330000,-2.37,2.83,-1.18,4
14,57758832378000,-0.61,2.6,-2.6,4
14,57758882336000,11.18,4.1,1.54,4
14,57758932324000,18.39,17.16,2.49,4
14,57758982342000,4.06,2.07,-0.42,4
14,57759032330000,4.4,6.13,-2.49,4
14,57759082348000,8.12,10.8,-2.41,4
14,57759132336000,6.32,8.05,-1.65,4
14,57759182293000,6.4,6.44,-0.57,4
14,57759232342000,5.94,5.79,0.57,4
14,57759282330000,8.39,6.66,1.31,4
14,57759332348000,7.63,6.63,-0.91,4
14,57759382336000,8.35,8.39,-2.37,4
14,57759432354000,6.66,10.04,-2.96,4
14,57759482342000,7.08,13.72,-2.3,4
14,57759532330000,8.85,12.34,1.57,4
14,57759582348000,9.85,9.43,5.48,4
14,57759632366000,7.5,11.99,4.06,4
14,57759682323000,3.17,10.57,-3.53,4
14,57759732342000,9.23,7.31,-3.41,4
14,57759782360000,7.4,7.44,1.92,4
14,57759832348000,8.12,7.27,-1.42,4
14,57759882366000,4.02,5.52,-0.61,4
14,57759932324000,1.12,4.37,-1.38,4
14,57759982342000,-1.38,3.79,-0.91,4
14,57760032360000,0.5,3.34,-1.69,4
14,57760082348000,14.79,2.76,2.98,4
14,57760132336000,15.94,15.66,2.87,4
14,57760182323000,1.5,2.68,-0.91,4
14,57760232342000,2.34,3.95,-2.53,4
14,57760282238000,7.06,13.8,-1.18,4
14,57760332348000,9.51,10.8,-3.41,4
14,57760382366000,6.55,4.86,-0.34,4
14,57760449719000,7.55,5.18,0.99,4
14,57760502300000,9.3,5.79,-0.42,4
14,57760552319000,6.51,6.4,-1.38,4
14,57760602306000,6.4,9.23,-1.99,4
14,57760652294000,6.05,13.1,-2.6,4
14,57760702313000,5.33,11.69,-3.64,4
14,57760752300000,7.93,12.6,-0.46,4
14,57760802319000,11.84,9.58,12.37,4
14,57760852306000,6.66,12.95,-0.69,4
14,57760902294000,7.59,8.89,-0.65,4
14,57760952313000,10.53,10.0,-3.21,4
14,57761002331000,8.12,9.62,0.11,4
14,57761052319000,5.98,8.69,-1.23,4
14,57761102306000,2.79,5.67,-1.69,4
14,57761152294000,-1.57,2.98,-2.11,4
14,57761202343000,-2.83,1.8,-2.26,4
14,57761252300000,2.68,0.34,-1.14,4
14,57761302319000,18.47,15.6,-0.04,4
14,57761352337000,11.99,8.54,4.25,4
14,57761402294000,2.41,5.01,0.0,4
14,57761452313000,4.29,8.92,-1.33,4
14,57761502300000,9.0,10.99,-2.87,4
14,57761552319000,7.59,6.4,-1.92,4
14,57761602306000,8.73,5.37,-0.61,4
14,57761652294000,8.2,4.25,1.61,4
14,57761702313000,6.36,7.21,1.04,4
14,57761752300000,6.24,7.74,-0.8,4
14,57761802319000,7.12,8.85,-1.84,4
14,57761852306000,6.21,10.57,-3.3,4
14,57761902294000,4.82,11.3,-4.82,4
14,57761952313000,5.67,11.65,-1.76,4
14,57762002514000,8.12,10.04,-0.72,4
14,57762052319000,12.15,6.36,12.11,4
14,57762102306000,6.13,11.11,-0.15,4
14,57762152294000,3.57,10.34,-1.53,4
14,57762202313000,5.09,7.89,-2.56,4
14,57762252300000,8.58,7.74,4.6,4
14,57762302319000,5.22,9.11,1.54,4
14,57762352306000,2.87,8.77,0.57,4
14,57762402294000,2.87,7.44,1.33,4
14,57762452313000,4.37,5.9,0.46,4
14,57762502300000,5.22,4.21,0.57,4
14,57762552319000,6.17,2.26,-0.91,4
14,57762602337000,7.55,2.45,0.23,4
14,57762652294000,8.73,4.06,4.9,4
14,57762702313000,18.47,7.7,4.63,4
14,57762752300000,7.25,11.41,4.82,4
14,57762802319000,-0.57,9.04,-2.98,4
14,57762852306000,3.21,12.53,-1.14,4
14,57762902294000,6.89,10.69,-2.41,4
14,57762952313000,5.71,6.63,-2.34,4
14,57763002300000,7.74,6.4,-1.04,4
14,57763052319000,9.0,6.89,-1.5,4
14,57763102306000,6.97,7.44,-0.53,4
14,57763152294000,7.4,7.7,-1.42,4
14,57763202343000,6.66,7.63,-1.46,4
14,57763252300000,6.66,7.63,-1.46,4
14,57763302288000,7.4,7.63,-0.91,4
14,57763352215000,7.89,7.06,-0.42,4
14,57763402325000,8.24,5.63,-0.8,4
14,57763452313000,9.11,7.21,-0.89,4
14,57763502300000,8.2,13.59,4.6,4
14,57763552349000,4.02,16.47,6.7,4
14,57763602306000,0.15,11.96,0.76,4
14,57763652294000,1.27,12.98,-1.61,4
14,57763702313000,6.02,6.63,-2.26,4
14,57763752300000,8.12,3.64,-1.18,4
14,57763802319000,6.32,4.63,-1.69,4
14,57763852306000,4.63,5.09,0.31,4
14,57763902294000,6.59,4.86,-1.27,4
14,57763952313000,9.34,6.05,0.65,4
14,57764002544000,9.43,5.33,2.79,4
14,57764052319000,10.57,3.6,2.68,4
14,57764102306000,10.38,8.35,-3.57,4
14,57764152294000,11.84,9.34,-1.38,4
14,57764202343000,0.84,10.92,3.53,4
14,57764252300000,0.72,9.66,0.19,4
14,57764302319000,3.83,11.45,-1.18,4
14,57764352306000,4.63,9.28,-3.79,4
14,57764402294000,8.31,7.86,-3.68,4
14,57764452313000,9.89,6.47,-1.99,4
14,57764502300000,9.28,5.33,0.04,4
14,57764552319000,8.24,5.94,-0.42,4
14,57764602306000,6.89,7.27,0.11,4
14,57764652294000,5.75,8.16,-0.19,4
14,57764702313000,4.82,9.34,-0.08,4
14,57764752300000,4.21,9.72,0.23,4
14,57764802319000,5.52,11.45,-0.69,4
14,57764852337000,8.05,12.53,-1.8,4
14,57764902294000,9.62,11.3,-2.41,4
14,57764952313000,6.21,9.7,-0.19,4
14,57765002300000,4.1,7.16,0.5,4
14,57765052319000,3.68,5.37,0.89,4
14,57765102306000,9.85,5.09,-0.3,4
14,57765152325000,14.6,10.65,3.49,4
14,57765202313000,2.76,11.11,-0.27,4
14,57765252300000,4.67,7.46,0.15,4
14,57765252300000,4.67,7.46,0.15,4
14,57765312359000,9.51,5.33,0.57,4
14,57765362347000,8.58,6.13,0.19,4
14,57765412365000,6.17,5.56,-0.19,4
14,57765462322000,3.21,5.13,0.08,4
14,57765512341000,0.99,4.56,0.0,4
14,57765562328000,0.89,4.99,0.19,4
14,57765612377000,9.66,2.76,-0.65,4
14,57765662334000,17.54,18.05,1.8,4
14,57765712322000,3.6,3.83,0.5,4
14,57765762341000,4.6,3.87,-2.49,4
14,57765812328000,8.54,10.53,-2.49,4
14,57765862347000,7.55,8.05,-3.11,4
14,57765912365000,6.47,6.66,-1.23,4
14,57765962353000,7.78,6.63,-0.3,4
14,57766012310000,6.59,6.85,1.76,4
14,57766062328000,7.16,6.28,-0.23,4
14,57766112347000,8.28,7.01,-1.5,4
14,57766162334000,6.74,7.67,-1.53,4
14,57766212322000,5.9,10.04,-2.26,4
14,57766262341000,6.21,11.11,-2.72,4
14,57766312328000,9.04,10.57,-1.57,4
14,57766362347000,9.58,11.5,0.19,4
14,57766412334000,7.7,11.6,9.89,4
14,57766462322000,4.56,11.5,-0.61,4
14,57766512341000,9.28,7.82,-1.23,4
14,57766562328000,9.11,6.82,0.93,4
14,57766612347000,7.7,7.4,-0.89,4
14,57766662334000,7.44,5.94,-1.38,4
14,57766712322000,4.56,3.76,-0.76,4
14,57766762341000,2.11,3.49,-0.57,4
14,57766812328000,0.08,3.76,-0.11,4
14,57766862347000,0.34,4.6,1.95,4
14,57766912334000,17.77,4.21,1.23,4
14,57766962353000,14.06,15.85,2.64,4
14,57767012280000,5.98,1.84,0.38,4
14,57767062328000,6.93,6.05,-1.53,4
14,57767112347000,6.32,10.73,-2.41,4
14,57767162334000,7.12,8.31,-2.11,4
14,57767212322000,7.59,7.31,-0.61,4
14,57767262341000,8.54,6.09,0.15,4
14,57767312328000,8.31,5.41,0.34,4
14,57767362347000,7.35,5.67,-0.11,4
14,57767412334000,7.7,7.27,-1.46,4
14,57767462322000,6.93,8.58,-1.8,4
14,57767512341000,6.28,10.76,-2.45,4
14,57767562328000,6.44,11.69,-2.49,4
14,57767612347000,9.92,11.41,-0.42,4
14,57767662365000,12.07,10.8,11.75,4
14,57767712322000,5.41,13.14,-0.65,4
14,57767762341000,5.86,8.2,-0.23,4
14,57767812328000,10.0,7.55,-2.41,4
14,57767862347000,7.5,7.27,1.14,4
14,57767912334000,7.59,6.78,-0.99,4
14,57767962353000,3.3,5.01,-1.23,4
14,57768012280000,0.04,3.38,-0.57,4
14,57768062328000,-2.34,3.83,-1.12,4
14,57768112347000,2.37,2.37,2.45,4
14,57768162334000,18.81,13.06,2.03,4
14,57768212322000,8.69,7.16,2.91,4
14,57768262371000,4.33,2.98,-0.76,4
14,57768322338000,6.89,9.89,-2.22,4
14,57768372265000,7.89,8.69,-2.68,4
14,57768422344000,8.85,6.85,-1.46,4
14,57768482311000,9.28,6.24,0.19,4
14,57768532330000,8.81,4.44,0.27,4
14,57768582348000,7.5,5.71,1.33,4
14,57768632336000,8.12,7.93,-2.11,4
14,57768682323000,7.74,10.53,-2.41,4
14,57768732342000,6.24,11.45,-2.79,4
14,57768782330000,7.89,13.63,-1.92,4
14,57768832348000,9.85,10.15,10.92,4
14,57768882336000,7.16,12.11,0.93,4
14,57768932324000,5.41,9.43,2.26,4
14,57768982342000,9.81,6.44,-2.14,4
14,57769032330000,6.44,7.82,2.96,4
14,57769082317000,8.73,7.82,0.42,4
14,57769132336000,7.31,6.17,-0.11,4
14,57769182323000,2.91,5.71,-0.27,4
14,57769232342000,-0.15,2.26,0.38,4
14,57769282330000,0.8,1.88,0.99,4
14,57769332348000,3.15,0.72,-1.8,4
14,57769382336000,13.87,-4.99,3.76,4
14,57769432324000,13.87,16.59,0.08,4
14,57769482342000,2.98,-2.03,2.53,4
14,57769532330000,3.68,7.7,0.89,4
14,57769582348000,3.17,15.09,-0.57,4
14,57769632336000,4.82,8.89,-1.84,4
14,57769682323000,7.74,8.39,-2.11,4
14,57769732342000,10.38,7.16,-1.57,4
14,57769782330000,9.19,6.21,-1.27,4
14,57769832348000,8.2,4.99,-0.95,4
14,57769882336000,7.82,5.9,-1.23,4
14,57769932324000,7.46,7.01,-1.92,4
14,57769982342000,6.21,7.78,-0.42,4
14,57770032360000,5.6,8.24,-0.3,4
14,57770082348000,5.98,8.2,-0.69,4
14,57770132336000,6.24,7.74,-1.14,4
14,57770182323000,6.21,8.62,-0.42,4
14,57770232342000,9.19,11.96,-0.69,4
14,57770282238000,7.44,10.27,-0.38,4
14,57770332348000,4.4,12.18,9.72,4
14,57770382336000,2.64,11.8,-2.18,4
14,57770432324000,3.49,13.76,-2.22,4
14,57770482342000,6.93,6.4,1.31,4
14,57770532330000,6.7,6.66,-0.15,4
14,57770582348000,7.27,3.95,-1.69,4
14,57770632366000,5.9,3.41,-0.8,4
14,57770682323000,5.52,4.14,0.57,4
14,57770732342000,7.67,5.28,2.98,4
14,57770782330000,9.51,3.02,1.92,4
14,57770832348000,7.5,2.98,-0.91,4
14,57770882336000,16.78,12.07,-3.15,4
14,57770932324000,5.67,9.81,-0.46,4
14,57770982342000,0.8,10.12,-0.95,4
14,57771052319000,2.83,8.01,-0.95,4
14,57771102276000,5.94,9.3,-4.1,4
14,57771152325000,9.38,8.28,-4.44,4
14,57771202282000,11.03,4.52,-3.36,4
14,57771252270000,10.34,4.52,-1.57,4
14,57771302349000,8.81,6.7,1.54,4
14,57771352306000,8.01,8.69,1.8,4
14,57771402294000,8.77,10.65,-0.72,4
14,57771452313000,7.35,13.67,0.15,4
14,57771502300000,6.21,11.73,1.31,4
14,57771552319000,8.69,9.3,2.37,4
14,57771602337000,6.24,10.19,-2.18,4
14,57771652294000,12.07,7.89,-0.8,4
14,57771702313000,7.06,9.15,0.84,4
14,57771752300000,6.4,9.11,-0.38,4
14,57771802380000,6.89,6.4,-2.41,4
14,57771852306000,1.88,5.13,-0.84,4
14,57771902294000,0.08,4.52,-2.34,4
14,57771952282000,-0.72,4.52,-2.11,4
14,57772002697000,7.12,2.07,-0.72,4
14,57772052319000,19.5,18.28,0.34,4
14,57772102306000,6.51,3.95,3.3,4
14,57772152294000,3.38,8.43,-1.23,4
14,57772202313000,4.6,8.31,-1.08,4
14,57772252300000,6.17,9.23,-2.18,4
14,57772302319000,7.01,8.12,-1.5,4
14,57772352337000,10.46,5.01,-3.15,4
14,57772402294000,10.0,3.49,-1.92,4
14,57772452313000,7.78,6.82,1.57,4
14,57772502300000,6.85,8.69,1.33,4
14,57772552319000,5.98,11.84,-2.56,4
14,57772602306000,6.59,12.37,-1.14,4
14,57772652294000,9.81,9.85,-0.23,4
14,57772702313000,11.84,8.62,4.71,4
14,57772752300000,8.05,11.54,2.87,4
14,57772802319000,4.75,9.53,-2.83,4
14,57772852306000,8.66,9.15,-1.76,4
14,57772902294000,6.97,8.39,0.27,4
14,57772952313000,8.12,6.78,-0.89,4
14,57773002300000,5.18,5.71,-0.84,4
14,57773052319000,1.18,4.9,-1.69,4
14,57773102306000,-1.46,4.06,-2.03,4
14,57773152294000,-0.11,5.13,-0.95,4
14,57773202313000,14.9,1.95,-0.15,4
14,57773252300000,14.52,15.36,3.87,4
14,57773302319000,2.68,3.76,-0.19,4
14,57773352306000,4.67,7.55,-1.27,4
14,57773402325000,6.78,9.77,-0.91,4
14,57773452313000,7.78,8.24,-2.49,4
14,57773502300000,7.7,6.4,-1.23,4
14,57773552319000,9.62,4.63,-0.72,4
14,57773602306000,8.73,4.63,-0.34,4
14,57773652294000,6.7,7.12,0.53,4
14,57773702313000,5.6,8.24,-1.61,4
14,57773752300000,7.16,12.07,-1.99,4
14,57773802319000,7.59,12.3,-2.07,4
14,57773852306000,10.5,11.88,1.5,4
14,57773902294000,9.85,10.46,8.47,4
14,57773952313000,5.01,10.57,-1.61,4
14,57774002544000,10.0,8.05,-1.53,4
14,57774052349000,7.31,8.28,-0.15,4
14,57774102306000,8.16,7.67,0.89,4
14,57774152569000,7.27,7.78,-1.38,4
14,57774202313000,2.76,5.75,-1.5,4
14,57774252300000,-0.11,4.6,-2.98,4
14,57774302319000,-1.99,4.99,-2.11,4
14,57774352306000,1.04,1.57,4.21,4
14,57774402294000,18.2,15.85,0.11,4
14,57774452313000,6.13,5.9,-0.46,4
14,57774502300000,5.52,5.37,-2.26,4
14,57774552319000,8.39,9.43,-0.95,4
14,57774602337000,9.7,8.01,-1.12,4
14,57774652294000,7.46,6.4,0.04,4
14,57774702313000,7.74,6.02,-0.08,4
14,57774752300000,7.44,5.13,-0.42,4
14,57774802319000,7.08,6.55,-0.61,4
14,57774852337000,6.51,7.55,-1.33,4
14,57774902294000,5.83,9.28,-2.03,4
14,57774952313000,5.63,11.56,-2.64,4
14,57775002331000,5.6,10.08,-1.46,4
14,57775052349000,9.0,11.3,-1.18,4
14,57775102337000,10.04,10.19,3.72,4
14,57775152325000,7.55,8.35,5.79,4
14,57775202343000,4.06,8.85,-3.15,4
14,57775252300000,5.9,6.21,-2.6,4
14,57775302319000,6.55,6.93,1.33,4
14,57775352306000,4.14,10.53,2.98,4
14,57775402325000,4.44,8.77,1.23,4
14,57775452313000,3.38,8.01,-0.04,4
14,57775502300000,3.06,7.63,0.38,4
14,57775552319000,3.45,5.63,-1.04,4
14,57775602306000,3.83,4.18,-0.72,4
14,57775652294000,6.17,3.15,-1.18,4
14,57775702313000,13.06,3.53,0.95,4
14,57775752300000,14.71,8.28,7.5,4
14,57775802319000,7.67,5.18,1.08,4
14,57775852306000,13.82,16.13,-0.27,4
14,57775902294000,2.68,7.08,-1.57,4
14,57775952313000,0.53,6.63,-2.14,4
14,57776002789000,3.99,9.7,-2.72,4
14,57776052319000,3.45,11.14,-3.6,4
14,57776052319000,3.45,11.14,-3.6,4
14,57776112316000,4.02,7.97,-2.26,4
14,57776162365000,6.21,6.85,-1.08,4
14,57776212353000,9.43,9.15,-1.04,4
14,57776262310000,9.89,5.86,-2.45,4
14,57776312328000,9.51,5.52,-0.65,4
14,57776362347000,7.59,6.32,-0.08,4
14,57776412334000,6.85,5.75,0.0,4
14,57776462322000,7.35,7.7,-0.04,4
14,57776512371000,9.66,12.68,-0.04,4
14,57776562359000,6.55,16.17,11.92,4
14,57776612347000,2.18,13.67,0.31,4
14,57776662334000,3.64,16.86,-2.98,4
14,57776712322000,3.76,6.93,-0.69,4
14,57776762341000,5.05,4.02,-2.07,4
14,57776812328000,6.02,3.3,-3.34,4
14,57776862347000,4.9,3.26,-0.8,4
14,57776912334000,4.86,3.83,-0.76,4
14,57776962322000,14.41,5.79,3.45,4
14,57777012280000,7.86,3.72,5.67,4
14,57777062328000,11.88,16.93,-3.79,4
14,57777112347000,4.21,9.28,-0.27,4
14,57777162334000,2.76,6.47,-0.53,4
14,57777212322000,4.79,10.76,-3.91,4
14,57777262341000,4.94,9.81,-4.67,4
14,57777312328000,6.63,6.7,-3.6,4
14,57777362347000,10.08,6.09,-2.37,4
14,57777412334000,10.19,5.52,-1.99,4
14,57777462322000,9.85,5.41,-0.11,4
14,57777512341000,8.16,6.89,2.68,4
14,57777562328000,7.82,7.44,-1.31,4
14,57777612377000,5.6,12.49,-2.56,4
14,57777662334000,3.06,15.66,0.5,4
14,57777712322000,9.08,10.76,-0.15,4
14,57777762341000,8.89,9.66,2.49,4
14,57777812328000,6.17,11.88,-0.11,4
14,57777862347000,9.51,7.35,-3.83,4
14,57777912334000,11.03,7.06,1.69,4
14,57777962353000,7.46,9.0,0.31,4
14,57778012310000,5.86,7.12,-2.64,4
14,57778062328000,2.03,3.76,-1.53,4
14,57778112347000,1.61,3.64,-0.42,4
14,57778162334000,1.38,3.99,-1.8,4
14,57778212322000,3.41,2.41,-2.03,4
14,57778262341000,16.04,4.48,-2.68,4
14,57778312328000,14.79,14.6,3.02,4
14,57778362347000,1.08,3.68,0.69,4
14,57778412334000,1.54,7.67,1.08,4
14,57778462322000,5.09,11.84,-0.53,4
14,57778512341000,7.08,9.89,-1.61,4
14,57778562328000,8.81,7.25,-2.03,4
14,57778612347000,11.56,3.41,-1.73,4
14,57778662334000,9.92,3.49,-0.72,4
14,57778712322000,7.63,6.66,-0.8,4
14,57778762341000,6.05,9.11,-0.76,4
14,57778872143000,6.02,13.4,-0.76,4
14,57778872143000,6.02,13.4,-0.76,4
14,57778922283000,7.67,12.49,-0.57,4
14,57778972393000,11.26,9.11,7.7,4
14,57779022289000,6.17,10.84,-3.72,4
14,57779072338000,14.44,4.33,1.27,4
14,57779122326000,7.35,9.19,-1.5,4
14,57779182323000,5.22,8.01,-0.38,4
14,57779232372000,7.55,5.98,-1.23,4
14,57779282330000,2.76,5.24,0.15,4
14,57779332348000,0.04,3.6,0.11,4
14,57779382336000,0.34,3.3,-0.95,4
14,57779432324000,3.79,1.69,-1.92,4
14,57779482372000,15.28,8.12,-3.06,4
14,57779532330000,13.76,11.07,5.09,4
14,57779582348000,1.69,3.41,-0.23,4
14,57779632336000,2.96,6.4,-2.49,4
14,57779682323000,8.12,11.45,-1.38,4
14,57779732372000,9.04,9.04,-2.22,4
14,57779782360000,7.5,5.79,-0.19,4
14,57779832348000,7.46,5.48,1.73,4
14,57779882366000,8.12,6.59,0.19,4
14,57779932354000,8.2,6.47,-1.76,4
14,57779982372000,7.7,6.47,-1.65,4
14,57780032421000,5.75,8.73,-2.03,4
14,57780082348000,5.63,12.87,-3.76,4
14,57780132366000,7.21,13.99,-0.84,4
14,57780182323000,6.89,12.49,-0.53,4
14,57780232342000,9.66,8.89,10.65,4
14,57780282269000,4.6,10.8,-0.3,4
14,57780332378000,5.05,7.67,-4.86,4
14,57780382366000,14.18,3.45,0.89,4
14,57780432324000,8.2,6.82,1.46,4
14,57780482372000,7.67,7.78,-2.34,4
14,57780532391000,5.67,5.94,-0.72,4
14,57780582378000,2.96,4.99,-0.27,4
14,57780632366000,1.54,3.38,-0.23,4
14,57780682323000,1.84,3.45,-1.12,4
14,57780732342000,8.24,1.31,-1.8,4
14,57780782330000,19.11,14.44,1.88,4
14,57780832348000,3.68,3.45,2.98,4
14,57780882336000,0.15,5.01,-0.38,4
14,57780932323000,5.28,10.19,-1.46,4
14,57780982342000,8.62,10.12,-3.68,4
14,57781032330000,8.47,6.66,-1.8,4
14,57781082378000,8.89,6.7,0.04,4
14,57781132336000,7.74,6.36,0.23,4
14,57781182323000,7.67,5.71,-0.15,4
14,57781232342000,9.77,5.67,-1.12,4
14,57781282269000,8.28,5.28,-0.89,4
14,57781332348000,5.9,6.02,-2.14,4
14,57781382336000,5.63,11.22,-2.64,4
14,57781432323000,7.25,15.21,-1.88,4
14,57781482342000,7.55,13.67,-0.3,4
14,57781532330000,8.43,10.84,4.21,4
14,57781582348000,6.89,9.92,4.44,4
14,57781632336000,5.24,7.44,-5.98,4
14,57781682323000,14.86,6.21,2.03,4
14,57781732342000,7.46,8.28,4.9,4
14,57781782299000,7.67,9.81,-0.23,4
14,57781832348000,5.79,6.51,0.08,4
14,57781882366000,4.29,4.67,-0.04,4
14,57781932354000,2.41,2.68,-0.23,4
14,57781982342000,2.64,1.14,0.84,4
14,57782032330000,3.38,0.23,1.31,4
14,57782082348000,5.37,-0.99,-0.04,4
14,57782132336000,15.98,-2.68,4.9,4
14,57782182323000,11.92,14.02,1.73,4
14,57782232342000,2.64,-0.23,-1.61,4
14,57782282299000,3.02,5.37,-0.8,4
14,57782332378000,5.48,13.1,-1.27,4
14,57782382824000,7.08,10.84,-0.3,4
14,57782432323000,6.82,7.89,0.72,4
14,57782482342000,6.51,7.21,-0.5,4
14,57782532330000,6.17,8.39,-0.08,4
14,57782582317000,7.31,8.39,-1.92,4
14,57782632336000,9.34,6.09,-3.98,4
14,57782682323000,8.58,5.56,-3.57,4
14,57782732342000,6.89,6.47,-2.14,4
14,57782782299000,6.4,8.39,-0.42,4
14,57782832317000,6.02,7.86,-0.42,4
14,57782882336000,8.28,6.82,-1.33,4
14,57782932323000,8.92,6.55,-1.14,4
14,57782982372000,7.67,7.35,0.0,4
14,57783032360000,8.66,9.3,-0.08,4
14,57783082348000,8.81,9.38,2.41,4
14,57783132366000,6.13,10.88,5.13,4
14,57783182323000,3.38,11.96,0.15,4
14,57783232342000,4.29,15.13,-1.69,4
14,57783282299000,5.75,8.73,-1.46,4
14,57783332348000,6.66,4.75,-2.18,4
14,57783382336000,5.33,3.87,-2.07,4
14,57783432323000,3.87,4.02,-1.23,4
14,57783482342000,4.94,4.67,-0.19,4
14,57783532330000,13.53,3.49,1.84,4
14,57783592327000,10.61,4.52,3.91,4
14,57783642345000,12.98,15.7,-4.59,4
14,57783692333000,3.99,7.78,-0.84,4
14,57783742291000,2.3,7.78,-1.38,4
14,57783792339000,4.82,9.0,-0.57,4
14,57783842327000,5.98,8.73,-1.92,4
14,57783842327000,5.98,8.73,-1.92,4
14,57783912304000,7.08,7.16,-3.11,4
14,57783962292000,8.66,6.28,-2.79,4
14,57784012310000,9.51,6.82,-0.65,4
14,57784062328000,7.5,6.21,0.27,4
14,57784112347000,6.32,9.28,0.15,4
14,57784162334000,6.4,10.19,-0.53,4
14,57784212322000,6.74,11.69,-1.53,4
14,57784262371000,7.59,11.3,-0.61,4
14,57784312328000,8.81,8.85,1.46,4
14,57784362347000,9.0,13.67,7.01,4
14,57784412334000,3.17,12.03,0.42,4
14,57784462322000,7.08,8.73,-3.34,4
14,57784512341000,10.92,6.02,1.46,4
14,57784562328000,9.34,7.27,-0.72,4
14,57784612347000,6.13,4.75,-0.89,4
14,57784662334000,1.12,3.83,0.15,4
14,57784712292000,0.0,2.15,0.15,4
14,57784762371000,1.69,1.8,-1.04,4
14,57784812328000,4.48,1.42,-1.8,4
14,57784862347000,15.36,4.14,1.8,4
14,57784912334000,13.63,12.41,5.94,4
14,57784962353000,1.14,3.11,-2.45,4
14,57785012280000,3.76,3.99,-2.18,4
14,57785062328000,8.12,11.56,-2.14,4
14,57785112347000,10.38,8.58,-1.33,4
14,57785162365000,7.74,5.22,1.61,4
14,57785212353000,7.25,6.02,-0.69,4
14,57785262341000,7.06,6.59,-1.76,4
14,57785312359000,6.63,6.93,-1.14,4
14,57785362347000,6.97,7.46,-0.53,4
14,57785412334000,6.74,7.63,-0.46,4
14,57785462353000,6.85,8.58,-1.12,4
14,57785512341000,7.63,11.41,-1.73,4
14,57785562359000,8.58,13.59,-2.18,4
14,57785612347000,6.17,11.8,-1.46,4
14,57785662334000,3.91,9.28,0.34,4
14,57785712322000,8.35,8.66,6.78,4
14,57785762341000,10.92,6.78,-6.09,4
14,57785812328000,13.67,3.11,0.95,4
14,57785862377000,7.46,8.16,2.07,4
14,57785912579000,8.73,7.5,-3.02,4
14,57785962353000,2.83,6.05,-0.04,4
14,57786012310000,2.45,3.87,0.27,4
14,57786062328000,1.76,2.76,0.42,4
14,57786112347000,3.15,2.6,-1.08,4
14,57786162334000,4.48,1.54,-0.72,4
14,57786212322000,19.46,4.48,0.38,4
14,57786262371000,8.66,10.5,2.87,4
14,57786312328000,0.93,2.49,-1.69,4
14,57786362347000,4.21,8.01,-0.27,4
14,57786412365000,6.13,11.92,-1.53,4
14,57786462322000,7.89,9.47,-2.14,4
14,57786512341000,8.54,6.13,-0.89,4
14,57786562328000,9.51,5.24,0.23,4
14,57786672131000,7.97,6.7,-1.04,4
14,57786672131000,7.97,6.7,-1.04,4
14,57786722271000,8.28,7.55,-1.8,4
14,57786772350000,7.01,8.24,-1.38,4
14,57786822308000,5.43,9.04,-1.73,4
14,57786872326000,6.02,12.11,-1.69,4
14,57786922375000,7.21,13.18,-1.73,4
14,57786982342000,7.08,10.76,-0.61,4
14,57787032330000,10.65,9.23,8.92,4
14,57787082348000,6.32,8.54,-2.6,4
14,57787132336000,13.25,6.05,-1.84,4
14,57787182323000,7.16,8.39,2.11,4
14,57787232342000,8.39,7.16,-0.42,4
14,57787282299000,6.13,6.21,-1.08,4
14,57787332348000,2.22,5.09,0.08,4
14,57787382336000,0.23,3.49,-0.69,4
14,57787432324000,0.57,3.15,-1.8,4
14,57787482372000,5.94,0.72,0.0,4
14,57787532330000,19.11,9.23,0.93,4
14,57787582348000,6.66,7.4,2.22,4
14,57787632336000,2.41,1.84,-1.12,4
14,57787682323000,6.4,10.08,-1.46,4
14,57787732342000,7.21,10.5,-2.07,4
14,57787782330000,7.82,7.78,-1.65,4
14,57787832348000,8.69,5.86,-0.3,4
14,57787882336000,10.27,4.63,-0.84,4
14,57787932324000,8.01,4.37,-0.23,4
14,57787982342000,7.74,6.85,-0.84,4
14,57788032299000,7.25,7.27,-1.12,4
14,57788082348000,6.4,7.59,-0.42,4
14,57788132336000,5.71,8.31,-2.14,4
14,57788182323000,4.29,9.66,-2.75,4
14,57788232342000,3.45,11.11,-2.56,4
14,57788282360000,6.13,11.84,-2.49,4
14,57788332348000,9.77,10.65,-3.87,4
14,57788382336000,11.3,9.0,-1.99,4
14,57788432324000,7.97,7.89,5.94,4
14,57788482342000,8.73,8.39,-0.19,4
14,57788532330000,8.92,6.82,0.95,4
14,57788582348000,6.4,9.11,-0.84,4
14,57788632336000,4.1,9.15,-2.49,4
14,57788682323000,2.26,8.85,-1.95,4
14,57788732342000,3.76,8.35,2.53,4
14,57788782299000,6.66,6.89,-0.27,4
14,57788832348000,7.01,6.59,-0.8,4
14,57788882336000,4.94,7.97,0.15,4
14,57788932354000,2.56,6.85,-0.8,4
14,57788982342000,3.06,5.56,-0.72,4
14,57789032330000,4.94,4.94,-0.27,4
14,57789082378000,8.69,4.99,0.53,4
14,57789132336000,18.31,6.4,5.71,4
14,57789182323000,8.08,5.79,0.89,4
14,57789232342000,9.7,13.48,0.8,4
14,57789282330000,5.75,9.77,-1.12,4
14,57789332348000,-0.38,5.24,-2.34,4
14,57789382336000,3.79,8.69,-1.33,4
14,57789432324000,6.17,10.99,-2.14,4
14,57789482372000,4.79,8.16,-3.6,4
14,57789532330000,5.6,7.01,-2.41,4
14,57789582348000,6.74,8.62,-0.57,4
14,57789632336000,7.74,8.85,-0.76,4
14,57789682323000,7.63,6.74,-1.84,4
14,57789732372000,8.28,6.55,-1.73,4
14,57789782299000,7.27,6.85,-1.53,4
14,57789832348000,6.17,7.25,-0.53,4
14,57789882336000,6.93,7.59,-0.8,4
14,57789932324000,7.97,6.93,-1.53,4
14,57789982342000,8.35,6.28,-0.99,4
14,57790032360000,8.58,6.59,-0.46,4
14,57790082348000,9.38,10.92,0.15,4
14,57790132336000,7.5,14.44,11.75,4
14,57790182323000,2.49,13.1,1.38,4
14,57790232342000,6.63,16.47,-1.14,4
14,57790282269000,11.41,7.93,0.8,4
14,57790332348000,7.12,7.46,0.42,4
14,57790382366000,8.5,5.6,-0.42,4
14,57790432324000,6.59,2.96,-0.69,4
14,57790482342000,3.83,2.34,1.12,4
14,57790532330000,3.68,1.42,4.63,4
14,57790582348000,5.56,1.92,4.18,4
14,57790632366000,8.54,-0.3,3.11,4
14,57790682293000,8.31,-0.3,3.57,4
14,57790732342000,16.09,-2.22,9.47,4
14,57790782604000,11.56,7.86,4.33,4
14,57790832348000,3.83,3.45,1.54,4
14,57790882336000,6.24,3.99,0.65,4
14,57790932324000,9.34,10.34,0.38,4
14,57790982342000,7.78,5.98,-0.19,4
14,57791032299000,8.16,6.13,-0.19,4
14,57791082348000,6.89,7.27,-0.69,4
14,57791132336000,6.51,7.82,-1.5,4
14,57791182323000,7.89,8.47,-1.84,4
14,57791232342000,8.01,7.63,-0.72,4
14,57791282269000,8.54,6.36,-0.5,4
14,57791332348000,9.51,5.83,-1.99,4
14,57791382336000,8.81,6.17,-0.72,4
14,57791432324000,7.63,6.32,-1.08,4
14,57791482342000,6.44,7.97,-1.04,4
14,57791532330000,6.36,10.73,-0.99,4
14,57791582348000,6.36,13.21,-0.27,4
14,57791632336000,8.2,12.26,-0.3,4
14,57791699657000,6.47,9.72,0.46,4
14,57791752300000,5.79,12.11,0.27,4
14,57791802654000,9.19,9.04,-2.03,4
14,57791852306000,10.88,5.67,-0.34,4
14,57791902294000,10.61,6.24,-1.08,4
14,57791952313000,7.78,5.63,-0.8,4
14,57792002789000,2.11,4.67,0.27,4
14,57792052319000,1.27,2.41,1.12,4
14,57792102306000,2.34,1.99,1.14,4
14,57792152294000,5.41,0.72,0.8,4
14,57792202313000,5.75,1.27,0.46,4
14,57792252300000,7.82,4.82,0.31,4
14,57792302319000,19.08,11.92,4.48,4
14,57792352306000,6.21,4.79,0.31,4
14,57792402294000,2.6,4.37,-3.02,4
14,57792452313000,8.16,8.28,-1.65,4
14,57792502270000,8.24,8.89,-1.65,4
14,57792552319000,8.01,6.63,-0.65,4
14,57792602337000,7.82,5.6,0.23,4
14,57792652294000,8.12,6.44,-0.27,4
14,57792702313000,6.74,6.78,-0.46,4
14,57792752300000,8.12,7.21,-1.33,4
14,57792802319000,8.54,6.89,-1.31,4
14,57792852306000,6.09,7.08,-1.23,4
14,57792902264000,5.98,9.15,-1.23,4
14,57792952313000,7.46,11.75,-1.18,4
14,57793002331000,9.15,13.44,-1.46,4
14,57793052319000,9.58,10.27,1.31,4
14,57793102306000,8.5,9.0,5.43,4
14,57793152294000,5.79,9.66,-0.04,4
14,57793202313000,12.18,4.94,-2.75,4
14,57793252300000,8.35,6.28,1.8,4
14,57793302319000,7.97,6.78,-0.3,4
14,57793352306000,7.01,5.43,-1.23,4
14,57793402294000,2.6,3.95,0.8,4
14,57793452313000,2.53,2.79,0.72,4
14,57793502300000,3.15,2.49,0.84,4
14,57793552319000,5.24,1.65,-0.3,4
14,57793602306000,5.79,3.17,-0.19,4
14,57793652294000,18.28,1.5,1.12,4
14,57793702313000,11.69,12.34,3.26,4
14,57793752300000,2.22,1.65,-1.46,4
14,57793802319000,7.01,6.47,0.34,4
14,57793852306000,6.32,9.72,-0.84,4
14,57793902294000,6.28,7.12,-1.12,4
14,57793952313000,7.7,7.59,-0.42,4
14,57794002514000,9.04,7.59,-0.23,4
14,57794052319000,7.06,6.36,-0.27,4
14,57794102337000,7.16,6.21,-0.8,4
14,57794152355000,7.82,6.63,-1.18,4
14,57794202282000,7.67,6.63,-1.18,4
14,57794252331000,6.63,8.05,-0.27,4
14,57794302319000,5.79,9.51,0.15,4
14,57794352306000,6.24,10.57,-0.72,4
14,57794402294000,8.05,12.91,-1.42,4
14,57794452313000,8.62,13.25,-2.11,4
14,57794502300000,7.4,9.53,3.11,4
14,57794552319000,7.27,9.53,3.11,4
14,57794602276000,10.92,5.43,-2.14,4
14,57794652203000,11.3,5.83,1.88,4
14,57794702343000,8.54,8.05,1.14,4
14,57794752300000,8.05,7.44,-0.53,4
14,57794802319000,3.79,5.22,0.08,4
14,57794852337000,1.18,2.83,0.93,4
14,57794902294000,0.72,1.54,1.08,4
14,57794952313000,2.11,0.15,-1.08,4
14,57795002300000,6.13,0.0,1.14,4
14,57795052319000,17.82,11.84,3.76,4
14,57795102306000,8.24,6.7,2.56,4
14,57795152294000,0.8,1.99,-0.61,4
14,57795202313000,6.78,7.86,-2.75,4
14,57795252300000,9.92,11.14,-3.21,4
14,57795302319000,9.47,6.51,-1.5,4
14,57795352306000,8.77,5.09,0.72,4
14,57795402294000,8.24,6.02,0.27,4
14,57795452313000,6.78,6.02,0.69,4
14,57795502300000,7.86,7.08,-0.91,4
14,57795552288000,8.05,7.08,-0.04,4
14,57795602337000,5.98,6.85,-1.31,4
14,57795652325000,4.48,7.67,-2.37,4
14,57795652325000,4.48,7.67,-2.37,4
14,57795754284000,4.71,10.99,-3.06,4
14,57795754284000,4.71,10.99,-3.06,4
14,57795812267000,11.22,12.79,-2.34,4
14,57795862347000,6.09,10.69,4.29,4
14,57795912334000,6.17,8.89,5.18,4
14,57795962353000,8.92,6.66,-1.84,4
14,57796012310000,7.25,6.02,-0.42,4
14,57796062328000,5.05,8.2,-1.14,4
14,57796112347000,1.61,12.03,0.11,4
14,57796162334000,-0.27,9.96,3.06,4
14,57796212322000,3.3,7.59,-1.33,4
14,57796262310000,7.67,6.7,-0.3,4
14,57796312328000,8.85,7.06,1.33,4
14,57796362347000,4.44,7.82,0.19,4
14,57796412334000,4.48,6.36,-1.04,4
14,57796462322000,5.48,4.82,0.65,4
14,57796512371000,5.33,4.02,0.57,4
14,57796562328000,8.12,4.18,0.23,4
14,57796612347000,16.02,6.55,5.6,4
14,57796662334000,7.78,3.95,2.37,4
14,57796712322000,7.21,10.73,-0.04,4
14,57796762341000,11.5,18.47,-2.14,4
14,57796812328000,1.42,7.21,-0.95,4
14,57796862347000,-0.76,2.91,0.0,4
14,57796912334000,4.29,8.12,-1.92,4
14,57796962322000,4.48,14.37,-3.3,4
14,57797012341000,3.26,9.47,-6.36,4
14,57797062328000,6.13,7.93,-2.22,4
14,57797112347000,6.85,7.97,-5.43,4
14,57797162334000,9.19,7.67,-4.63,4
14,57797212322000,9.81,4.9,-3.91,4
14,57797262341000,10.12,3.53,-2.49,4
14,57797312328000,10.27,6.02,0.19,4
14,57797362347000,6.93,9.43,7.31,4
14,57797412334000,5.67,7.78,2.11,4
14,57797462322000,5.22,8.69,-0.72,4
14,57797512341000,7.93,13.57,-6.28,4
14,57797562328000,7.55,14.9,-8.35,4
14,57797612347000,7.82,10.76,-3.83,4
14,57797662334000,9.66,12.3,4.63,4
14,57797712353000,6.05,9.72,6.59,4
14,57797762341000,3.38,11.54,-1.76,4
14,57797812328000,4.56,7.01,-1.84,4
14,57797862347000,13.25,4.56,1.14,4
14,57797912334000,5.63,11.6,-0.76,4
14,57797962353000,4.21,8.69,0.19,4
14,57798012310000,6.93,4.75,-1.65,4
14,57798062328000,2.6,4.37,-1.38,4
14,57798112347000,-0.38,2.53,-1.92,4
14,57798162365000,2.53,2.11,-3.45,4
14,57798212322000,10.8,6.74,-1.18,4
14,57798262341000,18.58,17.35,3.21,4
14,57798312328000,3.45,3.99,2.83,4
14,57798362347000,1.99,6.59,-1.65,4
14,57798412334000,7.08,10.23,-2.03,4
14,57798462322000,7.63,8.85,-2.49,4
14,57798512341000,7.55,5.79,-1.61,4
14,57798562328000,7.97,4.63,-1.5,4
14,57798612377000,8.12,5.98,-1.42,4
14,57798662334000,6.74,7.63,-0.08,4
14,57798712322000,6.63,8.5,0.5,4
14,57798762341000,6.85,8.89,-1.38,4
14,57798812328000,7.35,10.34,-2.14,4
14,57798862377000,8.77,11.73,-1.95,4
14,57798912334000,10.42,10.19,2.53,4
14,57798962353000,7.67,11.14,4.79,4
14,57799012280000,5.98,11.75,-0.04,4
14,57799062328000,7.74,8.01,-2.18,4
14,57799112347000,9.96,6.93,-1.14,4
14,57799162365000,6.59,7.46,0.8,4
14,57799212322000,8.05,6.4,-1.84,4
14,57799262341000,3.6,5.48,-0.84,4
14,57799312328000,0.5,4.9,-1.65,4
14,57799362347000,-0.19,4.4,-2.6,4
14,57799412334000,2.64,4.18,-1.88,4
14,57799462322000,17.05,11.75,-1.18,4
14,57799512341000,13.48,10.69,6.32,4
14,57799562328000,2.18,5.71,-0.5,4
14,57799622295000,3.79,8.39,-1.23,4
14,57799682262000,7.74,10.42,-3.45,4
14,57799732372000,9.66,6.36,-3.34,4
14,57799782360000,9.15,3.76,-0.42,4
14,57799832348000,7.27,6.05,2.98,4
14,57799882366000,6.59,7.86,-0.3,4
14,57799932354000,7.97,7.78,-1.53,4
14,57799982342000,7.67,10.31,-2.07,4
14,57800032360000,7.78,11.88,-3.02,4
14,57800082348000,10.19,9.58,1.76,4
14,57800132397000,9.85,10.34,4.99,4
14,57800182354000,5.79,11.37,0.04,4
14,57800232342000,5.18,8.47,-2.45,4
14,57800282421000,11.14,6.36,-1.99,4
14,57800332348000,6.09,8.66,-0.46,4
14,57800382336000,5.9,6.66,-0.72,4
14,57800432324000,6.36,5.75,-1.31,4
14,57800482342000,4.18,5.79,-1.04,4
14,57800532299000,0.15,5.13,-2.37,4
14,57800582317000,-1.31,5.98,0.27,4
14,57800632366000,11.54,2.91,2.41,4
14,57800682323000,15.89,17.58,2.98,4
14,57800732372000,3.64,2.6,-0.8,4
14,57800782635000,5.6,5.75,-2.6,4
14,57800832348000,6.7,10.95,-1.46,4
14,57800882336000,9.19,8.62,-3.45,4
14,57800932324000,9.04,5.98,-1.12,4
14,57800982342000,8.62,5.86,0.04,4
14,57801032330000,8.58,5.37,-0.3,4
14,57801082348000,6.93,6.93,1.46,4
14,57801132336000,7.21,6.7,-0.38,4
14,57801182323000,6.09,5.94,-2.22,4
14,57801232372000,5.9,10.34,-5.05,4
14,57801282238000,6.47,13.72,-4.4,4
14,57801332348000,8.5,12.57,0.11,4
14,57801382336000,6.74,11.5,9.81,4
14,57801432354000,7.35,8.69,0.89,4
14,57801482311000,6.4,8.69,-1.92,4
14,57801532330000,4.21,6.47,-2.96,4
14,57801582348000,5.94,8.28,-1.14,4
14,57801632336000,0.65,11.41,7.25,4
14,57801682323000,5.98,8.5,0.72,4
14,57801732342000,6.21,7.31,-0.11,4
14,57801782299000,2.91,8.16,1.57,4
14,57801832348000,3.76,5.13,-1.12,4
14,57801882336000,4.56,3.95,-0.69,4
14,57801932324000,4.9,3.6,-1.04,4
14,57801982342000,10.65,1.65,-0.76,4
14,57802032330000,19.53,5.71,6.7,4
14,57802082348000,17.58,10.19,3.72,4
14,57802132366000,0.53,8.73,-3.6,4
14,57802182323000,-6.02,9.51,-2.03,4
14,57802232342000,2.87,12.34,-0.61,4
14,57802282299000,6.66,11.3,-1.33,4
14,57802352337000,5.86,7.27,-1.99,4
14,57802402294000,7.4,6.63,-2.56,4
14,57802452343000,7.82,8.05,-1.99,4
14,57802502239000,7.46,7.5,-3.21,4
14,57802552319000,6.85,7.44,-1.73,4
14,57802602276000,6.85,8.28,0.19,4
14,57802652294000,6.21,8.35,0.42,4
14,57802702313000,5.67,6.74,-0.08,4
14,57802752300000,7.31,7.44,-0.65,4
14,57802802349000,8.58,9.51,2.53,4
14,57802852306000,12.95,10.08,10.08,4
14,57802902294000,7.06,11.88,2.56,4
14,57802952313000,3.95,15.98,-0.15,4
14,57803002300000,6.17,17.5,2.18,4
14,57803052319000,9.7,8.12,2.07,4
14,57803102306000,7.97,7.21,1.33,4
14,57803152294000,8.43,3.64,0.08,4
14,57803202313000,3.3,3.26,-0.89,4
14,57803252300000,0.89,1.73,0.5,4
14,57803302319000,0.72,1.54,0.31,4
14,57803352306000,4.6,2.07,-0.84,4
14,57803402294000,12.57,5.52,6.05,4
14,57803452313000,14.21,14.02,2.79,4
14,57803502300000,1.08,1.88,-0.69,4
14,57803552319000,5.83,5.67,-4.14,4
14,57803602306000,8.62,9.3,-3.11,4
14,57803652294000,9.72,7.44,-2.96,4
14,57803702313000,9.81,5.75,0.15,4
14,57803752300000,8.31,6.21,0.57,4
14,57803802349000,7.46,6.63,0.31,4
14,57803852306000,7.67,6.93,-1.12,4
14,57803902294000,7.86,7.06,-2.41,4
14,57803952313000,6.59,6.82,-1.8,4
14,57804002544000,5.9,8.85,-1.61,4
14,57804052319000,6.21,13.06,-1.65,4
14,57804102306000,7.21,13.44,-0.3,4
14,57804152294000,8.43,10.42,0.31,4
14,57804202313000,9.28,9.53,7.67,4
14,57804252300000,4.44,10.84,-4.14,4
14,57804302319000,14.6,5.86,-1.57,4
14,57804352306000,8.08,8.69,2.83,4
14,57804402294000,7.59,8.58,-1.12,4
14,57804452313000,5.98,5.22,-0.99,4
14,57804502300000,2.34,3.95,0.19,4
14,57804552319000,1.31,2.45,0.08,4
14,57804602306000,2.83,2.03,0.31,4
14,57804652294000,5.56,1.14,-0.72,4
14,57804702313000,6.09,2.37,-0.38,4
14,57804752483000,16.09,7.06,-1.33,4
14,57804802319000,13.76,10.84,4.52,4
14,57804852306000,2.15,3.57,-1.42,4
14,57804902294000,3.15,7.82,-1.08,4
14,57804952313000,6.82,11.65,-0.8,4
14,57805002300000,6.85,8.66,-1.88,4
14,57805052319000,7.35,6.17,-0.99,4
14,57805102306000,9.53,5.09,-0.95,4
14,57805152294000,8.58,5.28,-0.19,4
14,57805202313000,7.7,5.83,-0.69,4
14,57805252300000,7.46,7.82,-0.5,4
14,57805302319000,7.06,7.7,-0.84,4
14,57805352337000,5.71,7.93,-1.73,4
14,57805402294000,5.48,9.19,-1.53,4
14,57805452313000,6.28,11.03,-1.53,4
14,57805502300000,8.62,13.38,-2.03,4
14,57805552319000,8.43,11.07,-1.04,4
14,57805602306000,13.06,6.97,13.29,4
14,57805652294000,6.4,10.04,-4.06,4
14,57805702313000,14.67,5.6,-3.79,4
14,57805752300000,9.04,8.39,3.02,4
14,57805802349000,6.28,9.34,-1.14,4
14,57805852306000,6.59,6.32,0.08,4
14,57805902294000,2.64,5.13,0.04,4
14,57805952313000,1.95,3.79,0.23,4
14,57806002514000,-0.61,3.26,-0.11,4
14,57806052319000,1.12,2.68,-1.53,4
14,57806102306000,9.96,2.79,-0.53,4
14,57806152294000,19.42,16.89,2.41,4
14,57806202313000,3.68,1.88,0.0,4
14,57806252300000,1.54,3.83,-2.11,4
14,57806302319000,6.44,10.19,-1.99,4
14,57806352306000,9.92,11.14,-2.6,4
14,57806402294000,8.05,5.94,-1.42,4
14,57806452313000,8.28,4.63,0.65,4
14,57806502300000,7.59,6.4,0.5,4
14,57806552319000,7.21,6.44,0.04,4
14,57806602306000,7.44,7.21,-1.92,4
14,57806652294000,7.01,7.97,-2.68,4
14,57806702313000,5.13,8.54,-2.6,4
14,57806752300000,4.37,11.14,-3.11,4
14,57806802319000,6.74,11.92,-1.42,4
14,57806852306000,9.66,11.84,-1.33,4
14,57806902294000,8.69,10.19,3.21,4
14,57806952313000,6.74,10.27,3.38,4
14,57807002300000,5.37,10.73,-2.45,4
14,57807052319000,9.11,5.52,-1.23,4
14,57807102581000,10.92,6.05,1.38,4
14,57807152294000,5.75,8.43,-1.38,4
14,57807202313000,7.86,6.78,0.0,4
14,57807252300000,5.98,6.47,-1.14,4
14,57807302319000,2.83,5.52,-0.3,4
14,57807352306000,0.5,3.91,-0.72,4
14,57807352306000,0.5,3.91,-0.72,4
14,57807412273000,0.5,4.18,-1.76,4
14,57807462322000,13.02,4.21,-1.14,4
14,57807512341000,17.08,15.43,4.99,4
14,57807562328000,3.11,2.49,0.38,4
14,57807612377000,5.67,6.28,-2.34,4
14,57807662334000,5.98,9.89,-1.46,4
14,57807712322000,7.06,8.66,-2.18,4
14,57807762341000,7.97,6.32,-1.88,4
14,57807812328000,10.27,4.71,-0.76,4
14,57807862347000,8.89,4.9,1.65,4
14,57807912334000,6.51,7.44,0.38,4
14,57807962353000,6.66,9.04,0.61,4
14,57808012310000,6.97,7.46,-1.08,4
14,57808062328000,5.13,6.78,-2.11,4
14,57808112347000,4.48,8.01,-4.33,4
14,57808162334000,4.06,9.19,-2.87,4
14,57808212322000,5.52,9.89,-1.65,4
14,57808262341000,7.7,12.72,-1.99,4
14,57808312359000,10.61,13.02,-2.6,4
14,57808362347000,10.23,9.38,-2.34,4
14,57808412334000,6.05,7.4,0.08,4
14,57808462322000,9.34,5.67,6.44,4
14,57808512341000,5.98,7.35,-1.61,4
14,57808562328000,4.79,9.34,-1.73,4
14,57808612347000,3.26,11.75,-2.18,4
14,57808662334000,-0.8,11.37,1.5,4
14,57808712322000,2.49,10.53,2.83,4
14,57808762341000,5.37,8.05,-0.99,4
14,57808812328000,5.24,7.7,-0.38,4
14,57808862347000,4.52,6.05,-2.14,4
14,57808912334000,3.45,4.14,-2.45,4
14,57808962353000,5.37,3.34,-1.23,4
14,57809012280000,8.43,2.18,-1.31,4
14,57809062328000,18.96,5.37,7.46,4
14,57809112347000,8.39,11.37,5.71,4
14,57809162334000,-4.02,10.19,-4.37,4
14,57809212322000,-5.48,9.47,-2.49,4
14,57809262341000,3.06,13.87,-0.15,4
14,57809312328000,4.06,11.18,-3.26,4
14,57809362347000,5.9,7.97,-3.98,4
14,57809412334000,8.62,8.89,-5.28,4
14,57809462383000,9.96,7.31,-5.43,4
14,57809512341000,9.81,6.4,-2.64,4
14,57809562328000,9.72,6.59,-1.84,4
14,57809612347000,8.89,5.6,-0.95,4
14,57809662334000,8.35,7.16,0.42,4
14,57809712322000,6.4,10.42,6.44,4
14,57809762341000,5.86,9.89,1.23,4
14,57809812328000,8.16,10.65,-1.31,4
14,57809862347000,8.85,11.56,-1.84,4
14,57809912334000,5.94,11.07,2.45,4
14,57809962353000,4.82,11.5,0.46,4
14,57810012280000,5.94,8.77,-2.34,4
14,57810062328000,12.98,6.63,1.76,4
14,57810112347000,6.85,10.19,0.38,4
14,57810222118000,5.24,7.08,-1.04,4
14,57810222118000,5.24,7.08,-1.04,4
14,57810272747000,3.95,4.82,-0.34,4
14,57810322399000,3.06,3.49,-0.04,4
14,57810372295000,3.17,2.87,-0.65,4
14,57810422375000,5.37,2.03,0.11,4
14,57810472332000,7.35,3.68,0.08,4
14,57810532269000,15.02,10.99,-0.3,4
14,57810582348000,13.44,7.46,1.84,4
14,57810632397000,4.71,5.9,0.5,4
14,57810682323000,5.41,6.28,-1.76,4
14,57810732342000,7.31,8.54,-2.72,4
14,57810782299000,7.74,8.12,-2.07,4
14,57810832348000,7.93,6.47,-1.76,4
14,57810882336000,8.54,5.79,-1.04,4
14,57810932324000,7.27,6.17,-0.65,4
14,57810982342000,6.44,6.55,-0.23,4
14,57811032330000,7.59,6.74,-1.73,4
14,57811082348000,7.44,7.4,-1.53,4
14,57811132305000,4.82,8.24,-1.53,4
14,57811182323000,3.87,9.81,-0.91,4
14,57811232342000,6.36,8.39,-0.19,4
14,57811282360000,7.4,8.5,-1.73,4
14,57811332348000,8.5,10.8,-2.03,4
14,57811382336000,10.76,13.4,-2.68,4
14,57811432324000,9.08,11.35,2.34,4
14,57811482342000,6.4,10.15,4.79,4
14,57811532330000,8.01,7.78,-5.28,4
14,57811582348000,12.95,5.05,-0.08,4
14,57811632336000,7.12,9.81,0.72,4
14,57811682323000,5.09,7.31,-2.26,4
14,57811732342000,4.18,6.24,0.0,4
14,57811782299000,3.68,4.44,0.23,4
14,57811832348000,2.26,3.15,0.27,4
14,57811882336000,1.8,3.17,0.46,4
14,57811932324000,2.96,2.64,-0.91,4
14,57811982342000,9.72,2.49,1.14,4
14,57812032330000,18.89,14.56,2.79,4
14,57812082348000,5.83,4.71,1.73,4
14,57812132366000,2.18,4.25,-1.69,4
14,57812182323000,7.4,9.85,-2.11,4
14,57812232342000,8.73,10.31,-2.07,4
14,57812282299000,8.05,7.16,-1.57,4
14,57812332348000,7.44,6.05,-0.19,4
14,57812382336000,7.59,5.22,-1.18,4
14,57812432354000,6.74,5.98,-0.3,4
14,57812482342000,6.93,5.83,-0.5,4
14,57812532330000,7.86,7.89,-1.12,4
14,57812582317000,7.25,7.89,-1.14,4
14,57812632336000,6.05,7.93,-1.38,4
14,57812682323000,5.37,8.01,-1.23,4
14,57812732342000,5.6,8.54,-1.14,4
14,57812782330000,5.71,9.72,-1.99,4
14,57812832348000,7.59,12.98,-3.21,4
14,57812882366000,9.3,12.83,-3.26,4
14,57812932324000,7.21,10.12,-1.65,4
14,57812982739000,9.28,9.28,7.16,4
14,57813032330000,8.16,9.77,2.37,4
14,57813082378000,3.76,8.28,-4.67,4
14,57813132336000,10.84,3.26,0.15,4
14,57813182354000,6.13,8.35,-2.22,4
14,57813232342000,5.98,6.36,-2.18,4
14,57813282330000,7.63,7.08,-1.12,4
14,57813332348000,8.89,6.78,-0.69,4
14,57813382336000,5.37,6.24,-0.08,4
14,57813432324000,3.72,4.33,0.15,4
14,57813482342000,4.56,2.91,0.34,4
14,57813532330000,4.79,2.64,0.65,4
14,57813582348000,7.67,2.96,3.57,4
14,57813632336000,19.11,9.34,1.92,4
14,57813682323000,8.05,8.5,0.15,4
14,57813732342000,7.27,2.11,-2.79,4
14,57813782330000,7.35,7.12,-0.27,4
14,57813832348000,6.82,8.16,-0.19,4
14,57813882336000,7.06,8.43,-0.34,4
14,57813932293000,7.7,7.63,-0.3,4
14,57813982342000,7.08,5.33,-1.18,4
14,57814032330000,7.78,6.4,-0.89,4
14,57814082348000,9.89,5.48,-1.57,4
14,57814132336000,7.59,6.59,-2.45,4
14,57814192333000,6.05,7.93,-1.88,4
14,57814242321000,4.71,9.08,-0.95,4
14,57814292309000,4.14,8.96,-0.08,4
14,57814342327000,5.67,7.97,-2.03,4
14,57814392376000,6.59,7.89,-3.02,4
14,57814442333000,7.16,8.31,-3.26,4
14,57814492321000,8.69,8.89,-2.22,4
14,57814542339000,9.96,10.8,-1.08,4
14,57814592327000,8.35,11.41,-1.31,4
14,57814642345000,3.91,11.3,1.08,4
14,57814692333000,5.09,9.38,-0.34,4
14,57814742321000,7.74,6.44,-1.18,4
14,57814792339000,7.59,6.21,0.38,4
14,57814842327000,4.29,6.24,-1.73,4
14,57814892315000,4.29,8.92,-0.08,4
14,57814942333000,2.37,9.96,4.4,4
14,57814992291000,3.38,8.16,0.5,4
14,57815042339000,5.01,8.35,0.34,4
14,57815092327000,3.79,7.25,0.27,4
14,57815092327000,3.79,7.25,0.27,4
14,57815172405000,4.56,6.66,-0.5,4
14,57815222302000,5.24,6.13,-0.08,4
14,57815272808000,6.97,5.24,0.23,4
14,57815332317000,15.51,4.33,1.92,4
14,57815382336000,9.7,6.47,5.75,4
14,57815432354000,4.06,9.34,0.76,4
14,57815482342000,9.11,14.33,4.79,4
14,57815532330000,7.4,8.08,-2.37,4
14,57815582348000,3.76,5.43,-2.68,4
14,57815632366000,4.14,5.24,-2.11,4
14,57815682324000,6.21,9.66,-0.46,4
14,57815732342000,6.59,9.72,-1.5,4
14,57815782330000,5.18,7.08,-0.84,4
14,57815832348000,5.79,7.78,-1.46,4
14,57815882336000,6.82,8.54,-2.11,4
14,57815932324000,5.43,8.24,-0.3,4
14,57815982372000,5.41,8.35,-0.89,4
14,57816032330000,6.13,8.01,-1.14,4
14,57816082348000,6.09,7.89,-1.08,4
14,57816132336000,6.44,8.2,-1.04,4
14,57816182324000,6.85,8.08,-0.19,4
14,57816232342000,7.97,6.4,-1.5,4
14,57816282238000,8.35,6.09,-1.65,4
14,57816332348000,7.74,9.7,-0.19,4
14,57816382336000,6.21,13.14,-0.04,4
14,57816432324000,2.79,13.06,6.55,4
14,57816482342000,2.41,12.03,1.04,4
14,57816532360000,2.07,10.92,-1.23,4
14,57816582317000,5.18,7.82,-0.69,4
14,57816582317000,5.18,7.82,-0.69,4
14,57816662457000,9.66,4.1,-1.84,4
14,57816712139000,7.74,4.06,-1.53,4
14,57816762341000,6.63,6.74,0.84,4
14,57816812206000,4.56,6.82,0.84,4
14,57816863049000,6.4,6.32,2.3,4
14,57816913006000,9.66,5.83,4.14,4
14,57816972271000,9.66,6.4,2.41,4
14,57817022381000,6.09,8.66,-0.08,4
14,57817083416000,9.43,13.63,-1.42,4
14,57817142407000,4.06,8.01,-0.69,4
14,57817202526000,1.84,4.4,0.19,4
14,57817252300000,6.63,10.04,-0.89,4
14,57817252300000,6.63,10.04,-0.89,4
14,57817312969000,6.78,10.08,-1.18,4
14,57817373974000,6.21,6.36,-3.76,4
14,57817432293000,7.7,7.55,-2.45,4
14,57817494488000,5.94,7.93,-0.11,4
14,57817494488000,5.94,7.93,-0.11,4
14,57817558300000,6.13,7.59,-0.8,4
14,57817612408000,6.59,7.46,-1.08,4
14,57817662701000,5.9,8.69,-0.95,4
14,57817722363000,5.37,8.28,-0.57,4
14,57817782299000,7.5,6.82,-1.46,4
14,57817832348000,11.6,9.66,-1.14,4
14,57817882336000,8.43,10.27,0.34,4
14,57817932324000,5.37,13.67,12.07,4
14,57817982342000,3.06,15.85,-1.99,4
14,57818052319000,3.21,15.85,-1.99,4
14,57818102276000,10.34,3.95,0.61,4
14,57818152325000,8.39,5.6,0.65,4
14,57818202282000,9.51,3.3,0.11,4
14,57818252300000,7.63,4.1,0.08,4
14,57818302349000,5.18,3.02,4.79,4
14,57818352306000,4.75,2.98,3.68,4
14,57818402294000,8.08,1.38,3.41,4
14,57818452313000,7.31,0.93,3.83,4
14,57818502300000,6.89,0.15,2.98,4
14,57818552319000,8.24,-0.91,1.8,4
14,57818602306000,8.96,0.23,3.26,4
14,57818652325000,19.04,5.9,7.97,4
14,57818702313000,6.17,6.82,1.08,4
14,57818752300000,0.93,3.83,2.41,4
14,57818802319000,7.46,12.11,1.12,4
14,57818852306000,7.31,9.15,-1.65,4
14,57818902294000,6.55,6.97,-1.53,4
14,57818952313000,6.17,8.58,-1.38,4
14,57819002300000,7.55,8.16,-1.5,4
14,57819052319000,10.27,7.16,-1.12,4
14,57819102306000,10.8,4.37,-0.8,4
14,57819152294000,11.6,4.86,-0.99,4
14,57819202313000,7.89,6.28,-0.19,4
14,57819252300000,5.41,7.78,-0.65,4
14,57819302319000,4.82,8.77,-0.27,4
14,57819352337000,6.13,11.73,-1.84,4
14,57819402294000,6.02,11.96,-1.57,4
14,57819452313000,7.78,12.79,-0.89,4
14,57819502300000,7.35,10.5,-0.61,4
14,57819552319000,12.79,5.56,13.29,4
14,57819602306000,9.3,7.7,-5.79,4
14,57819652294000,13.21,7.16,0.0,4
14,57819702313000,4.67,9.34,-0.11,4
14,57819752300000,7.89,7.4,-1.33,4
14,57819802319000,6.4,6.24,-1.08,4
14,57819852306000,3.76,4.48,-0.72,4
14,57819902294000,2.22,3.64,-0.65,4
14,57819952313000,1.73,2.53,-0.91,4
14,57820002941000,4.06,1.73,-1.18,4
14,57820002941000,4.06,1.73,-1.18,4
14,57820062359000,9.92,3.49,0.53,4
14,57820112347000,15.17,14.1,4.63,4
14,57820162334000,1.12,4.29,-0.15,4
14,57820212322000,2.53,7.4,-0.76,4
14,57820262310000,7.21,11.35,-1.33,4
14,57820322369000,8.24,8.54,-1.8,4
14,57820382305000,7.78,5.13,-0.84,4
14,57820432324000,9.19,5.33,0.15,4
14,57820482342000,6.21,5.52,0.69,4
14,57820532330000,7.21,7.55,-1.08,4
14,57820582378000,7.27,8.05,-1.8,4
14,57820632336000,6.32,7.89,-1.92,4
14,57820682323000,4.79,8.39,-1.65,4
14,57820732342000,5.24,10.15,-2.11,4
14,57820782330000,8.2,12.91,-3.02,4
14,57820832348000,9.81,13.48,-2.14,4
14,57820882336000,6.24,9.34,1.54,4
14,57820932324000,7.31,8.47,7.31,4
14,57820982342000,7.06,9.72,-2.14,4
14,57821032360000,8.31,6.7,-4.86,4
14,57821082348000,10.19,4.33,2.22,4
14,57821132336000,5.6,8.54,0.15,4
14,57821182323000,6.17,7.08,-0.23,4
14,57821232372000,5.6,6.59,0.65,4
14,57821282299000,6.28,6.02,0.76,4
14,57821332348000,5.33,4.25,1.54,4
14,57821382336000,5.86,2.6,1.23,4
14,57821432324000,6.17,2.15,1.04,4
14,57821482342000,4.71,2.76,1.27,4
14,57821532330000,10.46,0.93,4.48,4
14,57821582348000,14.02,9.92,1.46,4
14,57821632336000,9.19,9.08,1.31,4
14,57821682323000,9.53,5.13,-1.27,4
14,57821732372000,6.59,7.55,0.42,4
14,57821782330000,5.28,7.27,-0.84,4
14,57821832348000,6.7,7.89,-1.23,4
14,57821882336000,9.3,7.78,-1.53,4
14,57821932324000,9.7,5.41,-1.04,4
14,57821992321000,7.7,5.05,0.53,4
14,57822042278000,6.55,6.51,0.89,4
14,57822092388000,6.97,7.59,-0.8,4
14,57822142315000,6.97,7.89,-1.42,4
14,57822192333000,6.32,8.16,-1.27,4
14,57822242321000,5.75,8.05,-1.73,4
14,57822292309000,5.37,8.54,-1.73,4
14,57822342327000,5.24,9.96,-3.41,4
14,57822392712000,7.74,13.4,-3.21,4
14,57822442333000,9.23,12.3,-2.03,4
14,57822492321000,6.74,10.15,3.26,4
14,57822542339000,6.4,9.72,5.22,4
14,57822592419000,6.09,10.23,-3.41,4
14,57822642345000,11.11,5.28,-4.75,4
14,57822692333000,11.73,4.86,2.6,4
14,57822742321000,6.4,8.96,0.99,4
14,57822792309000,6.7,7.86,-2.68,4
14,57822842327000,5.28,5.63,-0.23,4
14,57822892345000,4.14,5.71,-0.69,4
14,57822942333000,2.87,3.83,-0.23,4
14,57822992291000,2.87,3.38,-1.08,4
14,57823042339000,4.56,2.53,-0.95,4
14,57823042339000,4.56,2.53,-0.95,4
14,57823112316000,17.86,8.85,1.95,4
14,57823162334000,4.25,4.6,2.34,4
14,57823212322000,1.42,3.11,-0.38,4
14,57823262341000,6.63,9.53,-1.33,4
14,57823312328000,8.54,11.41,-1.53,4
14,57823362347000,7.46,7.21,-1.88,4
14,57823412334000,8.35,6.4,-0.5,4
14,57823462322000,9.7,5.75,-0.99,4
14,57823512341000,6.36,5.37,-0.15,4
14,57823562328000,6.89,6.78,-0.76,4
14,57823612347000,5.41,7.93,-0.5,4
14,57823662334000,5.37,8.85,-0.69,4
14,57823712322000,5.9,8.16,-2.45,4
14,57823762341000,6.13,9.85,-3.26,4
14,57823812359000,8.5,11.14,-4.21,4
14,57823862347000,8.69,11.41,-2.64,4
14,57823912334000,5.22,12.11,3.95,4
14,57823962353000,3.91,12.49,6.85,4
14,57824012280000,3.72,9.66,-2.22,4
14,57824062328000,5.71,6.21,-1.88,4
14,57824112347000,6.63,4.82,-2.3,4
14,57824162334000,5.43,5.9,0.72,4
14,57824212322000,4.37,8.47,1.5,4
14,57824262341000,4.82,8.08,3.15,4
14,57824312328000,4.63,8.85,-0.04,4
14,57824362347000,4.86,7.63,0.89,4
14,57824412334000,4.75,6.63,-0.04,4
14,57824462322000,5.37,6.17,-1.31,4
14,57824512341000,5.71,6.09,-0.8,4
14,57824562328000,7.86,4.44,0.15,4
14,57824612347000,9.66,5.22,0.61,4
14,57824662334000,13.38,5.83,2.72,4
14,57824712322000,9.43,5.67,2.98,4
14,57824762402000,5.48,8.28,-0.57,4
14,57824812328000,8.69,11.99,-1.8,4
14,57824862347000,8.58,11.45,-1.46,4
14,57824912334000,2.83,5.33,-0.27,4
14,57824962353000,3.91,6.7,-0.15,4
14,57825012280000,5.33,9.08,0.5,4
14,57825062328000,6.24,9.89,-0.42,4
14,57825112347000,5.79,8.01,-3.15,4
14,57825162334000,5.33,7.89,-3.76,4
14,57825212322000,5.13,8.47,-2.14,4
14,57825262341000,5.71,8.12,-0.84,4
14,57825312328000,7.12,7.63,-1.27,4
14,57825362347000,7.74,6.66,-1.33,4
14,57825412334000,7.27,7.5,-0.3,4
14,57825462322000,7.06,7.5,-0.08,4
14,57825512341000,7.12,6.44,-0.91,4
14,57825562328000,6.89,7.25,-0.3,4
14,57825612377000,8.47,9.66,-0.34,4
14,57825662334000,7.27,11.73,-0.53,4
14,57825712322000,5.83,9.58,4.06,4
14,57825762341000,3.41,11.5,3.41,4
14,57825812328000,3.17,12.83,0.04,4
14,57825922131000,7.78,5.41,0.04,4
14,57825922131000,7.78,5.41,0.04,4
14,57825972240000,7.08,5.43,-0.46,4
14,57826022289000,6.21,5.24,-0.23,4
14,57826072308000,4.4,3.95,-0.46,4
14,57826122387000,6.93,4.44,1.95,4
14,57826172344000,9.34,4.86,3.99,4
14,57826222332000,11.3,5.05,5.05,4
14,57826282269000,8.96,6.78,2.83,4
14,57826332348000,10.61,10.5,-0.42,4
14,57826382336000,2.07,7.31,-2.91,4
14,57826432324000,3.3,9.92,-2.6,4
14,57826482342000,5.79,9.62,-1.46,4
14,57826532330000,6.32,7.67,-1.42,4
14,57826582348000,8.54,6.66,-1.46,4
14,57826632336000,8.69,6.21,-1.12,4
14,57826682323000,7.7,7.01,0.31,4
14,57826732342000,8.62,6.74,-0.89,4
14,57826782330000,8.2,7.31,-1.46,4
14,57826832348000,7.59,7.78,-0.46,4
14,57826882336000,6.78,7.16,0.99,4
14,57826932324000,5.75,8.08,2.53,4
14,57826982342000,5.9,7.35,-1.12,4
14,57827042400000,5.41,9.3,-1.76,4
14,57827092266000,5.05,10.08,-3.15,4
14,57827142284000,6.66,9.43,-2.56,4
14,57827192394000,8.73,8.54,-2.68,4
14,57827242321000,10.8,8.47,-2.83,4
14,57827292309000,10.15,8.66,-1.73,4
14,57827342327000,6.7,10.84,4.18,4
14,57827392376000,6.47,11.88,7.06,4
14,57827442333000,2.91,10.42,-3.36,4
14,57827492321000,12.34,6.85,0.27,4
14,57827542339000,8.92,9.3,3.17,4
14,57827592327000,6.55,9.92,0.08,4
14,57827642345000,6.17,6.82,-0.11,4
14,57827692333000,5.37,4.82,0.34,4
14,57827742321000,3.99,3.21,0.46,4
14,57827792309000,2.26,2.26,0.19,4
14,57827842327000,1.92,1.69,-0.08,4
14,57827892345000,3.3,1.65,1.08,4
14,57827942333000,9.38,7.7,1.18,4
14,57827992291000,18.73,15.43,3.99,4
14,57828042339000,3.21,2.98,0.95,4
14,57828092327000,2.41,6.05,-2.79,4
14,57828142345000,8.89,8.35,-3.79,4
14,57828192333000,10.69,6.97,-2.22,4
14,57828242321000,7.86,5.09,-1.69,4
14,57828292370000,7.97,6.02,-0.11,4
14,57828342358000,7.27,7.63,-0.04,4
14,57828392345000,6.4,6.78,-0.11,4
14,57828442303000,6.63,6.78,-0.72,4
14,57828492321000,6.44,7.25,-0.95,4
14,57828542339000,7.12,7.21,-1.99,4
14,57828592327000,7.44,7.46,-2.18,4
14,57828642345000,6.66,7.7,-2.56,4
14,57828692333000,6.09,8.28,-2.41,4
14,57828742321000,5.6,9.53,-0.5,4
14,57828792339000,5.01,8.08,2.26,4
14,57828842327000,6.89,7.59,-2.64,4
14,57828892345000,5.9,7.5,-2.91,4
14,57828942333000,6.28,8.05,-1.95,4
14,57828992321000,8.28,7.44,-1.99,4
14,57829042309000,8.58,7.46,-1.99,4
14,57829092327000,8.31,7.59,-1.08,4
14,57829142345000,8.89,8.01,-1.42,4
14,57829192333000,8.58,8.73,-1.31,4
14,57829242321000,9.08,12.37,-1.76,4
14,57829292339000,6.02,11.37,-1.92,4
14,57829342327000,7.5,8.24,6.82,4
14,57829392345000,7.86,9.85,-1.38,4
14,57829442333000,8.92,7.78,-5.67,4
14,57829492321000,9.77,7.25,4.48,4
14,57829542339000,7.5,9.15,0.04,4
14,57829592327000,5.22,7.7,-0.42,4
14,57829642345000,4.48,5.94,-0.91,4
14,57829692333000,3.95,3.83,-0.15,4
14,57829742321000,3.64,3.06,-0.08,4
14,57829792339000,3.6,1.88,-0.95,4
14,57829842358000,3.99,2.03,-0.53,4
14,57829892345000,7.55,4.06,-1.57,4
14,57829942333000,19.53,16.28,1.42,4
14,57829992291000,5.6,2.91,3.21,4
14,57830042339000,1.65,5.98,-1.38,4
14,57830092327000,5.22,8.12,-1.08,4
14,57830142345000,9.47,10.95,-2.26,4
14,57830192333000,7.89,6.36,-1.95,4
14,57830242321000,8.43,5.41,-0.99,4
14,57830302502000,9.08,5.28,-0.95,4
14,57830352306000,6.32,6.32,-0.42,4
14,57830402325000,6.82,7.21,-1.14,4
14,57830452313000,6.09,7.46,-0.38,4
14,57830502300000,5.9,7.74,-0.95,4
14,57830552319000,5.75,9.89,-2.07,4
14,57830602306000,6.66,11.92,-2.11,4
14,57830652325000,8.08,12.68,-2.22,4
14,57830702313000,9.08,9.81,-1.73,4
14,57830752300000,8.92,6.93,7.25,4
14,57830802349000,6.89,10.38,1.23,4
14,57830852306000,7.08,8.5,-5.75,4
14,57830902294000,12.41,4.25,2.49,4
14,57830902294000,12.41,4.25,2.49,4
14,57830962292000,5.9,8.39,-0.76,4
14,57831012280000,6.51,7.08,-0.95,4
14,57831062328000,6.44,6.59,0.65,4
14,57831112347000,6.24,6.09,-0.15,4
14,57831162334000,5.33,4.86,0.46,4
14,57831212322000,3.83,3.41,0.0,4
14,57831262371000,1.61,4.25,-1.23,4
14,57831312328000,6.4,3.49,-0.76,4
14,57831362347000,18.24,15.17,0.34,4
14,57831412334000,4.33,1.92,1.23,4
14,57831462322000,3.6,6.89,-1.14,4
14,57831512341000,6.24,10.73,-1.38,4
14,57831562328000,7.08,8.62,-1.5,4
14,57831612377000,6.89,5.98,-1.12,4
14,57831662334000,9.47,5.6,-0.8,4
14,57831712322000,11.03,4.02,-0.34,4
14,57831762341000,8.39,4.37,-0.04,4
14,57831812481000,7.12,8.24,0.42,4
14,57831862347000,7.44,8.39,-1.65,4
14,57831912334000,5.28,7.97,-3.06,4
14,57831962353000,3.41,9.89,-5.2,4
14,57832012310000,2.11,10.38,-3.3,4
14,57832062328000,5.24,10.0,-2.11,4
14,57832112347000,10.12,11.26,-3.45,4
14,57832162334000,9.47,8.2,0.19,4
14,57832212322000,6.05,10.46,0.93,4
14,57832262341000,6.74,9.43,0.19,4
14,57832312359000,8.66,7.86,-0.69,4
14,57832362377000,7.25,8.12,-0.84,4
14,57832412365000,5.33,9.34,-2.14,4
14,57832462322000,3.95,9.08,-3.3,4
14,57832512371000,4.48,7.82,2.18,4
14,57832562328000,5.18,8.12,1.84,4
14,57832612347000,4.37,7.06,-0.76,4
14,57832662365000,4.52,7.25,0.57,4
14,57832712322000,3.79,6.36,-0.89,4
14,57832762341000,4.4,5.98,-0.8,4
14,57832812328000,5.9,5.56,-0.11,4
14,57832862347000,8.12,4.6,-0.23,4
14,57832912334000,9.89,3.95,0.0,4
14,57832962353000,14.52,7.06,5.63,4
14,57833012310000,8.54,6.63,2.3,4
14,57833062328000,7.78,11.73,0.72,4
14,57833112347000,7.35,12.3,-0.99,4
14,57833162334000,2.26,6.21,-1.65,4
14,57833212322000,3.34,5.75,-1.14,4
14,57833262341000,6.24,8.16,-1.38,4
14,57833312359000,6.32,9.96,-2.64,4
14,57833362347000,6.13,7.7,-2.18,4
14,57833412334000,5.71,7.67,-2.07,4
14,57833462322000,6.17,8.69,-0.95,4
14,57833512341000,5.75,8.12,-0.27,4
14,57833562328000,6.47,7.78,-0.91,4
14,57833612377000,7.31,7.55,-1.65,4
14,57833662334000,6.97,7.06,-1.42,4
14,57833772106000,7.7,7.01,-1.42,4
14,57833772106000,7.7,7.01,-1.42,4
14,57833822277000,7.82,6.4,-1.27,4
14,57833872387000,9.58,7.97,-0.53,4
14,57833922314000,8.81,11.18,-0.08,4
14,57833972363000,5.52,15.28,10.73,4
14,57834022320000,2.68,14.21,0.11,4
14,57834082287000,3.02,17.43,-1.73,4
14,57834132336000,10.95,7.12,2.26,4
14,57834182354000,8.81,7.89,0.89,4
14,57834232342000,7.78,4.06,0.99,4
14,57834282330000,7.63,1.76,-0.04,4
14,57834332348000,6.78,0.99,2.03,4
14,57834382336000,5.22,0.72,3.06,4
14,57834432293000,5.48,0.72,2.87,4
14,57834482342000,5.28,0.5,3.49,4
14,57834532330000,2.56,0.76,2.98,4
14,57834582348000,2.15,0.46,0.89,4
14,57834632336000,19.11,6.82,5.71,4
14,57834682323000,4.71,5.01,5.52,4
14,57834732342000,2.79,5.41,2.72,4
14,57834782330000,9.96,10.08,0.76,4
14,57834832348000,6.85,3.49,-0.76,4
14,57834882336000,9.96,2.56,-1.46,4
14,57834932324000,7.59,5.13,-0.65,4
14,57834982342000,7.89,8.16,-0.72,4
14,57835032330000,10.19,10.34,-0.08,4
14,57835082348000,6.51,7.21,-0.42,4
14,57835132336000,7.27,7.55,-1.08,4
14,57835182323000,7.31,7.89,-1.46,4
14,57835232342000,7.44,6.89,-0.95,4
14,57835282269000,6.09,5.94,-0.69,4
14,57835332348000,7.5,6.97,0.34,4
14,57835382336000,6.89,7.59,-0.95,4
14,57835432324000,7.74,12.57,-2.3,4
14,57835482342000,7.86,16.55,-2.68,4
14,57835532330000,4.48,11.45,1.99,4
14,57835582348000,4.94,8.28,3.57,4
14,57835632336000,5.79,7.4,-4.14,4
14,57835682323000,17.5,2.37,1.38,4
14,57835732342000,8.77,8.16,3.68,4
14,57835782330000,6.36,10.42,0.99,4
14,57835832348000,7.08,7.25,-0.27,4
14,57835882336000,3.83,4.86,0.65,4
14,57835932324000,3.87,2.34,-0.08,4
14,57835982342000,3.68,1.88,0.27,4
14,57836032299000,4.06,1.88,-1.38,4
14,57836082348000,4.14,1.8,-2.26,4
14,57836132336000,9.04,-0.84,0.42,4
14,57836182323000,16.4,16.86,8.24,4
14,57836232342000,0.31,5.37,0.46,4
14,57836282208000,-1.31,6.82,2.07,4
14,57836332348000,4.75,10.31,-2.07,4
14,57836382336000,9.19,8.69,-4.67,4
14,57836432324000,11.5,6.63,-4.21,4
14,57836482342000,11.18,4.86,-0.53,4
14,57836532360000,6.82,5.71,-0.04,4
14,57836582317000,5.28,7.97,-0.04,4
14,57836632336000,5.41,7.82,-1.42,4
14,57836682323000,5.48,7.74,-2.37,4
14,57836732342000,5.37,8.24,-1.99,4
14,57836782330000,4.48,8.5,-1.38,4
14,57836832348000,5.01,9.85,-0.91,4
14,57836882336000,7.25,11.18,-2.37,4
14,57836932324000,9.89,12.37,-2.83,4
14,57836982342000,8.05,10.95,-1.12,4
14,57837032330000,9.04,9.08,11.35,4
14,57837082348000,5.71,10.65,-2.49,4
14,57837132366000,10.5,7.06,-3.15,4
14,57837182323000,8.69,9.15,2.91,4
14,57837232342000,6.59,8.39,-0.69,4
14,57837282330000,6.78,7.21,-0.76,4
14,57837332348000,4.18,5.63,-0.15,4
14,57837382336000,2.15,4.44,-0.57,4
14,57837432324000,-0.38,2.76,-0.42,4
14,57837482372000,1.69,1.69,-0.5,4
14,57837532330000,11.07,1.61,-0.19,4
14,57837582348000,19.19,18.62,2.91,4
14,57837632336000,5.09,2.56,1.65,4
14,57837682323000,1.38,8.12,-1.65,4
14,57837732342000,5.37,10.38,-1.33,4
14,57837782330000,8.92,10.8,-2.72,4
14,57837832348000,8.96,6.63,-1.46,4
14,57837882336000,7.93,4.67,0.19,4
14,57837932324000,6.66,5.43,0.23,4
14,57837982342000,5.98,6.85,-0.19,4
14,57838032330000,7.25,7.21,-1.33,4
14,57838082317000,7.25,7.93,-0.72,4
14,57838132336000,6.4,8.39,-1.76,4
14,57838182323000,5.41,9.11,-2.22,4
14,57838232342000,6.47,11.8,-2.68,4
14,57838282330000,8.66,12.07,-2.22,4
14,57838332378000,9.04,10.95,-1.99,4
14,57838382336000,6.89,8.43,8.92,4
14,57838432324000,6.74,9.7,1.31,4
14,57838482342000,5.79,8.81,-2.79,4
14,57838532330000,11.56,5.37,1.23,4
14,57838582348000,7.08,9.04,0.53,4
14,57838632336000,6.21,8.05,-0.46,4
14,57838682323000,6.17,7.27,-0.34,4
14,57838732342000,6.93,6.24,0.19,4
14,57838799542000,4.86,4.52,0.5,4
14,57838852306000,2.15,2.76,0.76,4
14,57838902294000,2.22,3.06,0.69,4
14,57838952313000,8.54,1.5,3.21,4
14,57839002300000,18.58,15.02,2.49,4
14,57839052319000,7.55,3.79,1.27,4
14,57839102306000,5.71,2.96,-2.64,4
14,57839152294000,9.19,9.15,-2.14,4
14,57839202313000,8.66,7.55,-0.89,4
14,57839252300000,7.31,6.21,0.31,4
14,57839302319000,7.86,6.82,-0.53,4
14,57839352337000,7.25,7.08,-0.95,4
14,57839402294000,7.06,6.51,-0.46,4
14,57839452313000,8.28,5.67,-1.65,4
14,57839502300000,8.01,6.05,-3.36,4
14,57839552319000,7.16,7.16,-2.34,4
14,57839602306000,5.56,8.16,-1.5,4
14,57839652294000,4.06,9.23,-0.53,4
14,57839702313000,4.79,8.05,-0.27,4
14,57839752300000,6.47,8.2,-2.49,4
14,57839802319000,6.82,7.78,-2.75,4
14,57839852306000,8.47,8.05,-2.87,4
14,57839902294000,9.51,8.92,-3.21,4
14,57839952313000,7.06,11.6,-3.34,4
14,57840002728000,5.13,12.64,-0.69,4
14,57840052380000,5.33,10.69,1.69,4
14,57840102306000,7.06,8.77,-1.27,4
14,57840152294000,6.59,7.67,-1.99,4
14,57840202313000,4.82,6.82,0.53,4
14,57840252300000,3.57,7.31,-1.46,4
14,57840302319000,4.18,7.4,-1.8,4
14,57840352306000,4.21,7.27,1.12,4
14,57840402294000,5.13,7.59,0.08,4
14,57840452313000,7.74,7.27,-0.19,4
14,57840502300000,5.75,7.82,3.21,4
14,57840552319000,4.4,8.01,-0.04,4
14,57840602306000,7.01,7.08,-0.08,4
14,57840652294000,6.55,6.05,-0.27,4
14,57840702313000,6.09,5.56,-0.34,4
14,57840752300000,7.82,4.9,-0.27,4
14,57840802319000,8.77,3.87,1.14,4
14,57840852306000,8.43,5.6,0.19,4
14,57840902294000,7.7,7.44,2.15,4
14,57840952343000,8.85,8.81,1.76,4
14,57841002300000,10.38,12.53,1.38,4
14,57841052319000,5.67,9.15,-0.8,4
14,57841102306000,0.99,6.05,-1.04,4
14,57841152294000,4.29,8.66,-1.23,4
14,57841202313000,6.44,9.89,-0.99,4
14,57841252300000,5.86,8.31,0.23,4
14,57841302898000,5.67,7.46,-1.57,4
14,57841352306000,6.59,8.24,-2.98,4
14,57841402294000,5.56,8.43,-4.52,4
14,57841452313000,4.67,8.43,-1.14,4
14,57841502300000,6.05,8.81,-1.31,4
14,57841552319000,7.93,8.05,-2.3,4
14,57841602337000,8.85,6.21,-2.3,4
14,57841652264000,8.77,6.05,-0.89,4
14,57841702221000,7.67,6.93,-0.15,4
14,57841752331000,5.79,7.93,0.61,4
14,57841802319000,4.9,9.11,-0.11,4
14,57841852306000,4.4,9.08,-0.99,4
14,57841902294000,4.52,8.58,-1.65,4
14,57841952313000,8.69,9.19,-2.98,4
14,57842002483000,12.76,9.0,-3.26,4
14,57842052319000,9.66,10.57,0.69,4
14,57842102306000,4.33,12.79,6.24,4
14,57842152294000,4.44,10.73,-1.46,4
14,57842202313000,6.24,9.53,-1.04,4
14,57842252300000,6.44,7.67,1.65,4
14,57842302319000,9.3,6.51,0.04,4
14,57842352306000,9.85,7.25,-0.84,4
14,57842402355000,5.83,8.43,-0.23,4
14,57842452313000,7.74,6.17,-0.89,4
14,57842502300000,6.93,4.99,-0.3,4
14,57842552319000,5.75,3.64,-0.65,4
14,57842602306000,3.68,2.87,0.15,4
14,57842652325000,4.33,2.72,0.84,4
14,57842702313000,6.44,3.02,0.11,4
14,57842752300000,9.04,3.49,0.08,4
14,57842802349000,15.36,6.13,1.08,4
14,57842852337000,11.96,10.99,0.84,4
14,57842902355000,5.37,4.86,-1.84,4
14,57842952343000,7.16,6.66,-1.08,4
14,57843002331000,6.09,10.5,-0.3,4
14,57843052380000,5.79,8.77,-0.23,4
14,57843102367000,6.05,7.5,-0.89,4
14,57843152294000,7.74,6.89,-2.37,4
14,57843202313000,10.53,4.99,-2.79,4
14,57843252300000,9.72,3.57,-1.5,4
14,57843302319000,8.58,5.43,-1.95,4
14,57843352306000,6.97,7.74,-1.14,4
14,57843402294000,5.56,8.73,-0.11,4
14,57843452313000,5.22,8.62,-0.19,4
14,57843502331000,5.79,7.86,-0.15,4
14,57843552319000,5.71,8.05,-1.33,4
14,57843602337000,4.82,8.85,-2.11,4
14,57843652294000,6.28,10.57,-3.17,4
14,57843702313000,10.73,12.6,-4.52,4
14,57843752300000,10.0,12.53,-3.21,4
14,57843802319000,4.4,9.77,8.24,4
14,57843852337000,6.59,10.0,2.56,4
14,57843902325000,7.93,7.4,-4.18,4
14,57843952313000,13.4,3.3,-2.79,4
14,57844002758000,7.63,7.82,-0.15,4
14,57844052349000,6.24,8.58,-0.65,4
14,57844102367000,5.71,6.85,-2.83,4
14,57844152294000,5.05,5.98,0.04,4
14,57844202313000,5.13,5.56,0.04,4
14,57844252300000,4.71,4.1,0.5,4
14,57844302319000,5.6,2.76,0.42,4
14,57844352306000,4.29,3.6,0.23,4
14,57844402294000,4.71,3.49,0.11,4
14,57844452313000,16.78,3.45,2.49,4
14,57844502361000,11.45,13.25,2.22,4
14,57844552349000,4.06,2.53,-3.11,4
14,57844602306000,9.08,7.12,-0.89,4
14,57844652294000,6.47,8.69,1.23,4
14,57844702313000,6.21,6.36,-0.57,4
14,57844752300000,8.05,9.19,-1.27,4
14,57844802319000,9.3,7.21,-1.73,4
14,57844852306000,7.97,5.52,-1.18,4
14,57844902325000,6.93,4.44,-1.08,4
14,57844952343000,6.89,5.94,-1.12,4
14,57845002331000,6.74,8.47,-2.14,4
14,57845052349000,5.43,9.7,-1.53,4
14,57845102306000,3.38,10.23,1.76,4
14,57845152294000,6.51,8.16,-1.57,4
14,57845202282000,7.25,8.43,-2.75,4
14,57845252300000,7.55,10.0,-3.64,4
14,57845302319000,7.35,10.92,-2.37,4
14,57845352337000,8.54,10.38,-1.61,4
14,57845402294000,7.44,7.78,6.28,4
14,57845452313000,8.85,7.97,2.3,4
14,57845502300000,7.7,8.77,-2.96,4
14,57845552319000,8.5,5.9,-3.91,4
14,57845602306000,8.16,8.66,1.73,4
14,57845652294000,7.08,9.23,-1.57,4
14,57845702313000,5.41,7.82,-0.53,4
14,57845752300000,5.94,6.44,0.84,4
14,57845752300000,5.94,6.44,0.84,4
14,57845842297000,5.83,4.71,0.04,4
14,57845892345000,3.68,3.26,-0.19,4
14,57845942364000,2.15,4.14,0.04,4
14,57845992291000,5.41,3.57,0.93,4
14,57846042339000,12.87,13.82,-0.69,4
14,57846092327000,13.4,7.25,3.26,4
14,57846142345000,4.48,5.22,-0.42,4
14,57846192364000,5.24,9.11,-1.95,4
14,57846242321000,6.32,9.66,-1.69,4
14,57846292339000,7.08,7.93,-1.84,4
14,57846342327000,7.59,6.05,-1.46,4
14,57846392345000,9.58,4.94,-1.65,4
14,57846442333000,8.85,4.1,-0.89,4
14,57846492321000,7.7,6.63,-0.57,4
14,57846542339000,6.36,8.77,-0.08,4
14,57846592327000,4.37,8.85,1.18,4
14,57846642376000,6.21,6.78,-0.72,4
14,57846642376000,6.21,6.78,-0.72,4
14,57846712292000,7.59,5.94,-1.27,4
14,57846762310000,5.94,7.82,0.57,4
14,57846812328000,4.99,8.28,-1.57,4
14,57846862347000,6.05,12.18,-6.4,4
14,57846912334000,6.74,12.76,-6.82,4
14,57846962353000,11.11,11.45,-4.52,4
14,57847012280000,11.41,11.8,-1.92,4
14,57847062328000,4.14,11.03,10.69,4
14,57847112408000,7.27,7.31,-1.14,4
14,57847162334000,5.9,6.36,-2.83,4
14,57847212322000,4.9,6.32,-0.95,4
14,57847262341000,5.24,6.36,-1.53,4
14,57847312634000,5.56,7.27,-0.57,4
14,57847362347000,3.53,10.95,4.71,4
14,57847412334000,5.98,7.35,-1.42,4
14,57847462322000,3.91,9.38,1.33,4
14,57847512341000,3.02,7.21,0.19,4
14,57847562328000,6.02,7.01,-0.19,4
14,57847612347000,7.97,5.67,-0.84,4
14,57847662334000,7.27,4.1,-1.27,4
14,57847712322000,8.28,4.14,0.27,4
14,57847762341000,11.41,3.79,3.83,4
14,57847812328000,7.63,6.55,5.22,4
14,57847862347000,5.33,7.59,3.06,4
14,57847912334000,11.99,11.26,3.91,4
14,57847962353000,4.06,7.27,1.38,4
14,57848012280000,0.0,11.73,-2.26,4
14,57848062328000,2.64,11.3,-0.42,4
14,57848112347000,4.94,9.43,-1.31,4
14,57848162334000,6.51,7.7,-2.49,4
14,57848212322000,8.35,7.16,-2.03,4
14,57848262341000,9.0,7.93,-2.07,4
14,57848312359000,5.6,7.86,-1.18,4
14,57848362347000,4.79,9.15,-2.18,4
14,57848412334000,7.89,8.16,-2.87,4
14,57848462322000,11.54,5.6,-2.79,4
14,57848512341000,12.6,2.72,-1.88,4
14,57848562328000,10.73,5.33,5.83,4
14,57848612347000,7.46,8.73,4.14,4
14,57848662334000,6.28,8.69,2.41,4
14,57848712322000,7.63,9.0,-0.15,4
14,57848762341000,8.28,12.87,-1.5,4
14,57848812634000,7.67,10.19,-2.37,4
14,57848862347000,9.3,5.79,7.89,4
14,57848912334000,9.58,8.12,0.08,4
14,57848962353000,10.15,6.44,1.33,4
14,57849012280000,8.35,8.31,2.34,4
14,57849062328000,7.31,7.97,0.34,4
14,57849112347000,6.85,7.35,-0.3,4
14,57849162334000,5.75,6.28,0.72,4
14,57849212322000,6.82,4.1,0.76,4
14,57849262341000,5.52,4.14,0.34,4
14,57849312328000,3.64,4.02,-0.53,4
14,57849362347000,2.91,4.21,-0.11,4
14,57849472149000,12.45,11.73,-0.89,4
14,57849472149000,12.45,11.73,-0.89,4
14,57849522228000,15.75,11.35,2.87,4
14,57849572399000,3.83,4.99,0.08,4
14,57849622295000,3.64,8.43,-2.68,4
14,57849672375000,6.82,9.72,-2.41,4
14,57849722332000,8.69,7.93,-1.18,4
14,57849782330000,8.35,5.18,-1.08,4
14,57849832348000,7.44,5.22,-0.69,4
14,57849882336000,7.01,6.02,-0.91,4
14,57849932324000,7.35,7.08,-1.65,4
14,57849982372000,7.25,7.89,-2.18,4
14,57850032330000,5.6,8.89,-0.57,4
14,57850082348000,4.44,9.0,0.99,4
14,57850132336000,6.63,7.82,-1.95,4
14,57850182323000,7.31,8.85,-2.64,4
14,57850232342000,8.58,11.26,-3.36,4
14,57850282269000,9.81,11.69,-2.87,4
14,57850332348000,6.66,10.53,1.95,4
14,57850382366000,6.32,9.04,5.18,4
14,57850432324000,7.74,8.54,-1.27,4
14,57850482342000,8.43,5.48,0.23,4
14,57850532330000,11.22,4.99,0.38,4
14,57850582348000,7.01,8.69,-0.57,4
14,57850632336000,5.56,8.96,0.42,4
14,57850682323000,5.48,7.35,-0.15,4
14,57850732342000,6.74,5.28,-0.11,4
14,57850782330000,5.94,4.79,-0.38,4
14,57850832348000,4.21,3.72,-0.69,4
14,57850882336000,3.45,3.6,0.04,4
14,57850932324000,2.96,4.75,0.0,4
14,57850982342000,17.16,1.84,2.07,4
14,57851032330000,12.11,14.86,2.22,4
14,57851082348000,6.13,3.21,-1.61,4
14,57851132336000,9.53,4.71,-2.14,4
14,57851182354000,7.63,10.19,-1.33,4
14,57851232342000,5.9,6.85,-1.12,4
14,57851282238000,6.55,7.97,-0.72,4
14,57851332348000,7.25,7.31,-0.34,4
14,57851382336000,5.52,6.13,-0.69,4
14,57851432324000,6.7,6.55,-0.46,4
14,57851482342000,7.78,6.36,-1.38,4
14,57851532330000,7.82,6.7,-2.75,4
14,57851582348000,7.08,7.82,-2.26,4
14,57851632336000,5.67,8.31,-1.53,4
14,57851682323000,5.37,7.93,1.27,4
14,57851732342000,6.85,7.55,-2.11,4
14,57851782330000,6.44,9.85,-3.06,4
14,57851832378000,6.82,11.96,-3.6,4
14,57851882336000,8.12,11.54,-3.06,4
14,57851932385000,7.01,9.7,-1.95,4
14,57851982372000,8.58,7.7,9.19,4
14,57852032330000,9.11,9.89,-1.76,4
14,57852082348000,9.08,7.46,-5.05,4
14,57852132336000,11.99,4.9,-0.5,4
14,57852182323000,5.67,10.42,-1.92,4
14,57852232342000,6.97,9.72,-1.18,4
14,57852282330000,5.94,7.25,-0.61,4
14,57852332348000,5.37,6.05,-0.08,4
14,57852382336000,3.87,4.25,-0.5,4
14,57852432324000,2.87,3.38,0.04,4
14,57852482342000,4.18,2.56,0.08,4
14,57852532330000,4.21,1.99,-0.04,4
14,57852582348000,9.19,4.82,-1.84,4
14,57852632336000,18.62,13.87,0.31,4
14,57852682323000,9.15,3.3,0.95,4
14,57852732342000,2.79,4.02,-2.49,4
14,57852782330000,7.63,4.33,-4.06,4
14,57852832348000,10.08,9.0,-2.49,4
14,57852882336000,7.31,6.63,-1.42,4
14,57852932293000,7.25,6.63,-0.65,4
14,57852982342000,6.36,7.86,-0.27,4
14,57853032330000,6.28,7.16,-0.72,4
14,57853082409000,6.93,6.21,-0.76,4
14,57853132336000,8.16,6.4,-1.08,4
14,57853182354000,8.89,6.36,-1.73,4
14,57853232342000,7.93,7.06,-1.65,4
14,57853282330000,6.24,8.2,-0.61,4
14,57853332348000,5.33,8.28,0.61,4
14,57853382336000,6.7,7.67,-1.14,4
14,57853432324000,6.02,7.55,-2.22,4
14,57853482342000,5.43,8.77,-2.3,4
14,57853532330000,5.9,10.19,-2.49,4
14,57853582348000,8.73,10.84,-3.26,4
14,57853632336000,9.62,10.42,-2.34,4
14,57853682323000,6.66,10.61,-1.42,4
14,57853732342000,6.02,9.0,7.25,4
14,57853782330000,4.33,9.85,-1.61,4
14,57853832348000,7.06,3.83,-3.21,4
14,57853882336000,14.86,8.24,5.43,4
14,57853932324000,4.86,8.85,1.23,4
14,57853982372000,7.7,9.28,1.8,4
14,57854032330000,5.63,9.3,1.04,4
14,57854082348000,7.12,5.71,0.34,4
14,57854132336000,6.09,4.14,0.46,4
14,57854182385000,4.79,0.99,-0.19,4
14,57854232342000,3.79,0.57,0.15,4
14,57854282330000,5.05,0.19,0.23,4
14,57854332348000,4.06,0.08,1.65,4
14,57854382336000,16.02,-3.15,6.4,4
14,57854432324000,11.54,14.63,2.03,4
14,57854499767000,6.09,0.72,-1.33,4
14,57854552319000,7.78,10.84,0.5,4
14,57854602306000,6.28,7.12,-0.61,4
14,57854652294000,8.5,6.82,-1.27,4
14,57854702313000,8.16,7.74,-1.95,4
14,57854752331000,7.21,7.08,-2.37,4
14,57854802319000,7.16,7.25,-1.95,4
14,57854852306000,7.46,7.55,-1.88,4
14,57854902294000,7.31,7.4,-1.38,4
14,57854952313000,8.2,6.02,-1.92,4
14,57855002331000,7.31,6.24,-0.72,4
14,57855052319000,6.44,7.7,-0.57,4
14,57855102306000,6.32,8.77,-0.69,4
14,57855152294000,6.55,7.97,-1.33,4
14,57855202313000,6.82,6.78,-1.84,4
14,57855252300000,6.7,7.21,-1.61,4
14,57855252300000,6.7,7.21,-1.61,4
14,57855312328000,5.9,8.24,-1.46,4
14,57855362408000,5.71,8.05,-0.8,4
14,57855412334000,7.55,7.82,-0.89,4
14,57855462322000,9.38,8.89,-1.38,4
14,57855512341000,7.63,8.31,-0.27,4
14,57855562328000,6.51,7.74,0.11,4
14,57855612377000,8.43,7.21,5.98,4
14,57855662334000,4.29,9.62,1.14,4
14,57855712322000,6.7,12.95,-1.31,4
14,57855762341000,12.41,9.08,-1.5,4
14,57855812328000,9.53,7.06,5.79,4
14,57855862347000,8.24,7.82,0.53,4
14,57855912334000,6.24,4.75,-1.8,4
14,57855962353000,6.55,2.41,0.42,4
14,57856012280000,7.12,1.04,0.72,4
14,57856062328000,5.83,1.65,1.33,4
14,57856112347000,5.56,2.37,-0.15,4
14,57856162334000,4.94,2.56,-0.3,4
14,57856212322000,16.13,-1.08,4.4,4
14,57856262371000,12.53,13.14,4.33,4
14,57856312328000,4.02,3.99,1.69,4
14,57856362347000,5.75,6.13,0.08,4
14,57856412334000,8.2,7.74,-1.38,4
14,57856462322000,9.85,5.71,-3.06,4
14,57856512341000,10.88,4.06,-2.03,4
14,57856562328000,8.81,5.28,-1.23,4
14,57856612377000,7.97,7.31,-0.27,4
14,57856662334000,6.51,6.28,0.57,4
14,57856712322000,7.01,7.35,-0.76,4
14,57856762341000,8.01,7.12,-1.38,4
14,57856812328000,8.2,6.89,-2.53,4
14,57856862347000,7.55,6.97,-2.91,4
14,57856912334000,6.44,7.16,-2.18,4
14,57856962353000,7.25,6.97,-1.38,4
14,57857012280000,9.08,6.24,0.04,4
14,57857062328000,7.16,6.97,0.95,4
14,57857112347000,6.59,7.86,-0.91,4
14,57857162334000,5.33,7.93,-1.27,4
14,57857212322000,4.63,10.15,-0.69,4
14,57857322155000,8.77,10.38,-3.95,4
14,57857322155000,8.77,10.38,-3.95,4
14,57857372234000,10.04,11.88,-3.79,4
14,57857422375000,6.78,9.96,-0.15,4
14,57857472302000,8.58,7.55,7.93,4
14,57857522320000,8.05,8.73,1.14,4
14,57857572338000,5.71,7.25,-4.18,4
14,57857622326000,12.26,3.53,0.99,4
14,57857682323000,5.83,9.51,-0.65,4
14,57857732342000,6.28,7.25,-1.31,4
14,57857782330000,5.86,7.44,-1.53,4
14,57857832348000,6.59,6.32,0.27,4
14,57857882336000,6.55,5.18,0.57,4
14,57857932324000,5.75,4.06,0.46,4
14,57857982342000,6.59,3.15,0.31,4
14,57858032330000,5.18,2.87,0.08,4
14,57858082378000,6.82,1.42,3.3,4
14,57858132336000,14.06,3.95,1.31,4
14,57858182323000,10.15,8.73,0.0,4
14,57858232372000,7.5,6.93,-1.61,4
14,57858282330000,12.37,7.12,-3.11,4
14,57858332348000,8.08,7.63,2.45,4
14,57858382336000,6.44,7.67,0.08,4
14,57858432323000,8.05,6.59,-0.42,4
14,57858482342000,7.06,5.86,-0.38,4
14,57858532330000,7.82,6.44,-2.22,4
14,57858582348000,8.62,6.09,-1.88,4
14,57858632366000,8.47,5.86,-1.57,4
14,57858682323000,7.74,6.74,-0.95,4
14,57858732342000,6.24,7.46,0.08,4
14,57858782330000,7.25,7.16,-0.27,4
14,57858832348000,8.47,6.17,-1.57,4
14,57858882641000,7.16,6.4,-1.73,4
14,57858932324000,5.67,7.86,-1.31,4
14,57858982311000,5.67,8.31,-1.23,4
14,57859032330000,7.59,9.77,-1.92,4
14,57859082348000,8.81,11.26,-2.75,4
14,57859132336000,9.0,9.53,-0.27,4
14,57859182323000,9.28,7.12,2.53,4
14,57859232342000,7.74,9.0,0.84,4
14,57859282330000,7.5,8.54,0.5,4
14,57859332348000,6.44,8.24,-2.07,4
14,57859382336000,8.92,5.98,-2.83,4
14,57859432323000,10.0,5.6,1.69,4
14,57859482342000,5.43,9.0,-2.45,4
14,57859532330000,4.25,7.31,-1.14,4
14,57859582348000,7.21,5.71,0.0,4
14,57859632336000,9.38,5.6,0.04,4
14,57859682323000,5.13,5.67,0.19,4
14,57859732342000,1.95,2.6,-0.15,4
14,57859782330000,12.45,7.93,2.64,4
14,57859832348000,8.89,3.79,4.1,4
14,57859882336000,6.63,4.52,2.22,4
14,57859932324000,5.71,3.79,1.42,4
14,57859982342000,2.76,4.56,-1.27,4
14,57860032330000,16.66,3.26,-3.98,4
14,57860082348000,8.73,9.15,-0.61,4
14,57860132336000,5.98,1.18,-3.76,4
14,57860182323000,11.75,5.9,-1.53,4
14,57860232342000,6.51,9.19,2.18,4
14,57860282238000,4.4,6.78,-0.53,4
14,57860332348000,5.48,7.97,-1.27,4
14,57860382336000,7.16,7.55,-0.95,4
14,57860432323000,8.54,6.55,-1.42,4
14,57860482342000,8.58,5.28,-1.38,4
14,57860532330000,8.69,6.4,-1.5,4
14,57860582348000,6.97,7.4,-1.57,4
14,57860632336000,5.71,8.69,-1.57,4
14,57860682323000,3.64,9.72,-2.41,4
14,57860732342000,3.26,8.89,-1.23,4
14,57860782330000,4.99,8.24,-1.84,4
14,57860832348000,6.85,9.43,-2.64,4
14,57860882336000,9.77,10.31,-2.3,4
14,57860932323000,12.03,10.04,-2.14,4
14,57860982342000,8.62,8.96,3.95,4
14,57861032330000,6.63,9.85,2.91,4
14,57861082348000,5.48,10.23,-0.53,4
14,57861132336000,4.86,8.5,-2.22,4
14,57861182354000,10.53,4.71,1.42,4
14,57861232342000,8.62,6.63,-0.65,4
14,57861282330000,7.4,7.82,-0.38,4
14,57861332348000,6.28,7.35,-0.27,4
14,57861382336000,8.35,6.28,0.5,4
14,57861432323000,7.27,5.13,1.27,4
14,57861482342000,4.52,3.87,0.42,4
14,57861532330000,5.01,2.3,0.93,4
14,57861582348000,5.05,2.15,0.57,4
14,57861632336000,5.94,1.57,-0.5,4
14,57861682323000,7.63,0.08,-1.31,4
14,57861732342000,19.42,4.63,2.96,4
14,57861782330000,9.0,10.92,1.84,4
14,57861832378000,3.68,1.42,-0.11,4
14,57861882336000,5.94,10.04,0.53,4
14,57861932385000,7.93,9.62,-1.88,4
14,57861982372000,7.16,6.47,-1.76,4
14,57862032330000,7.12,6.66,-0.53,4
14,57862082348000,8.08,7.5,-0.65,4
14,57862132305000,6.7,7.01,-0.65,4
14,57862182385000,5.52,5.94,-0.57,4
14,57862232342000,7.4,7.27,-2.64,4
14,57862282330000,6.78,8.85,-3.49,4
14,57862349773000,5.75,7.86,-1.69,4
14,57862402294000,5.83,7.44,-1.38,4
14,57862452313000,6.85,7.46,-0.91,4
14,57862502331000,6.59,8.01,-0.76,4
14,57862552319000,6.44,8.05,-0.69,4
14,57862602306000,6.85,6.78,-2.26,4
14,57862652294000,7.16,7.35,-1.95,4
14,57862702313000,6.32,8.35,-2.26,4
14,57862752300000,6.17,9.7,-2.83,4
14,57862802319000,7.74,9.77,-2.64,4
14,57862852306000,7.25,9.15,-1.27,4
14,57862902325000,5.22,8.05,0.42,4
14,57862952313000,5.56,8.96,11.26,4
14,57863002300000,2.83,9.23,-2.07,4
14,57863052319000,5.09,13.21,-2.34,4
14,57863102306000,5.43,12.22,2.53,4
14,57863152294000,4.56,8.73,0.04,4
14,57863202313000,5.83,6.47,-1.27,4
14,57863252300000,8.77,4.44,-1.42,4
14,57863302319000,6.66,4.4,-1.04,4
14,57863352306000,6.21,5.24,-0.84,4
14,57863402294000,6.13,6.17,0.99,4
14,57863452313000,10.5,6.66,2.68,4
14,57863502300000,11.35,6.13,8.12,4
14,57863552319000,4.48,6.44,0.19,4
14,57863602337000,5.09,11.22,-0.89,4
14,57863652294000,7.67,15.51,-1.95,4
14,57863702313000,3.79,10.23,1.57,4
14,57863752300000,0.08,4.48,4.52,4
14,57863802319000,2.6,8.31,-1.27,4
14,57863852306000,5.01,12.22,-2.98,4
14,57863902294000,4.94,9.43,-4.21,4
14,57863952313000,4.37,8.12,-3.36,4
14,57864002880000,4.4,9.34,-3.34,4
14,57864052349000,5.71,9.3,-1.69,4
14,57864102306000,7.44,8.58,-1.53,4
14,57864152294000,9.51,6.89,-2.41,4
14,57864202313000,9.85,4.4,-1.53,4
14,57864252300000,8.66,5.94,0.5,4
14,57864302319000,6.55,7.35,2.96,4
14,57864352306000,6.55,6.7,-0.38,4
14,57864402294000,6.13,7.97,-0.23,4
14,57864452313000,5.01,11.41,-2.07,4
14,57864502300000,5.83,12.57,-2.91,4
14,57864552319000,10.42,11.6,-3.64,4
14,57864602306000,7.86,9.38,-1.92,4
14,57864652294000,7.44,10.23,8.96,4
14,57864702313000,5.75,12.18,-1.12,4
14,57864752300000,6.47,11.84,5.63,4
14,57864802319000,3.45,12.41,1.57,4
14,57864852306000,2.87,9.72,-1.46,4
14,57864902325000,8.58,6.47,-1.88,4
14,57864952313000,9.89,4.9,-1.95,4
14,57865002300000,5.52,3.91,-1.92,4
14,57865052319000,2.76,2.18,-1.31,4
14,57865102306000,-0.15,2.83,-1.23,4
14,57865152325000,4.79,2.07,0.15,4
14,57865202282000,16.17,13.91,1.14,4
14,57865252209000,12.45,9.23,4.79,4
14,57865302258000,2.15,5.33,0.57,4
14,57865352306000,3.68,9.15,-1.5,4
14,57865402294000,7.63,11.92,-1.99,4
14,57865452313000,7.7,8.39,-1.65,4
14,57865502300000,7.44,5.6,-0.72,4
14,57865552319000,8.69,4.48,-0.5,4
14,57865602306000,7.08,6.32,0.95,4
14,57865652294000,6.7,7.21,-0.08,4
14,57865702313000,7.06,7.7,-1.04,4
14,57865752300000,6.36,8.35,-1.61,4
14,57865802319000,4.99,9.0,-1.76,4
14,57865852306000,4.86,9.43,-2.26,4
14,57865902294000,6.21,10.53,-3.11,4
14,57865952343000,7.97,10.65,-2.64,4
14,57866002453000,10.08,9.89,-2.37,4
14,57866052319000,7.74,9.85,4.82,4
14,57866102337000,5.98,11.45,5.22,4
14,57866152294000,6.4,9.53,-2.37,4
14,57866202313000,10.65,5.98,-5.75,4
14,57866252300000,8.85,5.83,2.45,4
14,57866302319000,9.51,8.39,0.72,4
14,57866352337000,7.21,8.24,-2.56,4
14,57866402294000,5.43,6.7,-0.11,4
14,57866452313000,4.52,5.22,-0.23,4
14,57866502300000,3.26,2.87,0.38,4
14,57866552319000,2.26,2.98,-0.3,4
14,57866602306000,2.72,2.72,-1.08,4
14,57866652294000,11.3,1.61,1.76,4
14,57866702313000,18.2,15.32,1.14,4
14,57866752300000,3.15,4.52,0.53,4
14,57866802319000,4.79,3.57,-1.88,4
14,57866852306000,8.96,10.88,0.38,4
14,57866902325000,6.21,9.0,-1.04,4
14,57866952313000,6.28,8.47,-1.76,4
14,57867002300000,7.06,6.93,-2.41,4
14,57867052319000,9.04,6.55,-2.45,4
14,57867102306000,8.73,5.01,-1.14,4
14,57867152294000,7.74,5.33,0.08,4
14,57867202313000,7.78,7.67,0.15,4
14,57867252300000,6.66,7.82,-0.69,4
14,57867302319000,5.86,8.2,-1.69,4
14,57867352306000,4.86,9.28,-2.49,4
14,57867402294000,4.99,11.96,-3.41,4
14,57867452313000,6.82,11.54,-2.18,4
14,57867502300000,8.89,10.57,-1.69,4
14,57867552319000,6.82,8.12,3.15,4
14,57867602306000,6.32,9.72,4.37,4
14,57867652294000,5.24,9.53,-2.49,4
14,57867702313000,8.43,7.7,-4.1,4
14,57867752300000,13.87,4.94,1.33,4
14,57867802349000,8.05,7.74,-1.53,4
14,57867852306000,7.01,9.62,0.27,4
14,57867902294000,3.99,7.74,-1.33,4
14,57867952313000,6.02,5.37,0.69,4
14,57868002636000,6.05,4.4,0.53,4
14,57868052319000,4.56,3.95,-0.5,4
14,57868102306000,2.11,3.83,-0.57,4
14,57868152294000,4.67,1.76,2.07,4
14,57868202313000,11.69,9.0,-1.8,4
14,57868252300000,15.17,14.14,1.76,4
14,57868302471000,5.13,3.83,-1.57,4
14,57868352306000,6.17,7.08,-2.07,4
14,57868402294000,7.12,7.74,-2.14,4
14,57868452313000,8.47,7.21,-1.61,4
14,57868502300000,7.5,5.9,-0.84,4
14,57868552319000,8.12,5.98,-0.5,4
14,57868602306000,6.55,6.32,0.5,4
14,57868652294000,6.93,6.55,-0.95,4
14,57868702313000,6.28,7.4,-2.18,4
14,57868752300000,5.79,8.05,-1.76,4
14,57868802319000,5.9,9.04,-2.18,4
14,57868852367000,6.36,9.38,-2.64,4
14,57868902294000,8.12,10.92,-2.96,4
14,57868952343000,10.46,11.37,-1.76,4
14,57869002361000,7.67,11.26,4.37,4
14,57869052319000,5.83,10.27,4.67,4
14,57869102337000,6.51,9.66,0.46,4
14,57869152294000,7.06,7.4,1.65,4
14,57869202343000,9.08,7.89,1.14,4
14,57869252300000,6.05,9.19,1.08,4
14,57869302319000,5.56,7.7,0.76,4
14,57869352306000,8.16,6.4,0.0,4
14,57869402294000,7.44,5.05,0.23,4
14,57869452313000,3.17,4.02,0.0,4
14,57869502300000,3.21,1.95,0.57,4
14,57869552319000,5.41,2.03,1.95,4
14,57869602306000,6.4,1.69,1.76,4
14,57869652294000,6.89,1.65,-0.8,4
14,57869702374000,16.66,0.19,1.5,4
14,57869752361000,12.91,13.76,3.99,4
14,57869802349000,1.65,0.69,0.31,4
14,57869852337000,3.02,6.32,1.42,4
14,57869902325000,7.46,13.72,-1.61,4
14,57869952313000,7.21,8.2,-0.99,4
14,57870002544000,6.89,7.16,-0.99,4
14,57870052349000,7.7,6.28,-1.23,4
14,57870102306000,8.85,6.7,-1.53,4
14,57870152355000,7.16,6.78,-1.42,4
14,57870208538000,6.51,7.12,-1.69,4
14,57870208538000,6.51,7.12,-1.69,4
14,57870262310000,6.13,7.55,-2.53,4
14,57870312328000,5.37,7.78,-1.14,4
14,57870362377000,5.98,8.08,-0.72,4
14,57870412334000,6.82,7.63,-0.53,4
14,57870462353000,8.73,6.59,-1.53,4
14,57870512371000,7.27,6.13,-0.8,4
14,57870562359000,6.7,7.55,-1.73,4
14,57870612408000,5.48,7.82,-0.95,4
14,57870662396000,6.21,9.62,-0.57,4
14,57870712322000,9.3,11.54,-2.34,4
14,57870762341000,6.85,10.73,-1.23,4
14,57870812328000,4.6,8.28,3.38,4
14,57870862347000,2.49,11.37,2.03,4
14,57870912334000,6.7,10.92,-3.34,4
14,57870962353000,6.82,6.97,-1.08,4
14,57871012341000,4.14,6.85,-1.53,4
14,57871062359000,5.13,5.79,-2.3,4
14,57871112347000,7.82,4.9,-0.04,4
14,57871162365000,6.21,6.4,0.08,4
14,57871212353000,6.82,6.05,0.15,4
14,57871262341000,8.54,5.94,1.42,4
14,57871312328000,10.8,5.98,2.98,4
14,57871362347000,8.39,5.9,1.99,4
14,57871412334000,5.71,6.17,-0.65,4
14,57871462322000,5.79,5.43,-1.42,4
14,57871512341000,6.36,6.02,-2.6,4
14,57871562328000,15.09,12.11,-1.12,4
14,57871612347000,12.64,8.81,8.24,4
14,57871662334000,-4.14,11.37,-2.98,4
14,57871712322000,-1.18,8.05,-1.76,4
14,57871762341000,3.68,12.03,-1.88,4
14,57871812328000,5.01,10.95,-3.45,4
14,57871862347000,7.06,7.7,-2.75,4
14,57871912334000,9.47,7.5,-3.6,4
14,57871962353000,10.46,6.24,-0.84,4
14,57872012310000,7.06,4.48,-1.04,4
14,57872062328000,7.86,7.7,-1.18,4
14,57872112347000,7.08,8.89,0.8,4
14,57872162334000,6.63,8.12,0.34,4
14,57872212322000,7.16,6.02,0.89,4
14,57872262341000,9.58,7.25,0.84,4
14,57872312328000,9.72,14.33,4.82,4
14,57872362347000,5.05,15.83,1.23,4
14,57872412334000,2.07,13.21,1.14,4
14,57872462322000,8.66,7.89,-0.23,4
14,57872512341000,8.47,5.75,0.42,4
14,57872562328000,8.73,6.02,0.76,4
14,57872612347000,8.92,3.72,0.04,4
14,57872662334000,6.7,2.76,0.53,4
14,57872712322000,6.24,2.41,2.41,4
14,57872762341000,5.52,2.22,2.56,4
14,57872812328000,5.71,1.99,2.87,4
14,57872862347000,6.93,1.8,2.49,4
14,57872912334000,7.31,2.6,2.15,4
14,57872962353000,13.06,1.65,3.41,4
14,57873072277000,7.46,3.38,1.69,4
14,57873072277000,7.46,3.38,1.69,4
14,57873122295000,12.64,4.52,0.76,4
14,57873172436000,7.59,6.47,0.19,4
14,57873222302000,7.63,8.85,-1.65,4
14,57873272320000,7.44,8.28,-1.23,4
14,57873322338000,8.24,7.78,-0.61,4
14,57873382336000,5.9,7.86,-0.91,4
14,57873432324000,6.24,8.24,-1.14,4
14,57873482342000,6.89,7.4,-0.34,4
14,57873532330000,7.78,6.78,-0.27,4
14,57873582348000,8.73,6.66,-0.91,4
14,57873632336000,7.78,6.97,-0.84,4
14,57873682323000,6.24,7.08,-1.38,4
14,57873732342000,5.63,8.92,-0.91,4
14,57873782360000,5.09,9.77,-0.42,4
14,57873832317000,6.44,9.51,-1.31,4
14,57873882336000,8.05,10.69,-2.72,4
14,57873932324000,8.81,11.07,-2.37,4
14,57873982342000,5.71,10.76,-0.99,4
14,57874032330000,6.51,10.12,8.81,4
14,57874082348000,6.17,10.46,-1.76,4
14,57874132336000,6.78,8.77,-3.64,4
14,57874182598000,13.1,4.25,2.91,4
14,57874232342000,7.63,7.74,0.84,4
14,57874282330000,5.18,8.24,-0.61,4
14,57874332348000,5.28,5.63,-0.8,4
14,57874332348000,5.28,5.63,-0.8,4
14,57874332348000,5.28,5.63,-0.8,4
14,57874332348000,5.28,5.63,-0.8,4
14,57874332348000,5.28,5.63,-0.8,4
14,57874332348000,5.28,5.63,-0.8,4
14,57874332348000,5.28,5.63,-0.8,4
14,57874702251000,6.44,9.19,2.26,4
14,57874752300000,8.54,4.6,-3.53,4
14,57874802319000,9.23,8.81,4.75,4
14,57874852306000,5.94,6.7,-1.5,4
14,57874902294000,6.63,5.6,-2.49,4
14,57874952313000,8.77,8.77,-2.22,4
14,57875002300000,9.19,6.4,-2.68,4
14,57875052319000,7.08,6.7,0.72,4
14,57875102337000,6.09,7.25,0.15,4
14,57875102337000,6.09,7.25,0.15,4
14,57875172375000,7.74,7.08,-0.99,4
14,57875222302000,7.59,6.89,-1.14,4
14,57875272869000,5.63,6.63,-1.08,4
14,57875332684000,5.98,9.04,-2.11,4
14,57875382336000,8.66,10.95,-1.92,4
14,57875432324000,9.19,11.88,-1.61,4
14,57875482342000,5.94,10.73,-1.18,4
14,57875532330000,6.47,8.43,7.97,4
14,57875582348000,5.9,9.7,-0.46,4
14,57875632336000,7.06,7.67,-4.82,4
14,57875682323000,13.4,5.56,3.83,4
14,57875732342000,7.55,8.05,1.46,4
14,57875782360000,6.47,7.86,-1.61,4
14,57875832348000,6.55,7.27,-0.42,4
14,57875882336000,6.17,4.71,0.84,4
14,57875932324000,4.44,4.25,-0.57,4
14,57875982372000,2.96,3.02,-0.3,4
14,57876032330000,1.8,3.41,-0.76,4
14,57876082348000,11.54,0.53,2.3,4
14,57876132336000,18.43,15.13,3.45,4
14,57876182323000,7.93,3.72,1.04,4
14,57876232342000,4.67,4.06,-1.99,4
14,57876282238000,7.21,9.47,-1.04,4
14,57876332378000,8.35,7.78,-1.57,4
14,57876382336000,8.12,6.21,-1.5,4
14,57876432324000,8.31,6.97,-1.14,4
14,57876482342000,7.7,6.13,-0.76,4
14,57876532330000,6.66,7.01,-0.19,4
14,57876582348000,7.16,6.78,-0.27,4
14,57876632366000,7.97,6.78,-0.57,4
14,57876682293000,7.63,7.21,-0.57,4
14,57876732342000,6.63,7.59,-1.69,4
14,57876782360000,5.86,8.31,-2.26,4
14,57876832439000,4.67,9.77,-3.21,4
14,57876882336000,3.68,11.65,-2.45,4
14,57876932324000,6.02,11.6,-1.38,4
14,57876982372000,11.35,9.43,-1.65,4
14,57877032330000,11.22,7.89,5.05,4
14,57877082348000,5.86,10.92,1.33,4
14,57877132366000,4.44,8.92,-3.87,4
14,57877182323000,13.59,4.25,-2.83,4
14,57877232342000,7.67,8.62,4.56,4
14,57877282330000,7.86,9.43,0.11,4
14,57877332684000,6.78,9.08,-0.04,4
14,57877382366000,4.52,6.93,1.31,4
14,57877432354000,6.09,4.63,1.18,4
14,57877482342000,4.82,4.02,0.08,4
14,57877532330000,3.26,2.49,-0.23,4
14,57877582348000,1.95,2.34,-0.69,4
14,57877632336000,11.35,-0.8,3.83,4
14,57877682323000,12.3,13.57,2.49,4
14,57877732403000,8.92,5.01,1.33,4
14,57877782330000,6.51,4.99,1.69,4
14,57877832317000,5.6,9.85,-1.08,4
14,57877882336000,7.78,8.12,-2.53,4
14,57877932324000,8.73,6.47,-3.26,4
14,57877982372000,10.38,5.6,-1.8,4
14,57878032360000,9.85,5.86,-0.69,4
14,57878082348000,6.89,6.51,1.69,4
14,57878132336000,5.18,6.93,0.46,4
14,57878182293000,5.79,6.74,-1.04,4
14,57878232372000,6.66,7.16,-2.11,4
14,57878282360000,6.28,8.05,-4.18,4
14,57878332348000,4.75,8.62,-3.57,4
14,57878382336000,3.76,8.96,-1.73,4
14,57878432354000,4.25,9.72,-1.57,4
14,57878482342000,5.41,9.58,-0.8,4
14,57878532330000,5.6,9.77,-0.65,4
14,57878582348000,5.09,8.58,-1.38,4
14,57878632366000,6.78,8.12,-2.3,4
14,57878682354000,10.73,7.78,-2.96,4
14,57878732372000,10.23,5.09,-1.8,4
14,57878782360000,8.96,5.52,0.15,4
14,57878832317000,8.66,10.31,10.19,4
14,57878882336000,5.6,9.15,0.57,4
14,57878932354000,4.6,12.95,1.04,4
14,57878982372000,4.02,11.37,5.79,4
14,57879032330000,7.21,8.47,0.76,4
14,57879082348000,9.04,6.78,0.15,4
